#time,accel_x,accel_y,accel_z
41.353678,114.855485,95.712904,-9494.720077
41.354305,76.570323,114.855485,-9418.149754
41.354932,153.140646,133.998066,-9399.007173
41.355558,76.570323,172.283227,-9456.434915
41.356185,38.285162,114.855485,-9418.149754
41.356812,95.712904,191.425808,-9360.722011
41.357438,76.570323,172.283227,-9360.722011
41.358065,76.570323,114.855485,-9418.149754
41.358692,133.998066,210.568389,-9494.720077
41.359318,76.570323,153.140646,-9360.722011
41.359945,133.998066,114.855485,-9418.149754
41.360571,133.998066,114.855485,-9494.720077
41.361198,38.285162,114.855485,-9418.149754
41.361825,133.998066,172.283227,-9418.149754
41.362451,38.285162,114.855485,-9456.434915
41.363078,153.140646,114.855485,-9418.149754
41.363705,114.855485,95.712904,-9399.007173
41.364331,76.570323,172.283227,-9418.149754
41.364958,95.712904,153.140646,-9341.579430
41.365585,95.712904,114.855485,-9418.149754
41.366211,95.712904,114.855485,-9475.577496
41.366838,133.998066,153.140646,-9418.149754
41.367465,76.570323,114.855485,-9418.149754
41.368091,76.570323,172.283227,-9418.149754
41.368718,95.712904,95.712904,-9399.007173
41.369345,76.570323,114.855485,-9418.149754
41.369971,95.712904,95.712904,-9399.007173
41.370598,95.712904,114.855485,-9418.149754
41.371225,133.998066,153.140646,-9399.007173
41.371851,114.855485,133.998066,-9341.579430
41.372478,95.712904,191.425808,-9360.722011
41.373104,76.570323,172.283227,-9418.149754
41.373731,76.570323,114.855485,-9418.149754
41.374358,95.712904,95.712904,-9475.577496
41.374984,76.570323,76.570323,-9399.007173
41.375611,133.998066,114.855485,-9475.577496
41.376238,133.998066,114.855485,-9418.149754
41.376864,114.855485,95.712904,-9399.007173
41.377491,153.140646,133.998066,-9399.007173
41.378118,133.998066,114.855485,-9418.149754
41.378744,210.568389,133.998066,-9437.292334
41.379371,172.283227,153.140646,-9379.864592
41.379998,76.570323,114.855485,-9456.434915
41.380624,114.855485,95.712904,-9437.292334
41.381251,133.998066,114.855485,-9456.434915
41.381878,76.570323,153.140646,-9456.434915
41.382504,133.998066,172.283227,-9418.149754
41.383131,133.998066,133.998066,-9379.864592
41.383757,114.855485,172.283227,-9360.722011
41.384384,133.998066,114.855485,-9418.149754
41.385011,95.712904,95.712904,-9399.007173
41.385637,133.998066,172.283227,-9475.577496
41.386264,153.140646,133.998066,-9456.434915
41.386891,76.570323,114.855485,-9418.149754
41.387517,153.140646,153.140646,-9437.292334
41.388144,133.998066,114.855485,-9418.149754
41.388771,133.998066,133.998066,-9456.434915
41.389397,76.570323,153.140646,-9418.149754
41.390024,133.998066,114.855485,-9494.720077
41.390651,153.140646,172.283227,-9494.720077
41.391277,133.998066,153.140646,-9456.434915
41.391904,133.998066,114.855485,-9475.577496
41.392531,133.998066,114.855485,-9418.149754
41.393157,38.285162,114.855485,-9456.434915
41.393784,0.000000,76.570323,-9456.434915
41.394411,76.570323,114.855485,-9418.149754
41.395037,76.570323,172.283227,-9456.434915
41.395664,76.570323,114.855485,-9418.149754
41.396290,114.855485,95.712904,-9399.007173
41.396917,153.140646,133.998066,-9399.007173
41.397544,76.570323,114.855485,-9418.149754
41.398170,76.570323,114.855485,-9456.434915
41.398797,38.285162,114.855485,-9437.292334
41.399424,114.855485,153.140646,-9418.149754
41.400050,153.140646,133.998066,-9456.434915
41.400677,95.712904,133.998066,-9360.722011
41.401304,38.285162,95.712904,-9456.434915
41.401930,76.570323,114.855485,-9418.149754
41.402557,57.427742,191.425808,-9360.722011
41.403184,95.712904,114.855485,-9437.292334
41.403810,133.998066,114.855485,-9437.292334
41.404437,133.998066,133.998066,-9399.007173
41.405064,153.140646,153.140646,-9399.007173
41.405690,38.285162,114.855485,-9418.149754
41.406317,76.570323,114.855485,-9418.149754
41.406943,133.998066,172.283227,-9437.292334
41.407570,133.998066,210.568389,-9437.292334
41.408198,153.140646,172.283227,-9437.292334
41.408825,76.570323,114.855485,-9418.149754
41.409453,133.998066,114.855485,-9456.434915
41.410081,114.855485,114.855485,-9379.864592
41.410708,38.285162,114.855485,-9418.149754
41.411336,76.570323,114.855485,-9418.149754
41.411964,95.712904,114.855485,-9456.434915
41.412591,95.712904,172.283227,-9475.577496
41.413219,38.285162,114.855485,-9437.292334
41.413847,133.998066,114.855485,-9418.149754
41.414474,76.570323,114.855485,-9418.149754
41.415102,76.570323,114.855485,-9418.149754
41.415730,38.285162,172.283227,-9418.149754
41.416357,76.570323,153.140646,-9456.434915
41.416985,133.998066,133.998066,-9456.434915
41.417612,95.712904,95.712904,-9437.292334
41.418240,38.285162,114.855485,-9418.149754
41.418868,114.855485,133.998066,-9360.722011
41.419495,133.998066,133.998066,-9399.007173
41.420123,133.998066,114.855485,-9418.149754
41.420751,133.998066,114.855485,-9418.149754
41.421378,133.998066,114.855485,-9437.292334
41.422006,95.712904,95.712904,-9437.292334
41.422634,114.855485,95.712904,-9399.007173
41.423261,76.570323,210.568389,-9418.149754
41.423889,38.285162,114.855485,-9437.292334
41.424517,133.998066,114.855485,-9475.577496
41.425144,76.570323,114.855485,-9475.577496
41.425772,95.712904,229.710970,-9437.292334
41.426400,19.142581,114.855485,-9418.149754
41.427027,76.570323,114.855485,-9418.149754
41.427655,133.998066,114.855485,-9418.149754
41.428282,38.285162,95.712904,-9456.434915
41.428910,38.285162,114.855485,-9418.149754
41.429538,76.570323,114.855485,-9418.149754
41.430165,38.285162,114.855485,-9437.292334
41.430793,95.712904,114.855485,-9456.434915
41.431421,76.570323,114.855485,-9437.292334
41.432048,76.570323,114.855485,-9475.577496
41.432676,76.570323,153.140646,-9418.149754
41.433304,76.570323,114.855485,-9475.577496
41.433931,114.855485,95.712904,-9399.007173
41.434559,133.998066,133.998066,-9437.292334
41.435187,133.998066,153.140646,-9418.149754
41.435814,153.140646,191.425808,-9399.007173
41.436442,153.140646,210.568389,-9399.007173
41.437070,38.285162,172.283227,-9437.292334
41.437697,133.998066,114.855485,-9418.149754
41.438325,153.140646,153.140646,-9399.007173
41.438952,95.712904,114.855485,-9475.577496
41.439580,95.712904,153.140646,-9418.149754
41.440208,76.570323,114.855485,-9475.577496
41.440835,76.570323,172.283227,-9475.577496
41.441463,133.998066,153.140646,-9494.720077
41.442091,133.998066,114.855485,-9418.149754
41.442718,133.998066,153.140646,-9437.292334
41.443346,95.712904,114.855485,-9418.149754
41.443974,57.427742,133.998066,-9360.722011
41.444601,114.855485,95.712904,-9399.007173
41.445229,133.998066,114.855485,-9418.149754
41.445857,114.855485,95.712904,-9456.434915
41.446484,133.998066,153.140646,-9399.007173
41.447112,114.855485,114.855485,-9379.864592
41.447739,76.570323,114.855485,-9418.149754
41.448367,76.570323,95.712904,-9437.292334
41.448995,38.285162,153.140646,-9418.149754
41.449622,153.140646,191.425808,-9456.434915
41.450250,133.998066,114.855485,-9475.577496
41.450878,133.998066,133.998066,-9399.007173
41.451505,95.712904,153.140646,-9437.292334
41.452133,114.855485,76.570323,-9475.577496
41.452761,76.570323,153.140646,-9418.149754
41.453388,19.142581,172.283227,-9418.149754
41.454016,95.712904,114.855485,-9399.007173
41.454644,38.285162,114.855485,-9456.434915
41.455271,95.712904,114.855485,-9456.434915
41.455899,114.855485,76.570323,-9418.149754
41.456527,133.998066,114.855485,-9494.720077
41.457154,76.570323,210.568389,-9418.149754
41.457782,133.998066,210.568389,-9418.149754
41.458409,38.285162,153.140646,-9456.434915
41.459037,172.283227,191.425808,-9379.864592
41.459665,76.570323,114.855485,-9494.720077
41.460292,95.712904,95.712904,-9399.007173
41.460920,133.998066,114.855485,-9418.149754
41.461548,210.568389,133.998066,-9399.007173
41.462175,76.570323,114.855485,-9437.292334
41.462803,76.570323,153.140646,-9418.149754
41.463431,76.570323,114.855485,-9418.149754
41.464058,153.140646,133.998066,-9399.007173
41.464686,133.998066,114.855485,-9437.292334
41.465314,114.855485,95.712904,-9399.007173
41.465941,153.140646,114.855485,-9418.149754
41.466569,153.140646,133.998066,-9399.007173
41.467197,114.855485,95.712904,-9494.720077
41.467824,133.998066,114.855485,-9418.149754
41.468452,76.570323,114.855485,-9418.149754
41.469079,133.998066,172.283227,-9456.434915
41.469707,95.712904,95.712904,-9399.007173
41.470335,172.283227,76.570323,-9437.292334
41.470962,133.998066,153.140646,-9475.577496
41.471590,76.570323,172.283227,-9456.434915
41.472218,133.998066,114.855485,-9418.149754
41.472845,133.998066,153.140646,-9456.434915
41.473473,38.285162,153.140646,-9437.292334
41.474101,38.285162,153.140646,-9418.149754
41.474728,133.998066,114.855485,-9437.292334
41.475356,114.855485,133.998066,-9341.579430
41.475984,133.998066,114.855485,-9418.149754
41.476611,19.142581,153.140646,-9418.149754
41.477239,57.427742,95.712904,-9399.007173
41.477867,76.570323,114.855485,-9418.149754
41.478494,210.568389,133.998066,-9399.007173
41.479122,95.712904,114.855485,-9437.292334
41.479749,133.998066,114.855485,-9437.292334
41.480377,95.712904,95.712904,-9399.007173
41.481005,76.570323,114.855485,-9418.149754
41.481632,95.712904,114.855485,-9418.149754
41.482260,153.140646,153.140646,-9456.434915
41.482888,133.998066,114.855485,-9418.149754
41.483515,95.712904,114.855485,-9418.149754
41.484143,76.570323,172.283227,-9456.434915
41.484771,210.568389,172.283227,-9437.292334
41.485398,133.998066,114.855485,-9418.149754
41.486026,133.998066,114.855485,-9475.577496
41.486654,133.998066,210.568389,-9456.434915
41.487281,153.140646,133.998066,-9399.007173
41.487909,133.998066,114.855485,-9418.149754
41.488537,76.570323,114.855485,-9456.434915
41.489164,95.712904,133.998066,-9360.722011
41.489792,133.998066,172.283227,-9494.720077
41.490419,133.998066,229.710970,-9418.149754
41.491047,76.570323,114.855485,-9456.434915
41.491675,133.998066,172.283227,-9437.292334
41.492302,95.712904,114.855485,-9494.720077
41.492930,95.712904,95.712904,-9494.720077
41.493558,153.140646,172.283227,-9399.007173
41.494185,114.855485,114.855485,-9399.007173
41.494813,133.998066,172.283227,-9418.149754
41.495441,153.140646,133.998066,-9399.007173
41.496068,76.570323,153.140646,-9437.292334
41.496696,95.712904,114.855485,-9418.149754
41.497324,133.998066,172.283227,-9456.434915
41.497951,133.998066,172.283227,-9494.720077
41.498579,133.998066,172.283227,-9418.149754
41.499206,133.998066,114.855485,-9494.720077
41.499834,114.855485,95.712904,-9399.007173
41.500462,114.855485,210.568389,-9360.722011
41.501089,38.285162,114.855485,-9437.292334
41.501717,114.855485,172.283227,-9360.722011
41.502345,76.570323,114.855485,-9437.292334
41.502972,38.285162,172.283227,-9418.149754
41.503600,76.570323,114.855485,-9418.149754
41.504228,133.998066,153.140646,-9418.149754
41.504855,95.712904,133.998066,-9360.722011
41.505483,114.855485,95.712904,-9399.007173
41.506111,76.570323,172.283227,-9418.149754
41.506738,95.712904,172.283227,-9437.292334
41.507366,95.712904,114.855485,-9418.149754
41.507994,76.570323,172.283227,-9437.292334
41.508621,38.285162,153.140646,-9437.292334
41.509248,133.998066,114.855485,-9475.577496
41.509876,95.712904,95.712904,-9437.292334
41.510503,133.998066,114.855485,-9437.292334
41.511130,76.570323,114.855485,-9418.149754
41.511758,210.568389,191.425808,-9437.292334
41.512385,76.570323,210.568389,-9456.434915
41.513012,76.570323,114.855485,-9418.149754
41.513640,133.998066,248.853550,-9399.007173
41.514267,133.998066,153.140646,-9418.149754
41.514895,76.570323,172.283227,-9418.149754
41.515522,76.570323,114.855485,-9418.149754
41.516149,76.570323,114.855485,-9418.149754
41.516777,133.998066,114.855485,-9475.577496
41.517404,153.140646,191.425808,-9399.007173
41.518031,153.140646,133.998066,-9456.434915
41.518659,133.998066,114.855485,-9418.149754
41.519286,133.998066,114.855485,-9418.149754
41.519913,133.998066,114.855485,-9418.149754
41.520541,114.855485,95.712904,-9399.007173
41.521168,76.570323,114.855485,-9456.434915
41.521795,133.998066,114.855485,-9418.149754
41.522423,133.998066,172.283227,-9418.149754
41.523050,38.285162,114.855485,-9475.577496
41.523678,57.427742,114.855485,-9418.149754
41.524305,114.855485,133.998066,-9360.722011
41.524932,114.855485,95.712904,-9456.434915
41.525560,76.570323,114.855485,-9418.149754
41.526187,133.998066,172.283227,-9399.007173
41.526814,133.998066,114.855485,-9437.292334
41.527442,19.142581,210.568389,-9456.434915
41.528069,38.285162,114.855485,-9418.149754
41.528696,133.998066,172.283227,-9437.292334
41.529324,133.998066,114.855485,-9418.149754
41.529951,133.998066,114.855485,-9437.292334
41.530578,95.712904,114.855485,-9418.149754
41.531206,172.283227,76.570323,-9456.434915
41.531833,153.140646,133.998066,-9456.434915
41.532461,76.570323,114.855485,-9418.149754
41.533088,38.285162,114.855485,-9418.149754
41.533715,38.285162,114.855485,-9456.434915
41.534343,95.712904,172.283227,-9437.292334
41.534970,76.570323,114.855485,-9418.149754
41.535597,76.570323,114.855485,-9437.292334
41.536225,133.998066,114.855485,-9456.434915
41.536852,38.285162,153.140646,-9418.149754
41.537479,133.998066,153.140646,-9418.149754
41.538107,133.998066,210.568389,-9418.149754
41.538734,76.570323,172.283227,-9475.577496
41.539361,133.998066,114.855485,-9418.149754
41.539989,95.712904,133.998066,-9360.722011
41.540616,38.285162,114.855485,-9475.577496
41.541244,95.712904,153.140646,-9418.149754
41.541871,133.998066,153.140646,-9418.149754
41.542498,114.855485,133.998066,-9418.149754
41.543126,38.285162,114.855485,-9418.149754
41.543753,38.285162,114.855485,-9437.292334
41.544380,76.570323,95.712904,-9456.434915
41.545008,133.998066,114.855485,-9418.149754
41.545635,133.998066,114.855485,-9418.149754
41.546262,191.425808,133.998066,-9456.434915
41.546890,76.570323,114.855485,-9418.149754
41.547517,76.570323,172.283227,-9418.149754
41.548144,76.570323,172.283227,-9437.292334
41.548772,38.285162,114.855485,-9437.292334
41.549399,76.570323,114.855485,-9456.434915
41.550027,95.712904,153.140646,-9418.149754
41.550654,76.570323,153.140646,-9418.149754
41.551281,57.427742,95.712904,-9456.434915
41.551909,133.998066,114.855485,-9437.292334
41.552536,133.998066,114.855485,-9456.434915
41.553163,38.285162,153.140646,-9418.149754
41.553791,38.285162,114.855485,-9437.292334
41.554418,76.570323,114.855485,-9418.149754
41.555045,76.570323,172.283227,-9475.577496
41.555673,38.285162,114.855485,-9437.292334
41.556300,76.570323,153.140646,-9418.149754
41.556927,153.140646,133.998066,-9399.007173
41.557555,76.570323,114.855485,-9456.434915
41.558182,38.285162,114.855485,-9456.434915
41.558810,76.570323,114.855485,-9437.292334
41.559437,76.570323,114.855485,-9456.434915
41.560064,38.285162,191.425808,-9418.149754
41.560692,114.855485,133.998066,-9360.722011
41.561319,133.998066,114.855485,-9418.149754
41.561946,95.712904,114.855485,-9418.149754
41.562574,133.998066,114.855485,-9456.434915
41.563201,57.427742,133.998066,-9360.722011
41.563828,57.427742,153.140646,-9418.149754
41.564456,76.570323,114.855485,-9418.149754
41.565083,133.998066,191.425808,-9399.007173
41.565710,133.998066,114.855485,-9418.149754
41.566338,76.570323,172.283227,-9418.149754
41.566965,95.712904,114.855485,-9418.149754
41.567593,133.998066,114.855485,-9475.577496
41.568220,133.998066,114.855485,-9418.149754
41.568847,133.998066,114.855485,-9418.149754
41.569475,133.998066,210.568389,-9360.722011
41.570102,95.712904,114.855485,-9418.149754
41.570729,57.427742,95.712904,-9494.720077
41.571357,133.998066,133.998066,-9399.007173
41.571984,172.283227,172.283227,-9379.864592
41.572611,76.570323,172.283227,-9418.149754
41.573239,95.712904,114.855485,-9399.007173
41.573866,76.570323,210.568389,-9418.149754
41.574494,76.570323,114.855485,-9418.149754
41.575121,133.998066,114.855485,-9437.292334
41.575748,153.140646,133.998066,-9456.434915
41.576376,133.998066,172.283227,-9418.149754
41.577003,76.570323,114.855485,-9437.292334
41.577630,38.285162,153.140646,-9418.149754
41.578258,133.998066,114.855485,-9418.149754
41.578885,76.570323,172.283227,-9475.577496
41.579512,38.285162,114.855485,-9418.149754
41.580140,133.998066,114.855485,-9418.149754
41.580767,38.285162,114.855485,-9437.292334
41.581394,95.712904,191.425808,-9418.149754
41.582022,76.570323,114.855485,-9418.149754
41.582649,76.570323,172.283227,-9475.577496
41.583277,76.570323,114.855485,-9475.577496
41.583904,38.285162,153.140646,-9418.149754
41.584531,76.570323,172.283227,-9418.149754
41.585159,133.998066,210.568389,-9418.149754
41.585786,133.998066,172.283227,-9418.149754
41.586413,95.712904,114.855485,-9437.292334
41.587041,133.998066,114.855485,-9475.577496
41.587668,133.998066,114.855485,-9437.292334
41.588295,114.855485,76.570323,-9533.005238
41.588923,133.998066,114.855485,-9418.149754
41.589550,133.998066,172.283227,-9437.292334
41.590177,95.712904,114.855485,-9418.149754
41.590805,114.855485,133.998066,-9418.149754
41.591432,38.285162,114.855485,-9418.149754
41.592060,38.285162,114.855485,-9456.434915
41.592687,76.570323,153.140646,-9418.149754
41.593314,76.570323,153.140646,-9418.149754
41.593942,57.427742,95.712904,-9399.007173
41.594569,38.285162,172.283227,-9437.292334
41.595196,95.712904,133.998066,-9360.722011
41.595824,76.570323,114.855485,-9418.149754
41.596451,95.712904,133.998066,-9360.722011
41.597078,76.570323,114.855485,-9418.149754
41.597706,153.140646,153.140646,-9399.007173
41.598333,76.570323,172.283227,-9418.149754
41.598960,76.570323,172.283227,-9456.434915
41.599588,133.998066,210.568389,-9456.434915
41.600215,153.140646,133.998066,-9399.007173
41.600843,114.855485,172.283227,-9475.577496
41.601470,133.998066,114.855485,-9437.292334
41.602097,57.427742,133.998066,-9360.722011
41.602725,95.712904,114.855485,-9418.149754
41.603352,133.998066,153.140646,-9437.292334
41.603979,76.570323,172.283227,-9418.149754
41.604607,76.570323,114.855485,-9437.292334
41.605234,76.570323,210.568389,-9418.149754
41.605861,153.140646,133.998066,-9437.292334
41.606489,76.570323,172.283227,-9418.149754
41.607116,38.285162,114.855485,-9418.149754
41.607743,95.712904,210.568389,-9418.149754
41.608371,95.712904,248.853550,-9360.722011
41.608998,76.570323,172.283227,-9456.434915
41.609625,76.570323,172.283227,-9437.292334
41.610253,153.140646,172.283227,-9456.434915
41.610880,76.570323,114.855485,-9475.577496
41.611507,95.712904,114.855485,-9437.292334
41.612134,76.570323,114.855485,-9418.149754
41.612762,133.998066,133.998066,-9399.007173
41.613389,114.855485,153.140646,-9360.722011
41.614016,95.712904,114.855485,-9456.434915
41.614643,114.855485,95.712904,-9456.434915
41.615271,76.570323,153.140646,-9437.292334
41.615898,153.140646,210.568389,-9399.007173
41.616525,133.998066,153.140646,-9418.149754
41.617152,95.712904,191.425808,-9360.722011
41.617780,153.140646,133.998066,-9399.007173
41.618407,133.998066,172.283227,-9437.292334
41.619034,95.712904,153.140646,-9322.436850
41.619661,76.570323,172.283227,-9418.149754
41.620289,76.570323,114.855485,-9418.149754
41.620916,76.570323,210.568389,-9360.722011
41.621543,38.285162,153.140646,-9418.149754
41.622170,153.140646,133.998066,-9456.434915
41.622798,114.855485,95.712904,-9399.007173
41.623425,133.998066,114.855485,-9456.434915
41.624052,114.855485,95.712904,-9399.007173
41.624680,38.285162,114.855485,-9418.149754
41.625307,38.285162,76.570323,-9379.864592
41.625934,38.285162,172.283227,-9418.149754
41.626561,133.998066,114.855485,-9418.149754
41.627189,95.712904,95.712904,-9399.007173
41.627816,95.712904,248.853550,-9360.722011
41.628443,76.570323,114.855485,-9418.149754
41.629070,133.998066,114.855485,-9437.292334
41.629698,76.570323,191.425808,-9494.720077
41.630325,38.285162,114.855485,-9418.149754
41.630952,114.855485,95.712904,-9399.007173
41.631579,38.285162,114.855485,-9418.149754
41.632207,76.570323,114.855485,-9418.149754
41.632834,38.285162,114.855485,-9456.434915
41.633461,76.570323,153.140646,-9418.149754
41.634088,95.712904,114.855485,-9418.149754
41.634716,38.285162,114.855485,-9418.149754
41.635343,95.712904,210.568389,-9418.149754
41.635970,133.998066,114.855485,-9437.292334
41.636597,95.712904,172.283227,-9418.149754
41.637225,133.998066,114.855485,-9456.434915
41.637852,38.285162,114.855485,-9456.434915
41.638479,76.570323,114.855485,-9399.007173
41.639106,153.140646,133.998066,-9399.007173
41.639734,153.140646,114.855485,-9418.149754
41.640361,76.570323,172.283227,-9475.577496
41.640988,76.570323,114.855485,-9437.292334
41.641615,38.285162,172.283227,-9437.292334
41.642243,76.570323,114.855485,-9456.434915
41.642870,76.570323,153.140646,-9456.434915
41.643497,133.998066,114.855485,-9418.149754
41.644124,133.998066,172.283227,-9437.292334
41.644752,76.570323,114.855485,-9437.292334
41.645379,95.712904,95.712904,-9399.007173
41.646006,76.570323,114.855485,-9456.434915
41.646634,153.140646,153.140646,-9418.149754
41.647261,38.285162,172.283227,-9418.149754
41.647888,95.712904,133.998066,-9360.722011
41.648515,153.140646,133.998066,-9399.007173
41.649143,57.427742,133.998066,-9360.722011
41.649770,95.712904,172.283227,-9437.292334
41.650397,76.570323,172.283227,-9418.149754
41.651024,38.285162,172.283227,-9418.149754
41.651652,57.427742,114.855485,-9437.292334
41.652279,38.285162,114.855485,-9418.149754
41.652906,95.712904,114.855485,-9418.149754
41.653533,133.998066,114.855485,-9418.149754
41.654161,114.855485,95.712904,-9437.292334
41.654788,153.140646,133.998066,-9456.434915
41.655415,76.570323,114.855485,-9456.434915
41.656042,95.712904,133.998066,-9360.722011
41.656670,133.998066,114.855485,-9533.005238
41.657297,76.570323,114.855485,-9437.292334
41.657924,76.570323,172.283227,-9418.149754
41.658551,76.570323,114.855485,-9418.149754
41.659179,114.855485,95.712904,-9399.007173
41.659806,76.570323,114.855485,-9418.149754
41.660433,76.570323,114.855485,-9456.434915
41.661060,114.855485,95.712904,-9456.434915
41.661688,38.285162,114.855485,-9418.149754
41.662315,38.285162,114.855485,-9456.434915
41.662942,133.998066,114.855485,-9418.149754
41.663569,114.855485,95.712904,-9399.007173
41.664197,133.998066,114.855485,-9418.149754
41.664824,172.283227,114.855485,-9399.007173
41.665451,133.998066,114.855485,-9418.149754
41.666078,133.998066,114.855485,-9475.577496
41.666706,133.998066,191.425808,-9379.864592
41.667333,133.998066,114.855485,-9418.149754
41.667960,95.712904,95.712904,-9437.292334
41.668588,76.570323,114.855485,-9437.292334
41.669215,114.855485,95.712904,-9399.007173
41.669842,114.855485,114.855485,-9399.007173
41.670469,76.570323,114.855485,-9418.149754
41.671097,76.570323,172.283227,-9437.292334
41.671724,133.998066,114.855485,-9475.577496
41.672351,153.140646,133.998066,-9456.434915
41.672978,133.998066,153.140646,-9475.577496
41.673606,76.570323,114.855485,-9475.577496
41.674233,95.712904,95.712904,-9437.292334
41.674860,76.570323,114.855485,-9456.434915
41.675487,76.570323,114.855485,-9437.292334
41.676115,95.712904,114.855485,-9418.149754
41.676742,76.570323,229.710970,-9437.292334
41.677369,114.855485,229.710970,-9475.577496
41.677996,133.998066,229.710970,-9437.292334
41.678624,133.998066,114.855485,-9456.434915
41.679251,153.140646,133.998066,-9399.007173
41.679878,76.570323,153.140646,-9418.149754
41.680505,153.140646,114.855485,-9418.149754
41.681133,95.712904,95.712904,-9399.007173
41.681760,172.283227,172.283227,-9379.864592
41.682387,95.712904,95.712904,-9399.007173
41.683014,76.570323,172.283227,-9418.149754
41.683642,133.998066,210.568389,-9418.149754
41.684269,76.570323,172.283227,-9456.434915
41.684896,133.998066,210.568389,-9418.149754
41.685523,95.712904,95.712904,-9399.007173
41.686151,133.998066,114.855485,-9418.149754
41.686778,38.285162,114.855485,-9456.434915
41.687405,76.570323,114.855485,-9418.149754
41.688032,114.855485,95.712904,-9399.007173
41.688660,95.712904,95.712904,-9437.292334
41.689287,38.285162,153.140646,-9418.149754
41.689914,76.570323,114.855485,-9437.292334
41.690542,76.570323,114.855485,-9437.292334
41.691169,133.998066,114.855485,-9418.149754
41.691796,133.998066,114.855485,-9456.434915
41.692423,95.712904,133.998066,-9418.149754
41.693051,76.570323,210.568389,-9437.292334
41.693678,76.570323,114.855485,-9418.149754
41.694305,95.712904,95.712904,-9399.007173
41.694932,76.570323,114.855485,-9437.292334
41.695560,38.285162,153.140646,-9418.149754
41.696187,76.570323,114.855485,-9418.149754
41.696814,76.570323,153.140646,-9418.149754
41.697441,153.140646,133.998066,-9399.007173
41.698069,76.570323,114.855485,-9418.149754
41.698696,76.570323,114.855485,-9418.149754
41.699323,95.712904,95.712904,-9456.434915
41.699950,76.570323,114.855485,-9418.149754
41.700578,76.570323,172.283227,-9456.434915
41.701205,133.998066,114.855485,-9418.149754
41.701832,95.712904,95.712904,-9456.434915
41.702459,95.712904,95.712904,-9456.434915
41.703087,76.570323,114.855485,-9437.292334
41.703714,76.570323,114.855485,-9475.577496
41.704341,133.998066,153.140646,-9437.292334
41.704968,133.998066,133.998066,-9456.434915
41.705596,38.285162,153.140646,-9418.149754
41.706223,133.998066,172.283227,-9456.434915
41.706850,95.712904,95.712904,-9475.577496
41.707477,76.570323,114.855485,-9418.149754
41.708105,153.140646,153.140646,-9399.007173
41.708732,76.570323,153.140646,-9418.149754
41.709360,38.285162,114.855485,-9418.149754
41.709988,114.855485,133.998066,-9360.722011
41.710616,133.998066,153.140646,-9399.007173
41.711244,133.998066,76.570323,-9379.864592
41.711872,95.712904,133.998066,-9360.722011
41.712500,133.998066,114.855485,-9418.149754
41.713128,153.140646,153.140646,-9437.292334
41.713755,76.570323,114.855485,-9418.149754
41.714383,76.570323,210.568389,-9437.292334
41.715011,133.998066,210.568389,-9418.149754
41.715639,133.998066,210.568389,-9418.149754
41.716267,114.855485,133.998066,-9360.722011
41.716895,38.285162,114.855485,-9437.292334
41.717523,76.570323,172.283227,-9475.577496
41.718151,76.570323,153.140646,-9437.292334
41.718779,38.285162,114.855485,-9456.434915
41.719407,76.570323,114.855485,-9418.149754
41.720035,153.140646,248.853550,-9399.007173
41.720663,133.998066,114.855485,-9418.149754
41.721291,133.998066,114.855485,-9456.434915
41.721919,114.855485,114.855485,-9437.292334
41.722547,133.998066,172.283227,-9456.434915
41.723175,76.570323,114.855485,-9437.292334
41.723803,133.998066,210.568389,-9437.292334
41.724430,76.570323,210.568389,-9437.292334
41.725058,76.570323,153.140646,-9437.292334
41.725686,95.712904,114.855485,-9399.007173
41.726314,76.570323,114.855485,-9418.149754
41.726942,76.570323,114.855485,-9418.149754
41.727570,95.712904,95.712904,-9399.007173
41.728198,76.570323,114.855485,-9418.149754
41.728826,76.570323,95.712904,-9418.149754
41.729454,133.998066,114.855485,-9437.292334
41.730082,153.140646,133.998066,-9437.292334
41.730710,114.855485,95.712904,-9437.292334
41.731338,133.998066,153.140646,-9437.292334
41.731966,76.570323,172.283227,-9437.292334
41.732594,76.570323,114.855485,-9418.149754
41.733222,76.570323,114.855485,-9418.149754
41.733850,57.427742,153.140646,-9437.292334
41.734478,133.998066,114.855485,-9456.434915
41.735105,76.570323,114.855485,-9456.434915
41.735733,57.427742,95.712904,-9437.292334
41.736361,38.285162,210.568389,-9418.149754
41.736989,76.570323,172.283227,-9418.149754
41.737617,76.570323,114.855485,-9456.434915
41.738245,76.570323,210.568389,-9437.292334
41.738873,133.998066,114.855485,-9418.149754
41.739501,38.285162,210.568389,-9418.149754
41.740129,133.998066,172.283227,-9360.722011
41.740757,133.998066,114.855485,-9418.149754
41.741385,95.712904,133.998066,-9360.722011
41.742013,76.570323,114.855485,-9418.149754
41.742641,133.998066,172.283227,-9456.434915
41.743269,95.712904,95.712904,-9399.007173
41.743897,133.998066,210.568389,-9418.149754
41.744525,76.570323,191.425808,-9418.149754
41.745153,133.998066,153.140646,-9418.149754
41.745780,133.998066,133.998066,-9399.007173
41.746408,114.855485,114.855485,-9456.434915
41.747036,133.998066,114.855485,-9475.577496
41.747664,57.427742,95.712904,-9437.292334
41.748292,76.570323,114.855485,-9418.149754
41.748920,76.570323,114.855485,-9418.149754
41.749548,76.570323,153.140646,-9418.149754
41.750176,153.140646,172.283227,-9456.434915
41.750804,114.855485,133.998066,-9418.149754
41.751432,76.570323,114.855485,-9475.577496
41.752060,133.998066,114.855485,-9475.577496
41.752688,153.140646,191.425808,-9399.007173
41.753316,38.285162,114.855485,-9418.149754
41.753944,19.142581,133.998066,-9399.007173
41.754572,114.855485,133.998066,-9360.722011
41.755200,38.285162,114.855485,-9494.720077
41.755827,133.998066,133.998066,-9399.007173
41.756455,133.998066,114.855485,-9418.149754
41.757083,76.570323,114.855485,-9418.149754
41.757711,38.285162,153.140646,-9475.577496
41.758339,133.998066,153.140646,-9418.149754
41.758967,133.998066,114.855485,-9418.149754
41.759595,76.570323,95.712904,-9399.007173
41.760223,76.570323,114.855485,-9418.149754
41.760851,38.285162,172.283227,-9418.149754
41.761479,133.998066,114.855485,-9418.149754
41.762107,76.570323,114.855485,-9418.149754
41.762735,76.570323,114.855485,-9418.149754
41.763363,38.285162,114.855485,-9418.149754
41.763991,38.285162,172.283227,-9418.149754
41.764619,133.998066,114.855485,-9418.149754
41.765247,95.712904,172.283227,-9456.434915
41.765875,76.570323,114.855485,-9418.149754
41.766502,95.712904,95.712904,-9399.007173
41.767130,95.712904,95.712904,-9437.292334
41.767758,38.285162,114.855485,-9418.149754
41.768386,76.570323,172.283227,-9418.149754
41.769014,76.570323,114.855485,-9418.149754
41.769642,76.570323,172.283227,-9418.149754
41.770270,76.570323,172.283227,-9437.292334
41.770898,133.998066,172.283227,-9418.149754
41.771526,153.140646,248.853550,-9399.007173
41.772154,133.998066,210.568389,-9418.149754
41.772782,76.570323,114.855485,-9475.577496
41.773410,95.712904,95.712904,-9399.007173
41.774038,38.285162,114.855485,-9437.292334
41.774666,153.140646,133.998066,-9475.577496
41.775294,76.570323,114.855485,-9418.149754
41.775922,133.998066,114.855485,-9456.434915
41.776550,133.998066,95.712904,-9418.149754
41.777177,133.998066,114.855485,-9437.292334
41.777805,76.570323,114.855485,-9494.720077
41.778433,38.285162,76.570323,-9379.864592
41.779061,76.570323,114.855485,-9418.149754
41.779689,114.855485,133.998066,-9418.149754
41.780317,95.712904,133.998066,-9437.292334
41.780945,133.998066,114.855485,-9418.149754
41.781573,114.855485,95.712904,-9437.292334
41.782201,95.712904,133.998066,-9360.722011
41.782829,76.570323,114.855485,-9437.292334
41.783457,133.998066,191.425808,-9456.434915
41.784085,153.140646,172.283227,-9456.434915
41.784713,133.998066,172.283227,-9456.434915
41.785341,76.570323,172.283227,-9418.149754
41.785969,133.998066,153.140646,-9399.007173
41.786597,133.998066,114.855485,-9418.149754
41.787225,133.998066,114.855485,-9456.434915
41.787852,133.998066,114.855485,-9418.149754
41.788480,133.998066,153.140646,-9437.292334
41.789108,57.427742,210.568389,-9418.149754
41.789736,76.570323,172.283227,-9418.149754
41.790364,76.570323,153.140646,-9418.149754
41.790992,133.998066,191.425808,-9399.007173
41.791620,95.712904,114.855485,-9418.149754
41.792248,114.855485,153.140646,-9360.722011
41.792876,114.855485,172.283227,-9475.577496
41.793504,76.570323,172.283227,-9418.149754
41.794132,95.712904,114.855485,-9418.149754
41.794760,76.570323,172.283227,-9533.005238
41.795388,76.570323,153.140646,-9475.577496
41.796016,76.570323,172.283227,-9437.292334
41.796644,76.570323,114.855485,-9418.149754
41.797272,76.570323,133.998066,-9360.722011
41.797900,76.570323,172.283227,-9456.434915
41.798527,133.998066,153.140646,-9456.434915
41.799155,153.140646,133.998066,-9475.577496
41.799783,153.140646,172.283227,-9437.292334
41.800411,76.570323,153.140646,-9418.149754
41.801039,153.140646,133.998066,-9399.007173
41.801667,153.140646,76.570323,-9456.434915
41.802295,114.855485,114.855485,-9399.007173
41.802923,133.998066,172.283227,-9399.007173
41.803551,76.570323,114.855485,-9437.292334
41.804179,38.285162,114.855485,-9418.149754
41.804807,38.285162,114.855485,-9360.722011
41.805435,76.570323,229.710970,-9418.149754
41.806063,114.855485,133.998066,-9418.149754
41.806691,95.712904,114.855485,-9456.434915
41.807319,76.570323,172.283227,-9437.292334
41.807947,76.570323,76.570323,-9379.864592
41.808574,153.140646,114.855485,-9456.434915
41.809202,76.570323,153.140646,-9437.292334
41.809830,153.140646,153.140646,-9399.007173
41.810458,133.998066,210.568389,-9475.577496
41.811085,133.998066,114.855485,-9418.149754
41.811713,95.712904,153.140646,-9552.147819
41.812341,133.998066,114.855485,-9456.434915
41.812968,38.285162,114.855485,-9418.149754
41.813596,76.570323,172.283227,-9475.577496
41.814224,133.998066,133.998066,-9437.292334
41.814851,133.998066,153.140646,-9418.149754
41.815479,133.998066,133.998066,-9399.007173
41.816107,114.855485,133.998066,-9360.722011
41.816734,76.570323,114.855485,-9418.149754
41.817362,133.998066,114.855485,-9418.149754
41.817990,95.712904,95.712904,-9456.434915
41.818617,95.712904,114.855485,-9456.434915
41.819245,76.570323,172.283227,-9418.149754
41.819873,133.998066,114.855485,-9437.292334
41.820500,76.570323,114.855485,-9437.292334
41.821128,76.570323,95.712904,-9399.007173
41.821756,76.570323,172.283227,-9418.149754
41.822383,76.570323,114.855485,-9437.292334
41.823011,133.998066,114.855485,-9418.149754
41.823638,76.570323,172.283227,-9418.149754
41.824266,133.998066,153.140646,-9437.292334
41.824894,76.570323,114.855485,-9437.292334
41.825521,76.570323,114.855485,-9418.149754
41.826149,76.570323,153.140646,-9418.149754
41.826777,76.570323,114.855485,-9437.292334
41.827404,95.712904,114.855485,-9418.149754
41.828032,133.998066,153.140646,-9437.292334
41.828660,133.998066,153.140646,-9418.149754
41.829287,95.712904,210.568389,-9456.434915
41.829915,133.998066,153.140646,-9437.292334
41.830543,76.570323,76.570323,-9399.007173
41.831170,95.712904,114.855485,-9456.434915
41.831798,153.140646,133.998066,-9399.007173
41.832426,76.570323,114.855485,-9437.292334
41.833053,133.998066,153.140646,-9418.149754
41.833681,133.998066,114.855485,-9437.292334
41.834309,133.998066,114.855485,-9418.149754
41.834936,114.855485,133.998066,-9360.722011
41.835564,76.570323,153.140646,-9418.149754
41.836192,76.570323,172.283227,-9418.149754
41.836819,76.570323,114.855485,-9437.292334
41.837447,153.140646,153.140646,-9399.007173
41.838075,133.998066,114.855485,-9418.149754
41.838702,38.285162,153.140646,-9437.292334
41.839330,133.998066,133.998066,-9513.862658
41.839958,95.712904,114.855485,-9437.292334
41.840585,133.998066,114.855485,-9475.577496
41.841213,153.140646,114.855485,-9437.292334
41.841840,95.712904,114.855485,-9418.149754
41.842468,133.998066,114.855485,-9437.292334
41.843096,95.712904,95.712904,-9399.007173
41.843723,153.140646,133.998066,-9399.007173
41.844351,76.570323,114.855485,-9418.149754
41.844979,95.712904,153.140646,-9360.722011
41.845606,133.998066,172.283227,-9418.149754
41.846234,76.570323,114.855485,-9418.149754
41.846862,114.855485,114.855485,-9494.720077
41.847489,76.570323,153.140646,-9418.149754
41.848117,76.570323,114.855485,-9418.149754
41.848745,38.285162,191.425808,-9437.292334
41.849372,133.998066,172.283227,-9437.292334
41.850000,133.998066,114.855485,-9418.149754
41.850628,76.570323,114.855485,-9456.434915
41.851255,76.570323,114.855485,-9418.149754
41.851883,38.285162,153.140646,-9418.149754
41.852511,76.570323,114.855485,-9418.149754
41.853138,76.570323,114.855485,-9418.149754
41.853766,153.140646,133.998066,-9399.007173
41.854394,133.998066,210.568389,-9418.149754
41.855021,133.998066,114.855485,-9437.292334
41.855649,95.712904,172.283227,-9341.579430
41.856277,76.570323,114.855485,-9418.149754
41.856904,133.998066,153.140646,-9399.007173
41.857532,38.285162,114.855485,-9418.149754
41.858160,114.855485,76.570323,-9418.149754
41.858787,76.570323,114.855485,-9437.292334
41.859415,95.712904,114.855485,-9494.720077
41.860042,133.998066,172.283227,-9456.434915
41.860670,133.998066,153.140646,-9456.434915
41.861298,76.570323,153.140646,-9418.149754
41.861925,76.570323,210.568389,-9456.434915
41.862553,95.712904,229.710970,-9399.007173
41.863181,153.140646,133.998066,-9399.007173
41.863808,133.998066,172.283227,-9475.577496
41.864436,133.998066,172.283227,-9437.292334
41.865064,38.285162,153.140646,-9418.149754
41.865691,76.570323,114.855485,-9418.149754
41.866319,133.998066,114.855485,-9418.149754
41.866947,153.140646,172.283227,-9513.862658
41.867574,133.998066,114.855485,-9418.149754
41.868202,133.998066,114.855485,-9437.292334
41.868830,38.285162,114.855485,-9418.149754
41.869457,133.998066,114.855485,-9437.292334
41.870085,76.570323,76.570323,-9379.864592
41.870713,76.570323,114.855485,-9418.149754
41.871340,76.570323,153.140646,-9437.292334
41.871968,133.998066,172.283227,-9418.149754
41.872596,95.712904,95.712904,-9418.149754
41.873223,133.998066,114.855485,-9418.149754
41.873851,114.855485,95.712904,-9475.577496
41.874479,76.570323,114.855485,-9456.434915
41.875106,76.570323,114.855485,-9418.149754
41.875734,38.285162,114.855485,-9418.149754
41.876361,133.998066,114.855485,-9418.149754
41.876989,76.570323,153.140646,-9456.434915
41.877617,133.998066,172.283227,-9437.292334
41.878244,76.570323,114.855485,-9418.149754
41.878872,133.998066,210.568389,-9418.149754
41.879500,114.855485,133.998066,-9360.722011
41.880127,153.140646,172.283227,-9399.007173
41.880755,133.998066,114.855485,-9418.149754
41.881383,153.140646,133.998066,-9399.007173
41.882010,133.998066,153.140646,-9418.149754
41.882638,76.570323,172.283227,-9418.149754
41.883266,57.427742,210.568389,-9418.149754
41.883893,76.570323,153.140646,-9418.149754
41.884521,38.285162,114.855485,-9418.149754
41.885149,153.140646,133.998066,-9399.007173
41.885776,76.570323,114.855485,-9418.149754
41.886404,76.570323,114.855485,-9418.149754
41.887032,133.998066,153.140646,-9418.149754
41.887659,133.998066,210.568389,-9456.434915
41.888287,76.570323,114.855485,-9437.292334
41.888915,19.142581,114.855485,-9418.149754
41.889542,95.712904,95.712904,-9494.720077
41.890170,38.285162,114.855485,-9418.149754
41.890798,76.570323,114.855485,-9418.149754
41.891425,38.285162,114.855485,-9418.149754
41.892053,95.712904,95.712904,-9399.007173
41.892681,133.998066,114.855485,-9494.720077
41.893308,133.998066,191.425808,-9456.434915
41.893936,76.570323,153.140646,-9437.292334
41.894563,133.998066,114.855485,-9437.292334
41.895191,76.570323,114.855485,-9418.149754
41.895819,76.570323,114.855485,-9418.149754
41.896446,133.998066,133.998066,-9399.007173
41.897074,114.855485,95.712904,-9399.007173
41.897702,133.998066,114.855485,-9418.149754
41.898329,153.140646,153.140646,-9399.007173
41.898957,133.998066,114.855485,-9456.434915
41.899585,133.998066,153.140646,-9418.149754
41.900212,95.712904,114.855485,-9418.149754
41.900840,76.570323,114.855485,-9437.292334
41.901468,76.570323,153.140646,-9475.577496
41.902095,95.712904,133.998066,-9360.722011
41.902723,133.998066,133.998066,-9456.434915
41.903351,76.570323,114.855485,-9418.149754
41.903978,76.570323,114.855485,-9475.577496
41.904606,133.998066,153.140646,-9418.149754
41.905234,95.712904,95.712904,-9437.292334
41.905861,114.855485,95.712904,-9399.007173
41.906489,114.855485,172.283227,-9360.722011
41.907117,133.998066,210.568389,-9418.149754
41.907744,153.140646,133.998066,-9475.577496
41.908372,38.285162,153.140646,-9418.149754
41.909000,133.998066,153.140646,-9399.007173
41.909627,153.140646,133.998066,-9456.434915
41.910255,95.712904,172.283227,-9360.722011
41.910882,76.570323,153.140646,-9418.149754
41.911510,76.570323,114.855485,-9418.149754
41.912137,153.140646,133.998066,-9456.434915
41.912765,76.570323,114.855485,-9418.149754
41.913392,76.570323,153.140646,-9418.149754
41.914020,95.712904,114.855485,-9456.434915
41.914647,153.140646,133.998066,-9399.007173
41.915275,133.998066,114.855485,-9418.149754
41.915902,76.570323,114.855485,-9418.149754
41.916530,76.570323,153.140646,-9437.292334
41.917157,76.570323,114.855485,-9418.149754
41.917785,133.998066,114.855485,-9456.434915
41.918412,76.570323,114.855485,-9456.434915
41.919040,57.427742,210.568389,-9494.720077
41.919667,38.285162,172.283227,-9437.292334
41.920295,76.570323,153.140646,-9418.149754
41.920922,95.712904,95.712904,-9494.720077
41.921550,76.570323,153.140646,-9418.149754
41.922177,76.570323,114.855485,-9418.149754
41.922804,153.140646,133.998066,-9437.292334
41.923432,172.283227,133.998066,-9418.149754
41.924059,133.998066,133.998066,-9437.292334
41.924687,95.712904,114.855485,-9437.292334
41.925314,38.285162,153.140646,-9418.149754
41.925942,133.998066,114.855485,-9418.149754
41.926569,133.998066,153.140646,-9437.292334
41.927197,38.285162,114.855485,-9418.149754
41.927824,133.998066,191.425808,-9399.007173
41.928452,133.998066,114.855485,-9437.292334
41.929079,133.998066,114.855485,-9437.292334
41.929707,210.568389,172.283227,-9456.434915
41.930334,133.998066,133.998066,-9456.434915
41.930962,153.140646,153.140646,-9399.007173
41.931589,133.998066,172.283227,-9418.149754
41.932217,133.998066,114.855485,-9494.720077
41.932844,133.998066,153.140646,-9418.149754
41.933472,76.570323,114.855485,-9418.149754
41.934099,76.570323,114.855485,-9418.149754
41.934727,114.855485,114.855485,-9399.007173
41.935354,95.712904,114.855485,-9418.149754
41.935982,95.712904,114.855485,-9437.292334
41.936609,133.998066,114.855485,-9418.149754
41.937237,114.855485,114.855485,-9399.007173
41.937864,114.855485,114.855485,-9399.007173
41.938492,76.570323,114.855485,-9437.292334
41.939119,95.712904,95.712904,-9437.292334
41.939747,38.285162,114.855485,-9437.292334
41.940374,133.998066,191.425808,-9456.434915
41.941002,76.570323,114.855485,-9456.434915
41.941629,38.285162,114.855485,-9418.149754
41.942257,19.142581,114.855485,-9418.149754
41.942884,38.285162,210.568389,-9475.577496
41.943512,133.998066,114.855485,-9456.434915
41.944139,76.570323,114.855485,-9418.149754
41.944767,38.285162,153.140646,-9418.149754
41.945394,76.570323,76.570323,-9379.864592
41.946022,133.998066,172.283227,-9418.149754
41.946649,133.998066,114.855485,-9437.292334
41.947277,153.140646,133.998066,-9437.292334
41.947904,153.140646,133.998066,-9456.434915
41.948532,76.570323,210.568389,-9456.434915
41.949159,38.285162,114.855485,-9418.149754
41.949787,95.712904,114.855485,-9456.434915
41.950414,76.570323,114.855485,-9418.149754
41.951042,133.998066,114.855485,-9437.292334
41.951669,57.427742,114.855485,-9475.577496
41.952297,133.998066,153.140646,-9456.434915
41.952924,114.855485,95.712904,-9456.434915
41.953551,76.570323,114.855485,-9418.149754
41.954179,57.427742,95.712904,-9379.864592
41.954806,76.570323,114.855485,-9418.149754
41.955434,133.998066,114.855485,-9418.149754
41.956061,76.570323,153.140646,-9437.292334
41.956689,133.998066,114.855485,-9418.149754
41.957316,133.998066,114.855485,-9437.292334
41.957944,114.855485,153.140646,-9418.149754
41.958571,153.140646,210.568389,-9399.007173
41.959199,172.283227,191.425808,-9418.149754
41.959826,76.570323,172.283227,-9418.149754
41.960454,38.285162,153.140646,-9418.149754
41.961081,76.570323,114.855485,-9437.292334
41.961709,133.998066,133.998066,-9437.292334
41.962336,38.285162,172.283227,-9418.149754
41.962964,95.712904,114.855485,-9418.149754
41.963591,76.570323,210.568389,-9437.292334
41.964219,76.570323,114.855485,-9456.434915
41.964846,38.285162,153.140646,-9418.149754
41.965474,153.140646,153.140646,-9399.007173
41.966101,133.998066,114.855485,-9418.149754
41.966729,76.570323,153.140646,-9418.149754
41.967356,76.570323,114.855485,-9418.149754
41.967984,76.570323,172.283227,-9456.434915
41.968611,133.998066,210.568389,-9456.434915
41.969239,76.570323,114.855485,-9418.149754
41.969866,153.140646,133.998066,-9399.007173
41.970494,57.427742,114.855485,-9437.292334
41.971121,95.712904,191.425808,-9456.434915
41.971749,172.283227,133.998066,-9475.577496
41.972376,133.998066,114.855485,-9418.149754
41.973004,95.712904,95.712904,-9399.007173
41.973631,76.570323,95.712904,-9437.292334
41.974259,95.712904,172.283227,-9437.292334
41.974886,76.570323,114.855485,-9437.292334
41.975514,133.998066,114.855485,-9418.149754
41.976141,76.570323,114.855485,-9437.292334
41.976769,76.570323,153.140646,-9418.149754
41.977396,76.570323,114.855485,-9360.722011
41.978024,76.570323,114.855485,-9418.149754
41.978651,76.570323,114.855485,-9456.434915
41.979279,114.855485,95.712904,-9456.434915
41.979906,114.855485,133.998066,-9360.722011
41.980534,76.570323,114.855485,-9418.149754
41.981161,76.570323,114.855485,-9418.149754
41.981789,76.570323,114.855485,-9418.149754
41.982416,76.570323,95.712904,-9437.292334
41.983044,153.140646,172.283227,-9399.007173
41.983671,153.140646,172.283227,-9399.007173
41.984299,76.570323,210.568389,-9418.149754
41.984926,76.570323,172.283227,-9418.149754
41.985553,133.998066,153.140646,-9418.149754
41.986181,76.570323,153.140646,-9418.149754
41.986808,76.570323,114.855485,-9437.292334
41.987436,76.570323,210.568389,-9437.292334
41.988063,95.712904,95.712904,-9494.720077
41.988691,38.285162,114.855485,-9418.149754
41.989318,153.140646,133.998066,-9399.007173
41.989946,133.998066,153.140646,-9418.149754
41.990573,133.998066,172.283227,-9456.434915
41.991201,133.998066,172.283227,-9418.149754
41.991828,114.855485,172.283227,-9341.579430
41.992456,95.712904,95.712904,-9399.007173
41.993083,153.140646,191.425808,-9399.007173
41.993711,95.712904,95.712904,-9456.434915
41.994338,76.570323,114.855485,-9437.292334
41.994966,76.570323,114.855485,-9418.149754
41.995593,153.140646,153.140646,-9456.434915
41.996221,133.998066,114.855485,-9418.149754
41.996848,38.285162,153.140646,-9418.149754
41.997476,133.998066,114.855485,-9418.149754
41.998103,57.427742,95.712904,-9437.292334
41.998731,153.140646,172.283227,-9399.007173
41.999358,38.285162,114.855485,-9360.722011
41.999986,133.998066,133.998066,-9399.007173
42.000613,95.712904,114.855485,-9456.434915
42.001241,133.998066,172.283227,-9418.149754
42.001868,76.570323,210.568389,-9418.149754
42.002496,172.283227,153.140646,-9379.864592
42.003123,76.570323,172.283227,-9418.149754
42.003751,114.855485,95.712904,-9399.007173
42.004378,76.570323,114.855485,-9456.434915
42.005006,76.570323,114.855485,-9475.577496
42.005633,76.570323,172.283227,-9418.149754
42.006261,95.712904,95.712904,-9399.007173
42.006888,76.570323,114.855485,-9418.149754
42.007516,76.570323,172.283227,-9418.149754
42.008143,133.998066,114.855485,-9456.434915
42.008771,57.427742,95.712904,-9456.434915
42.009398,38.285162,153.140646,-9475.577496
42.010026,76.570323,114.855485,-9475.577496
42.010653,133.998066,172.283227,-9418.149754
42.011281,133.998066,133.998066,-9456.434915
42.011908,133.998066,114.855485,-9494.720077
42.012536,76.570323,114.855485,-9418.149754
42.013164,95.712904,191.425808,-9418.149754
42.013791,133.998066,114.855485,-9418.149754
42.014419,76.570323,172.283227,-9475.577496
42.015047,114.855485,172.283227,-9360.722011
42.015674,57.427742,153.140646,-9418.149754
42.016302,57.427742,95.712904,-9456.434915
42.016929,76.570323,114.855485,-9475.577496
42.017557,95.712904,114.855485,-9456.434915
42.018185,95.712904,153.140646,-9360.722011
42.018812,76.570323,114.855485,-9418.149754
42.019440,153.140646,133.998066,-9399.007173
42.020068,114.855485,95.712904,-9399.007173
42.020695,114.855485,133.998066,-9360.722011
42.021323,57.427742,95.712904,-9437.292334
42.021950,133.998066,133.998066,-9456.434915
42.022578,133.998066,172.283227,-9456.434915
42.023206,38.285162,114.855485,-9418.149754
42.023833,38.285162,114.855485,-9418.149754
42.024461,95.712904,95.712904,-9437.292334
42.025089,133.998066,114.855485,-9418.149754
42.025716,95.712904,191.425808,-9360.722011
42.026344,133.998066,114.855485,-9418.149754
42.026971,95.712904,172.283227,-9360.722011
42.027599,133.998066,153.140646,-9418.149754
42.028227,114.855485,95.712904,-9399.007173
42.028854,114.855485,153.140646,-9379.864592
42.029482,76.570323,172.283227,-9418.149754
42.030110,133.998066,133.998066,-9456.434915
42.030737,133.998066,114.855485,-9437.292334
42.031365,153.140646,133.998066,-9399.007173
42.031993,153.140646,133.998066,-9475.577496
42.032620,95.712904,114.855485,-9399.007173
42.033248,38.285162,153.140646,-9418.149754
42.033875,38.285162,210.568389,-9456.434915
42.034503,76.570323,114.855485,-9437.292334
42.035131,76.570323,114.855485,-9456.434915
42.035758,95.712904,114.855485,-9418.149754
42.036386,133.998066,114.855485,-9456.434915
42.037014,38.285162,114.855485,-9418.149754
42.037641,153.140646,191.425808,-9418.149754
42.038269,153.140646,172.283227,-9399.007173
42.038896,76.570323,114.855485,-9418.149754
42.039524,114.855485,95.712904,-9456.434915
42.040152,76.570323,114.855485,-9418.149754
42.040779,114.855485,76.570323,-9437.292334
42.041407,38.285162,114.855485,-9418.149754
42.042035,114.855485,153.140646,-9360.722011
42.042662,76.570323,172.283227,-9418.149754
42.043290,133.998066,172.283227,-9418.149754
42.043917,133.998066,153.140646,-9456.434915
42.044545,133.998066,133.998066,-9456.434915
42.045173,133.998066,153.140646,-9456.434915
42.045800,153.140646,172.283227,-9399.007173
42.046428,133.998066,153.140646,-9399.007173
42.047056,76.570323,114.855485,-9418.149754
42.047683,114.855485,95.712904,-9399.007173
42.048311,95.712904,133.998066,-9360.722011
42.048938,133.998066,114.855485,-9399.007173
42.049566,76.570323,172.283227,-9418.149754
42.050194,76.570323,191.425808,-9475.577496
42.050821,76.570323,172.283227,-9418.149754
42.051449,76.570323,153.140646,-9475.577496
42.052077,95.712904,172.283227,-9360.722011
42.052704,133.998066,114.855485,-9456.434915
42.053332,95.712904,172.283227,-9418.149754
42.053959,133.998066,172.283227,-9437.292334
42.054587,153.140646,153.140646,-9475.577496
42.055215,153.140646,133.998066,-9399.007173
42.055842,38.285162,76.570323,-9379.864592
42.056470,76.570323,114.855485,-9437.292334
42.057098,153.140646,133.998066,-9456.434915
42.057725,133.998066,172.283227,-9475.577496
42.058353,133.998066,210.568389,-9533.005238
42.058980,133.998066,172.283227,-9456.434915
42.059608,133.998066,172.283227,-9418.149754
42.060236,95.712904,114.855485,-9418.149754
42.060863,133.998066,114.855485,-9437.292334
42.061491,38.285162,114.855485,-9418.149754
42.062119,114.855485,114.855485,-9399.007173
42.062746,76.570323,114.855485,-9418.149754
42.063374,38.285162,114.855485,-9418.149754
42.064001,76.570323,114.855485,-9418.149754
42.064629,38.285162,114.855485,-9418.149754
42.065257,76.570323,153.140646,-9418.149754
42.065884,95.712904,95.712904,-9399.007173
42.066512,38.285162,114.855485,-9418.149754
42.067140,133.998066,114.855485,-9418.149754
42.067767,95.712904,133.998066,-9360.722011
42.068395,76.570323,114.855485,-9418.149754
42.069022,57.427742,95.712904,-9437.292334
42.069650,133.998066,114.855485,-9418.149754
42.070278,133.998066,153.140646,-9418.149754
42.070905,38.285162,114.855485,-9456.434915
42.071533,133.998066,114.855485,-9494.720077
42.072161,133.998066,114.855485,-9437.292334
42.072788,38.285162,133.998066,-9456.434915
42.073416,76.570323,114.855485,-9418.149754
42.074043,76.570323,153.140646,-9418.149754
42.074671,76.570323,191.425808,-9341.579430
42.075299,95.712904,153.140646,-9418.149754
42.075926,38.285162,114.855485,-9437.292334
42.076554,76.570323,114.855485,-9456.434915
42.077182,95.712904,114.855485,-9437.292334
42.077809,133.998066,114.855485,-9418.149754
42.078437,95.712904,114.855485,-9418.149754
42.079064,133.998066,114.855485,-9456.434915
42.079692,153.140646,133.998066,-9399.007173
42.080320,114.855485,95.712904,-9399.007173
42.080947,95.712904,133.998066,-9360.722011
42.081575,95.712904,95.712904,-9399.007173
42.082203,76.570323,114.855485,-9418.149754
42.082830,153.140646,133.998066,-9399.007173
42.083458,95.712904,114.855485,-9456.434915
42.084085,153.140646,133.998066,-9399.007173
42.084713,95.712904,172.283227,-9341.579430
42.085341,95.712904,153.140646,-9360.722011
42.085968,172.283227,114.855485,-9379.864592
42.086596,95.712904,172.283227,-9418.149754
42.087224,133.998066,153.140646,-9418.149754
42.087851,114.855485,133.998066,-9341.579430
42.088479,57.427742,133.998066,-9360.722011
42.089106,38.285162,210.568389,-9418.149754
42.089734,38.285162,210.568389,-9418.149754
42.090362,153.140646,153.140646,-9437.292334
42.090989,133.998066,133.998066,-9399.007173
42.091617,153.140646,172.283227,-9456.434915
42.092245,114.855485,95.712904,-9399.007173
42.092872,114.855485,95.712904,-9399.007173
42.093500,133.998066,172.283227,-9456.434915
42.094127,153.140646,114.855485,-9437.292334
42.094755,153.140646,133.998066,-9399.007173
42.095383,153.140646,133.998066,-9399.007173
42.096010,133.998066,114.855485,-9418.149754
42.096638,133.998066,114.855485,-9418.149754
42.097266,133.998066,210.568389,-9418.149754
42.097893,133.998066,210.568389,-9418.149754
42.098521,133.998066,114.855485,-9456.434915
42.099148,133.998066,114.855485,-9418.149754
42.099776,76.570323,114.855485,-9418.149754
42.100404,133.998066,153.140646,-9418.149754
42.101031,133.998066,153.140646,-9418.149754
42.101659,76.570323,114.855485,-9418.149754
42.102287,95.712904,95.712904,-9437.292334
42.102914,133.998066,114.855485,-9418.149754
42.103542,133.998066,114.855485,-9475.577496
42.104169,76.570323,172.283227,-9418.149754
42.104797,133.998066,133.998066,-9437.292334
42.105425,76.570323,114.855485,-9456.434915
42.106052,133.998066,172.283227,-9418.149754
42.106680,133.998066,172.283227,-9399.007173
42.107308,133.998066,210.568389,-9418.149754
42.107935,95.712904,95.712904,-9437.292334
42.108563,95.712904,95.712904,-9399.007173
42.109190,38.285162,114.855485,-9418.149754
42.109818,76.570323,114.855485,-9437.292334
42.110446,76.570323,172.283227,-9418.149754
42.111073,133.998066,210.568389,-9418.149754
42.111701,133.998066,210.568389,-9418.149754
42.112328,133.998066,210.568389,-9418.149754
42.112955,133.998066,114.855485,-9418.149754
42.113583,38.285162,114.855485,-9456.434915
42.114210,95.712904,114.855485,-9418.149754
42.114837,95.712904,95.712904,-9399.007173
42.115465,76.570323,172.283227,-9494.720077
42.116092,38.285162,210.568389,-9456.434915
42.116720,133.998066,133.998066,-9399.007173
42.117347,133.998066,210.568389,-9418.149754
42.117974,95.712904,133.998066,-9360.722011
42.118602,76.570323,153.140646,-9456.434915
42.119229,133.998066,114.855485,-9418.149754
42.119857,76.570323,210.568389,-9418.149754
42.120484,76.570323,114.855485,-9456.434915
42.121111,38.285162,114.855485,-9418.149754
42.121739,76.570323,153.140646,-9418.149754
42.122366,133.998066,114.855485,-9437.292334
42.122994,95.712904,172.283227,-9437.292334
42.123621,76.570323,210.568389,-9418.149754
42.124248,114.855485,172.283227,-9379.864592
42.124876,76.570323,153.140646,-9418.149754
42.125503,76.570323,114.855485,-9418.149754
42.126131,133.998066,153.140646,-9437.292334
42.126758,153.140646,153.140646,-9399.007173
42.127385,38.285162,172.283227,-9418.149754
42.128013,133.998066,114.855485,-9418.149754
42.128640,76.570323,210.568389,-9437.292334
42.129268,76.570323,114.855485,-9418.149754
42.129895,133.998066,114.855485,-9418.149754
42.130522,133.998066,76.570323,-9456.434915
42.131150,114.855485,95.712904,-9456.434915
42.131777,172.283227,76.570323,-9437.292334
42.132404,153.140646,133.998066,-9399.007173
42.133032,76.570323,114.855485,-9456.434915
42.133659,133.998066,210.568389,-9418.149754
42.134287,76.570323,229.710970,-9475.577496
42.134914,76.570323,114.855485,-9418.149754
42.135541,38.285162,210.568389,-9437.292334
42.136169,76.570323,114.855485,-9475.577496
42.136796,76.570323,114.855485,-9418.149754
42.137424,133.998066,172.283227,-9418.149754
42.138051,76.570323,114.855485,-9456.434915
42.138678,38.285162,172.283227,-9418.149754
42.139306,133.998066,153.140646,-9399.007173
42.139933,76.570323,153.140646,-9418.149754
42.140561,76.570323,114.855485,-9418.149754
42.141188,38.285162,114.855485,-9418.149754
42.141815,38.285162,153.140646,-9418.149754
42.142443,76.570323,153.140646,-9418.149754
42.143070,95.712904,172.283227,-9418.149754
42.143698,133.998066,114.855485,-9475.577496
42.144325,76.570323,210.568389,-9456.434915
42.144952,76.570323,210.568389,-9437.292334
42.145580,76.570323,172.283227,-9456.434915
42.146207,76.570323,153.140646,-9437.292334
42.146835,76.570323,95.712904,-9399.007173
42.147462,133.998066,172.283227,-9418.149754
42.148089,172.283227,191.425808,-9418.149754
42.148717,76.570323,114.855485,-9418.149754
42.149344,153.140646,133.998066,-9399.007173
42.149971,114.855485,153.140646,-9360.722011
42.150599,172.283227,172.283227,-9418.149754
42.151226,76.570323,114.855485,-9456.434915
42.151854,133.998066,114.855485,-9418.149754
42.152481,133.998066,153.140646,-9437.292334
42.153108,76.570323,114.855485,-9418.149754
42.153736,38.285162,114.855485,-9418.149754
42.154363,133.998066,114.855485,-9418.149754
42.154991,153.140646,133.998066,-9399.007173
42.155618,95.712904,133.998066,-9360.722011
42.156245,76.570323,114.855485,-9418.149754
42.156873,76.570323,153.140646,-9418.149754
42.157500,76.570323,172.283227,-9437.292334
42.158128,38.285162,114.855485,-9418.149754
42.158755,57.427742,114.855485,-9418.149754
42.159382,133.998066,114.855485,-9437.292334
42.160010,76.570323,172.283227,-9418.149754
42.160637,76.570323,172.283227,-9456.434915
42.161265,38.285162,114.855485,-9437.292334
42.161892,76.570323,114.855485,-9418.149754
42.162519,76.570323,114.855485,-9418.149754
42.163147,38.285162,114.855485,-9418.149754
42.163774,95.712904,95.712904,-9399.007173
42.164402,133.998066,114.855485,-9418.149754
42.165029,172.283227,76.570323,-9418.149754
42.165656,133.998066,210.568389,-9418.149754
42.166284,133.998066,153.140646,-9418.149754
42.166911,76.570323,114.855485,-9418.149754
42.167538,95.712904,114.855485,-9437.292334
42.168166,133.998066,114.855485,-9418.149754
42.168793,95.712904,114.855485,-9418.149754
42.169421,95.712904,172.283227,-9418.149754
42.170048,114.855485,114.855485,-9456.434915
42.170675,76.570323,114.855485,-9418.149754
42.171303,76.570323,153.140646,-9456.434915
42.171930,133.998066,114.855485,-9418.149754
42.172558,133.998066,172.283227,-9418.149754
42.173185,133.998066,133.998066,-9437.292334
42.173812,133.998066,172.283227,-9418.149754
42.174440,76.570323,114.855485,-9418.149754
42.175067,114.855485,133.998066,-9418.149754
42.175695,76.570323,153.140646,-9418.149754
42.176322,133.998066,172.283227,-9456.434915
42.176949,38.285162,114.855485,-9475.577496
42.177577,76.570323,172.283227,-9418.149754
42.178204,95.712904,95.712904,-9456.434915
42.178832,172.283227,76.570323,-9494.720077
42.179459,133.998066,114.855485,-9437.292334
42.180086,153.140646,133.998066,-9399.007173
42.180714,133.998066,114.855485,-9418.149754
42.181341,133.998066,114.855485,-9456.434915
42.181969,133.998066,114.855485,-9418.149754
42.182596,153.140646,133.998066,-9456.434915
42.183223,133.998066,172.283227,-9437.292334
42.183851,133.998066,133.998066,-9399.007173
42.184478,76.570323,114.855485,-9418.149754
42.185105,76.570323,114.855485,-9437.292334
42.185733,114.855485,153.140646,-9360.722011
42.186360,76.570323,114.855485,-9418.149754
42.186988,95.712904,210.568389,-9418.149754
42.187615,76.570323,153.140646,-9418.149754
42.188242,95.712904,114.855485,-9418.149754
42.188870,133.998066,114.855485,-9437.292334
42.189497,95.712904,114.855485,-9418.149754
42.190125,76.570323,114.855485,-9418.149754
42.190752,95.712904,172.283227,-9360.722011
42.191379,95.712904,95.712904,-9399.007173
42.192007,133.998066,114.855485,-9437.292334
42.192634,133.998066,191.425808,-9399.007173
42.193262,76.570323,153.140646,-9418.149754
42.193889,153.140646,191.425808,-9456.434915
42.194516,76.570323,191.425808,-9437.292334
42.195144,57.427742,114.855485,-9418.149754
42.195771,76.570323,114.855485,-9456.434915
42.196399,133.998066,153.140646,-9418.149754
42.197026,95.712904,95.712904,-9475.577496
42.197653,95.712904,95.712904,-9399.007173
42.198281,172.283227,172.283227,-9379.864592
42.198908,210.568389,133.998066,-9399.007173
42.199535,133.998066,114.855485,-9418.149754
42.200163,95.712904,133.998066,-9360.722011
42.200790,57.427742,114.855485,-9494.720077
42.201418,57.427742,95.712904,-9456.434915
42.202045,76.570323,114.855485,-9418.149754
42.202672,133.998066,114.855485,-9437.292334
42.203300,153.140646,153.140646,-9456.434915
42.203927,133.998066,133.998066,-9379.864592
42.204555,133.998066,133.998066,-9399.007173
42.205182,38.285162,114.855485,-9418.149754
42.205809,76.570323,114.855485,-9475.577496
42.206437,133.998066,114.855485,-9418.149754
42.207064,76.570323,114.855485,-9418.149754
42.207692,19.142581,172.283227,-9418.149754
42.208319,76.570323,114.855485,-9418.149754
42.208946,114.855485,95.712904,-9399.007173
42.209574,76.570323,114.855485,-9418.149754
42.210201,133.998066,172.283227,-9418.149754
42.210829,133.998066,191.425808,-9399.007173
42.211456,76.570323,114.855485,-9418.149754
42.212083,76.570323,114.855485,-9418.149754
42.212711,76.570323,153.140646,-9437.292334
42.213338,76.570323,114.855485,-9456.434915
42.213966,38.285162,172.283227,-9418.149754
42.214593,133.998066,114.855485,-9437.292334
42.215220,95.712904,95.712904,-9399.007173
42.215848,95.712904,95.712904,-9456.434915
42.216475,76.570323,114.855485,-9418.149754
42.217103,95.712904,95.712904,-9399.007173
42.217731,114.855485,114.855485,-9437.292334
42.218359,133.998066,114.855485,-9494.720077
42.218986,114.855485,229.710970,-9456.434915
42.219614,114.855485,95.712904,-9437.292334
42.220242,76.570323,114.855485,-9418.149754
42.220870,76.570323,114.855485,-9418.149754
42.221497,133.998066,114.855485,-9418.149754
42.222125,76.570323,153.140646,-9456.434915
42.222753,95.712904,114.855485,-9418.149754
42.223381,153.140646,114.855485,-9418.149754
42.224008,76.570323,114.855485,-9533.005238
42.224636,133.998066,114.855485,-9475.577496
42.225264,76.570323,114.855485,-9418.149754
42.225892,76.570323,114.855485,-9437.292334
42.226519,133.998066,114.855485,-9456.434915
42.227147,38.285162,114.855485,-9494.720077
42.227775,133.998066,114.855485,-9475.577496
42.228403,133.998066,172.283227,-9475.577496
42.229030,133.998066,153.140646,-9399.007173
42.229658,114.855485,95.712904,-9399.007173
42.230286,76.570323,172.283227,-9437.292334
42.230914,76.570323,153.140646,-9475.577496
42.231541,133.998066,114.855485,-9494.720077
42.232169,133.998066,114.855485,-9437.292334
42.232797,133.998066,153.140646,-9456.434915
42.233425,76.570323,114.855485,-9418.149754
42.234052,133.998066,114.855485,-9437.292334
42.234680,133.998066,114.855485,-9418.149754
42.235308,133.998066,114.855485,-9437.292334
42.235936,38.285162,114.855485,-9418.149754
42.236563,76.570323,114.855485,-9418.149754
42.237191,76.570323,191.425808,-9418.149754
42.237819,133.998066,114.855485,-9418.149754
42.238447,76.570323,153.140646,-9418.149754
42.239074,133.998066,153.140646,-9418.149754
42.239702,133.998066,133.998066,-9456.434915
42.240330,38.285162,133.998066,-9360.722011
42.240958,76.570323,114.855485,-9494.720077
42.241585,153.140646,133.998066,-9456.434915
42.242213,133.998066,172.283227,-9418.149754
42.242841,114.855485,95.712904,-9418.149754
42.243469,153.140646,172.283227,-9399.007173
42.244096,76.570323,114.855485,-9418.149754
42.244724,153.140646,133.998066,-9399.007173
42.245352,76.570323,114.855485,-9456.434915
42.245980,133.998066,114.855485,-9418.149754
42.246607,76.570323,95.712904,-9475.577496
42.247235,76.570323,114.855485,-9418.149754
42.247863,76.570323,114.855485,-9418.149754
42.248491,133.998066,76.570323,-9399.007173
42.249118,38.285162,114.855485,-9456.434915
42.249746,133.998066,114.855485,-9456.434915
42.250374,38.285162,210.568389,-9418.149754
42.251002,133.998066,153.140646,-9418.149754
42.251629,38.285162,114.855485,-9418.149754
42.252257,38.285162,114.855485,-9437.292334
42.252885,133.998066,133.998066,-9437.292334
42.253513,133.998066,114.855485,-9418.149754
42.254140,133.998066,114.855485,-9494.720077
42.254768,76.570323,153.140646,-9418.149754
42.255396,133.998066,172.283227,-9437.292334
42.256024,95.712904,248.853550,-9360.722011
42.256651,133.998066,153.140646,-9399.007173
42.257279,76.570323,172.283227,-9456.434915
42.257907,76.570323,95.712904,-9399.007173
42.258535,38.285162,114.855485,-9418.149754
42.259162,57.427742,133.998066,-9418.149754
42.259790,38.285162,114.855485,-9494.720077
42.260418,153.140646,133.998066,-9494.720077
42.261046,57.427742,210.568389,-9418.149754
42.261673,133.998066,153.140646,-9418.149754
42.262301,114.855485,191.425808,-9360.722011
42.262929,95.712904,114.855485,-9437.292334
42.263557,76.570323,114.855485,-9418.149754
42.264184,76.570323,229.710970,-9437.292334
42.264812,133.998066,172.283227,-9418.149754
42.265440,133.998066,114.855485,-9418.149754
42.266068,95.712904,114.855485,-9437.292334
42.266695,95.712904,210.568389,-9418.149754
42.267323,133.998066,153.140646,-9494.720077
42.267951,38.285162,191.425808,-9437.292334
42.268579,76.570323,114.855485,-9456.434915
42.269206,133.998066,114.855485,-9437.292334
42.269834,153.140646,133.998066,-9399.007173
42.270462,76.570323,114.855485,-9437.292334
42.271090,172.283227,114.855485,-9379.864592
42.271717,38.285162,172.283227,-9418.149754
42.272345,57.427742,95.712904,-9399.007173
42.272973,38.285162,114.855485,-9418.149754
42.273601,95.712904,114.855485,-9418.149754
42.274228,95.712904,114.855485,-9437.292334
42.274856,38.285162,114.855485,-9456.434915
42.275484,57.427742,172.283227,-9437.292334
42.276112,133.998066,210.568389,-9418.149754
42.276739,114.855485,133.998066,-9360.722011
42.277367,172.283227,76.570323,-9437.292334
42.277995,210.568389,133.998066,-9456.434915
42.278623,133.998066,153.140646,-9418.149754
42.279250,38.285162,114.855485,-9418.149754
42.279878,76.570323,172.283227,-9418.149754
42.280506,95.712904,95.712904,-9456.434915
42.281134,133.998066,114.855485,-9456.434915
42.281761,76.570323,95.712904,-9456.434915
42.282389,57.427742,114.855485,-9456.434915
42.283017,153.140646,172.283227,-9418.149754
42.283645,76.570323,172.283227,-9418.149754
42.284272,76.570323,114.855485,-9437.292334
42.284900,133.998066,114.855485,-9456.434915
42.285528,76.570323,114.855485,-9418.149754
42.286156,133.998066,114.855485,-9418.149754
42.286783,38.285162,114.855485,-9418.149754
42.287411,133.998066,210.568389,-9418.149754
42.288039,133.998066,153.140646,-9456.434915
42.288667,133.998066,114.855485,-9418.149754
42.289294,133.998066,114.855485,-9418.149754
42.289922,95.712904,210.568389,-9418.149754
42.290550,133.998066,153.140646,-9418.149754
42.291178,133.998066,114.855485,-9456.434915
42.291805,76.570323,153.140646,-9418.149754
42.292433,133.998066,114.855485,-9418.149754
42.293061,133.998066,172.283227,-9399.007173
42.293689,133.998066,172.283227,-9456.434915
42.294316,38.285162,114.855485,-9418.149754
42.294944,38.285162,114.855485,-9418.149754
42.295572,76.570323,172.283227,-9418.149754
42.296200,133.998066,114.855485,-9456.434915
42.296827,76.570323,114.855485,-9456.434915
42.297455,76.570323,210.568389,-9418.149754
42.298083,133.998066,114.855485,-9475.577496
42.298711,133.998066,153.140646,-9418.149754
42.299338,76.570323,114.855485,-9456.434915
42.299966,38.285162,191.425808,-9418.149754
42.300594,114.855485,133.998066,-9360.722011
42.301222,153.140646,133.998066,-9399.007173
42.301849,172.283227,172.283227,-9379.864592
42.302477,76.570323,153.140646,-9475.577496
42.303105,95.712904,133.998066,-9360.722011
42.303733,114.855485,191.425808,-9360.722011
42.304360,114.855485,114.855485,-9399.007173
42.304988,114.855485,133.998066,-9360.722011
42.305616,38.285162,114.855485,-9418.149754
42.306244,76.570323,172.283227,-9418.149754
42.306871,76.570323,114.855485,-9418.149754
42.307499,133.998066,172.283227,-9456.434915
42.308127,38.285162,153.140646,-9437.292334
42.308755,133.998066,172.283227,-9456.434915
42.309382,76.570323,153.140646,-9456.434915
42.310010,133.998066,114.855485,-9418.149754
42.310638,76.570323,114.855485,-9456.434915
42.311266,57.427742,133.998066,-9360.722011
42.311893,76.570323,114.855485,-9418.149754
42.312521,95.712904,172.283227,-9360.722011
42.313149,95.712904,133.998066,-9360.722011
42.313777,76.570323,114.855485,-9475.577496
42.314404,95.712904,95.712904,-9399.007173
42.315032,76.570323,114.855485,-9437.292334
42.315660,38.285162,114.855485,-9494.720077
42.316288,133.998066,210.568389,-9437.292334
42.316915,133.998066,114.855485,-9418.149754
42.317543,76.570323,76.570323,-9379.864592
42.318171,76.570323,114.855485,-9418.149754
42.318798,76.570323,172.283227,-9418.149754
42.319426,133.998066,210.568389,-9494.720077
42.320054,38.285162,114.855485,-9437.292334
42.320681,76.570323,95.712904,-9456.434915
42.321309,76.570323,114.855485,-9418.149754
42.321937,38.285162,229.710970,-9418.149754
42.322564,133.998066,133.998066,-9456.434915
42.323192,76.570323,153.140646,-9456.434915
42.323820,38.285162,114.855485,-9437.292334
42.324447,95.712904,210.568389,-9418.149754
42.325075,133.998066,114.855485,-9418.149754
42.325703,76.570323,114.855485,-9437.292334
42.326330,76.570323,153.140646,-9418.149754
42.326958,133.998066,153.140646,-9456.434915
42.327586,76.570323,153.140646,-9418.149754
42.328213,114.855485,133.998066,-9360.722011
42.328841,38.285162,114.855485,-9418.149754
42.329469,114.855485,114.855485,-9437.292334
42.330096,76.570323,114.855485,-9494.720077
42.330724,133.998066,114.855485,-9418.149754
42.331352,76.570323,172.283227,-9418.149754
42.331979,38.285162,210.568389,-9418.149754
42.332607,76.570323,172.283227,-9418.149754
42.333235,95.712904,172.283227,-9418.149754
42.333862,76.570323,114.855485,-9418.149754
42.334490,57.427742,95.712904,-9456.434915
42.335118,76.570323,114.855485,-9418.149754
42.335745,95.712904,153.140646,-9360.722011
42.336373,76.570323,114.855485,-9475.577496
42.337001,133.998066,172.283227,-9418.149754
42.337628,76.570323,114.855485,-9418.149754
42.338256,133.998066,153.140646,-9475.577496
42.338884,76.570323,95.712904,-9456.434915
42.339511,133.998066,114.855485,-9456.434915
42.340139,76.570323,114.855485,-9418.149754
42.340767,76.570323,114.855485,-9456.434915
42.341394,19.142581,114.855485,-9437.292334
42.342022,76.570323,114.855485,-9456.434915
42.342650,133.998066,114.855485,-9418.149754
42.343277,76.570323,114.855485,-9418.149754
42.343905,153.140646,172.283227,-9399.007173
42.344533,133.998066,172.283227,-9418.149754
42.345160,172.283227,76.570323,-9494.720077
42.345788,114.855485,95.712904,-9437.292334
42.346416,95.712904,114.855485,-9399.007173
42.347043,133.998066,114.855485,-9437.292334
42.347671,133.998066,172.283227,-9437.292334
42.348299,133.998066,114.855485,-9456.434915
42.348926,76.570323,172.283227,-9418.149754
42.349554,38.285162,95.712904,-9399.007173
42.350182,133.998066,210.568389,-9456.434915
42.350809,76.570323,114.855485,-9456.434915
42.351437,153.140646,172.283227,-9494.720077
42.352065,114.855485,95.712904,-9399.007173
42.352693,172.283227,133.998066,-9494.720077
42.353320,133.998066,114.855485,-9418.149754
42.353948,133.998066,172.283227,-9418.149754
42.354576,57.427742,153.140646,-9456.434915
42.355203,76.570323,114.855485,-9437.292334
42.355831,133.998066,172.283227,-9418.149754
42.356459,76.570323,114.855485,-9456.434915
42.357086,38.285162,133.998066,-9437.292334
42.357714,76.570323,114.855485,-9418.149754
42.358342,76.570323,210.568389,-9418.149754
42.358969,95.712904,133.998066,-9360.722011
42.359597,76.570323,114.855485,-9418.149754
42.360225,95.712904,210.568389,-9437.292334
42.360852,133.998066,210.568389,-9418.149754
42.361480,133.998066,153.140646,-9418.149754
42.362108,114.855485,172.283227,-9418.149754
42.362735,114.855485,38.285162,-9399.007173
42.363363,76.570323,114.855485,-9475.577496
42.363991,172.283227,76.570323,-9418.149754
42.364618,133.998066,172.283227,-9418.149754
42.365246,76.570323,153.140646,-9437.292334
42.365874,153.140646,133.998066,-9399.007173
42.366501,153.140646,133.998066,-9399.007173
42.367129,133.998066,172.283227,-9437.292334
42.367757,133.998066,153.140646,-9418.149754
42.368384,210.568389,133.998066,-9456.434915
42.369012,172.283227,76.570323,-9437.292334
42.369640,133.998066,133.998066,-9437.292334
42.370267,76.570323,172.283227,-9418.149754
42.370895,95.712904,133.998066,-9360.722011
42.371523,76.570323,114.855485,-9418.149754
42.372150,38.285162,114.855485,-9418.149754
42.372778,76.570323,172.283227,-9437.292334
42.373406,76.570323,172.283227,-9456.434915
42.374033,114.855485,172.283227,-9360.722011
42.374661,76.570323,114.855485,-9437.292334
42.375289,114.855485,114.855485,-9399.007173
42.375916,153.140646,133.998066,-9399.007173
42.376544,114.855485,95.712904,-9399.007173
42.377172,38.285162,114.855485,-9418.149754
42.377799,133.998066,210.568389,-9418.149754
42.378427,133.998066,172.283227,-9418.149754
42.379055,133.998066,114.855485,-9533.005238
42.379682,95.712904,114.855485,-9418.149754
42.380310,133.998066,210.568389,-9418.149754
42.380938,133.998066,172.283227,-9418.149754
42.381565,76.570323,153.140646,-9418.149754
42.382193,133.998066,210.568389,-9418.149754
42.382821,133.998066,153.140646,-9418.149754
42.383448,172.283227,76.570323,-9494.720077
42.384076,76.570323,172.283227,-9418.149754
42.384704,76.570323,153.140646,-9418.149754
42.385331,133.998066,153.140646,-9456.434915
42.385959,76.570323,172.283227,-9437.292334
42.386587,76.570323,153.140646,-9533.005238
42.387214,76.570323,229.710970,-9418.149754
42.387842,133.998066,114.855485,-9418.149754
42.388470,76.570323,114.855485,-9418.149754
42.389097,95.712904,114.855485,-9456.434915
42.389725,57.427742,133.998066,-9360.722011
42.390353,95.712904,114.855485,-9437.292334
42.390981,76.570323,153.140646,-9418.149754
42.391608,133.998066,114.855485,-9437.292334
42.392236,133.998066,133.998066,-9360.722011
42.392864,133.998066,133.998066,-9399.007173
42.393491,133.998066,114.855485,-9418.149754
42.394119,95.712904,114.855485,-9418.149754
42.394747,95.712904,95.712904,-9399.007173
42.395374,133.998066,114.855485,-9418.149754
42.396002,76.570323,153.140646,-9418.149754
42.396630,133.998066,133.998066,-9456.434915
42.397257,38.285162,114.855485,-9418.149754
42.397885,76.570323,95.712904,-9399.007173
42.398513,133.998066,172.283227,-9418.149754
42.399140,76.570323,114.855485,-9437.292334
42.399768,95.712904,95.712904,-9399.007173
42.400396,153.140646,133.998066,-9399.007173
42.401023,76.570323,114.855485,-9456.434915
42.401651,133.998066,153.140646,-9456.434915
42.402279,76.570323,114.855485,-9437.292334
42.402906,133.998066,114.855485,-9418.149754
42.403534,114.855485,95.712904,-9399.007173
42.404162,114.855485,153.140646,-9360.722011
42.404789,76.570323,229.710970,-9475.577496
42.405417,133.998066,191.425808,-9456.434915
42.406045,133.998066,229.710970,-9456.434915
42.406672,153.140646,133.998066,-9399.007173
42.407300,76.570323,191.425808,-9418.149754
42.407928,153.140646,153.140646,-9437.292334
42.408555,133.998066,114.855485,-9437.292334
42.409183,153.140646,172.283227,-9456.434915
42.409811,114.855485,95.712904,-9399.007173
42.410438,133.998066,172.283227,-9418.149754
42.411066,95.712904,153.140646,-9360.722011
42.411694,133.998066,133.998066,-9399.007173
42.412321,57.427742,95.712904,-9399.007173
42.412949,114.855485,95.712904,-9475.577496
42.413577,133.998066,114.855485,-9437.292334
42.414204,114.855485,95.712904,-9475.577496
42.414832,133.998066,172.283227,-9456.434915
42.415460,76.570323,114.855485,-9533.005238
42.416087,153.140646,133.998066,-9399.007173
42.416715,153.140646,133.998066,-9399.007173
42.417343,76.570323,114.855485,-9418.149754
42.417970,76.570323,114.855485,-9418.149754
42.418598,76.570323,172.283227,-9418.149754
42.419226,114.855485,95.712904,-9399.007173
42.419853,133.998066,114.855485,-9418.149754
42.420481,153.140646,114.855485,-9437.292334
42.421109,76.570323,153.140646,-9418.149754
42.421736,38.285162,210.568389,-9418.149754
42.422364,57.427742,172.283227,-9360.722011
42.422992,133.998066,153.140646,-9418.149754
42.423619,76.570323,114.855485,-9456.434915
42.424247,133.998066,191.425808,-9399.007173
42.424875,95.712904,95.712904,-9399.007173
42.425502,95.712904,133.998066,-9360.722011
42.426130,95.712904,133.998066,-9360.722011
42.426758,76.570323,114.855485,-9418.149754
42.427385,76.570323,153.140646,-9418.149754
42.428013,38.285162,114.855485,-9456.434915
42.428640,38.285162,114.855485,-9475.577496
42.429268,38.285162,172.283227,-9418.149754
42.429896,76.570323,114.855485,-9418.149754
42.430523,76.570323,114.855485,-9418.149754
42.431151,76.570323,114.855485,-9475.577496
42.431779,38.285162,114.855485,-9456.434915
42.432406,95.712904,114.855485,-9437.292334
42.433034,153.140646,133.998066,-9494.720077
42.433662,76.570323,114.855485,-9437.292334
42.434289,76.570323,172.283227,-9418.149754
42.434917,76.570323,114.855485,-9456.434915
42.435545,153.140646,114.855485,-9418.149754
42.436172,95.712904,95.712904,-9399.007173
42.436800,76.570323,172.283227,-9456.434915
42.437428,76.570323,172.283227,-9437.292334
42.438055,133.998066,210.568389,-9418.149754
42.438683,133.998066,153.140646,-9475.577496
42.439311,76.570323,210.568389,-9418.149754
42.439938,95.712904,172.283227,-9437.292334
42.440566,133.998066,114.855485,-9418.149754
42.441194,95.712904,95.712904,-9456.434915
42.441821,133.998066,114.855485,-9494.720077
42.442449,95.712904,95.712904,-9437.292334
42.443076,95.712904,95.712904,-9456.434915
42.443704,95.712904,172.283227,-9418.149754
42.444332,76.570323,95.712904,-9456.434915
42.444959,153.140646,133.998066,-9437.292334
42.445587,133.998066,172.283227,-9475.577496
42.446215,153.140646,210.568389,-9399.007173
42.446842,76.570323,114.855485,-9418.149754
42.447470,133.998066,114.855485,-9437.292334
42.448098,153.140646,133.998066,-9437.292334
42.448725,153.140646,133.998066,-9399.007173
42.449353,76.570323,172.283227,-9418.149754
42.449981,133.998066,114.855485,-9418.149754
42.450608,153.140646,191.425808,-9399.007173
42.451236,76.570323,114.855485,-9418.149754
42.451864,76.570323,172.283227,-9418.149754
42.452491,76.570323,153.140646,-9475.577496
42.453119,38.285162,114.855485,-9437.292334
42.453747,76.570323,114.855485,-9456.434915
42.454374,95.712904,153.140646,-9360.722011
42.455002,76.570323,114.855485,-9418.149754
42.455630,133.998066,133.998066,-9399.007173
42.456257,38.285162,172.283227,-9437.292334
42.456885,57.427742,95.712904,-9399.007173
42.457512,76.570323,133.998066,-9379.864592
42.458140,133.998066,172.283227,-9418.149754
42.458768,95.712904,153.140646,-9418.149754
42.459395,76.570323,114.855485,-9418.149754
42.460023,133.998066,133.998066,-9379.864592
42.460651,38.285162,114.855485,-9418.149754
42.461278,95.712904,95.712904,-9399.007173
42.461906,133.998066,114.855485,-9456.434915
42.462534,95.712904,114.855485,-9418.149754
42.463161,76.570323,153.140646,-9437.292334
42.463789,133.998066,114.855485,-9418.149754
42.464417,133.998066,114.855485,-9418.149754
42.465044,133.998066,172.283227,-9456.434915
42.465672,95.712904,114.855485,-9437.292334
42.466300,76.570323,114.855485,-9418.149754
42.466927,76.570323,114.855485,-9399.007173
42.467555,133.998066,191.425808,-9399.007173
42.468183,76.570323,114.855485,-9437.292334
42.468810,38.285162,114.855485,-9418.149754
42.469438,57.427742,95.712904,-9399.007173
42.470066,133.998066,114.855485,-9418.149754
42.470693,76.570323,133.998066,-9437.292334
42.471321,133.998066,114.855485,-9475.577496
42.471949,95.712904,114.855485,-9418.149754
42.472576,76.570323,114.855485,-9360.722011
42.473204,95.712904,114.855485,-9418.149754
42.473831,76.570323,114.855485,-9418.149754
42.474459,76.570323,172.283227,-9437.292334
42.475087,133.998066,172.283227,-9437.292334
42.475714,133.998066,133.998066,-9456.434915
42.476342,38.285162,114.855485,-9418.149754
42.476970,133.998066,114.855485,-9456.434915
42.477597,76.570323,172.283227,-9418.149754
42.478225,76.570323,172.283227,-9418.149754
42.478853,57.427742,133.998066,-9360.722011
42.479480,38.285162,114.855485,-9437.292334
42.480108,95.712904,191.425808,-9360.722011
42.480736,133.998066,153.140646,-9456.434915
42.481363,76.570323,153.140646,-9418.149754
42.481991,76.570323,76.570323,-9379.864592
42.482619,133.998066,114.855485,-9437.292334
42.483246,76.570323,114.855485,-9418.149754
42.483874,133.998066,153.140646,-9418.149754
42.484502,95.712904,114.855485,-9456.434915
42.485129,76.570323,172.283227,-9437.292334
42.485757,38.285162,114.855485,-9418.149754
42.486385,95.712904,114.855485,-9418.149754
42.487012,133.998066,114.855485,-9456.434915
42.487640,76.570323,114.855485,-9437.292334
42.488267,76.570323,172.283227,-9456.434915
42.488895,76.570323,114.855485,-9475.577496
42.489523,76.570323,114.855485,-9418.149754
42.490150,133.998066,114.855485,-9494.720077
42.490778,133.998066,172.283227,-9418.149754
42.491406,57.427742,153.140646,-9360.722011
42.492033,76.570323,210.568389,-9418.149754
42.492661,38.285162,114.855485,-9437.292334
42.493289,38.285162,114.855485,-9418.149754
42.493916,153.140646,133.998066,-9456.434915
42.494544,76.570323,172.283227,-9437.292334
42.495172,76.570323,172.283227,-9418.149754
42.495799,76.570323,114.855485,-9456.434915
42.496427,76.570323,114.855485,-9437.292334
42.497055,76.570323,114.855485,-9456.434915
42.497682,153.140646,133.998066,-9399.007173
42.498310,153.140646,133.998066,-9399.007173
42.498938,153.140646,133.998066,-9399.007173
42.499565,38.285162,114.855485,-9360.722011
42.500193,0.000000,95.712904,-9399.007173
42.500821,38.285162,114.855485,-9418.149754
42.501448,114.855485,133.998066,-9360.722011
42.502076,153.140646,133.998066,-9399.007173
42.502704,57.427742,133.998066,-9360.722011
42.503331,76.570323,114.855485,-9437.292334
42.503959,38.285162,114.855485,-9437.292334
42.504586,95.712904,114.855485,-9399.007173
42.505214,153.140646,133.998066,-9399.007173
42.505842,133.998066,114.855485,-9418.149754
42.506469,133.998066,114.855485,-9456.434915
42.507097,133.998066,114.855485,-9437.292334
42.507725,57.427742,114.855485,-9418.149754
42.508352,172.283227,133.998066,-9418.149754
42.508980,76.570323,114.855485,-9418.149754
42.509608,38.285162,114.855485,-9475.577496
42.510235,133.998066,172.283227,-9456.434915
42.510863,133.998066,172.283227,-9418.149754
42.511491,153.140646,153.140646,-9418.149754
42.512118,133.998066,114.855485,-9418.149754
42.512746,95.712904,133.998066,-9360.722011
42.513374,95.712904,95.712904,-9399.007173
42.514001,38.285162,114.855485,-9418.149754
42.514629,95.712904,114.855485,-9437.292334
42.515257,133.998066,114.855485,-9418.149754
42.515884,133.998066,114.855485,-9418.149754
42.516512,95.712904,114.855485,-9475.577496
42.517140,76.570323,153.140646,-9418.149754
42.517767,114.855485,95.712904,-9399.007173
42.518395,76.570323,114.855485,-9437.292334
42.519022,76.570323,153.140646,-9418.149754
42.519650,38.285162,114.855485,-9418.149754
42.520277,133.998066,153.140646,-9456.434915
42.520905,76.570323,172.283227,-9418.149754
42.521533,76.570323,114.855485,-9494.720077
42.522160,76.570323,114.855485,-9475.577496
42.522788,76.570323,153.140646,-9437.292334
42.523415,133.998066,114.855485,-9456.434915
42.524043,133.998066,133.998066,-9437.292334
42.524671,38.285162,172.283227,-9418.149754
42.525298,95.712904,95.712904,-9399.007173
42.525926,38.285162,114.855485,-9456.434915
42.526553,133.998066,172.283227,-9418.149754
42.527181,191.425808,248.853550,-9437.292334
42.527808,133.998066,153.140646,-9360.722011
42.528436,153.140646,153.140646,-9399.007173
42.529064,114.855485,95.712904,-9399.007173
42.529691,114.855485,76.570323,-9418.149754
42.530319,76.570323,114.855485,-9437.292334
42.530946,133.998066,114.855485,-9437.292334
42.531574,133.998066,172.283227,-9475.577496
42.532202,133.998066,114.855485,-9418.149754
42.532829,76.570323,114.855485,-9437.292334
42.533457,76.570323,153.140646,-9418.149754
42.534084,76.570323,210.568389,-9418.149754
42.534712,114.855485,133.998066,-9360.722011
42.535339,133.998066,114.855485,-9437.292334
42.535967,38.285162,133.998066,-9360.722011
42.536595,76.570323,95.712904,-9399.007173
42.537222,133.998066,153.140646,-9418.149754
42.537850,76.570323,210.568389,-9494.720077
42.538477,133.998066,114.855485,-9437.292334
42.539105,95.712904,95.712904,-9513.862658
42.539733,114.855485,95.712904,-9399.007173
42.540360,133.998066,114.855485,-9456.434915
42.540988,95.712904,114.855485,-9418.149754
42.541615,133.998066,114.855485,-9456.434915
42.542243,95.712904,95.712904,-9399.007173
42.542870,153.140646,114.855485,-9418.149754
42.543498,153.140646,153.140646,-9399.007173
42.544126,172.283227,114.855485,-9379.864592
42.544753,76.570323,114.855485,-9418.149754
42.545381,172.283227,114.855485,-9379.864592
42.546008,153.140646,133.998066,-9399.007173
42.546636,133.998066,114.855485,-9418.149754
42.547264,133.998066,114.855485,-9418.149754
42.547891,38.285162,114.855485,-9418.149754
42.548519,133.998066,114.855485,-9418.149754
42.549146,76.570323,114.855485,-9456.434915
42.549774,57.427742,114.855485,-9456.434915
42.550402,76.570323,114.855485,-9418.149754
42.551029,95.712904,153.140646,-9418.149754
42.551657,133.998066,114.855485,-9418.149754
42.552284,133.998066,133.998066,-9437.292334
42.552912,114.855485,95.712904,-9475.577496
42.553539,172.283227,76.570323,-9418.149754
42.554167,114.855485,172.283227,-9418.149754
42.554795,76.570323,114.855485,-9418.149754
42.555422,95.712904,172.283227,-9360.722011
42.556050,76.570323,114.855485,-9437.292334
42.556677,95.712904,172.283227,-9418.149754
42.557305,114.855485,95.712904,-9399.007173
42.557933,76.570323,114.855485,-9418.149754
42.558560,76.570323,153.140646,-9418.149754
42.559188,133.998066,114.855485,-9437.292334
42.559815,76.570323,191.425808,-9494.720077
42.560443,57.427742,114.855485,-9418.149754
42.561070,76.570323,114.855485,-9418.149754
42.561698,76.570323,114.855485,-9418.149754
42.562326,76.570323,133.998066,-9399.007173
42.562953,57.427742,95.712904,-9399.007173
42.563581,76.570323,76.570323,-9379.864592
42.564208,133.998066,114.855485,-9418.149754
42.564836,133.998066,114.855485,-9456.434915
42.565464,57.427742,95.712904,-9475.577496
42.566091,76.570323,114.855485,-9418.149754
42.566719,38.285162,114.855485,-9456.434915
42.567346,38.285162,114.855485,-9494.720077
42.567974,76.570323,114.855485,-9437.292334
42.568601,133.998066,172.283227,-9399.007173
42.569229,133.998066,153.140646,-9418.149754
42.569857,76.570323,210.568389,-9437.292334
42.570484,133.998066,114.855485,-9456.434915
42.571112,76.570323,210.568389,-9437.292334
42.571739,133.998066,114.855485,-9418.149754
42.572367,76.570323,114.855485,-9418.149754
42.572995,38.285162,210.568389,-9456.434915
42.573622,133.998066,114.855485,-9437.292334
42.574250,76.570323,172.283227,-9418.149754
42.574877,76.570323,114.855485,-9418.149754
42.575505,133.998066,114.855485,-9456.434915
42.576133,76.570323,153.140646,-9456.434915
42.576760,153.140646,172.283227,-9418.149754
42.577388,133.998066,114.855485,-9418.149754
42.578015,76.570323,114.855485,-9418.149754
42.578643,38.285162,153.140646,-9456.434915
42.579270,76.570323,114.855485,-9418.149754
42.579898,76.570323,114.855485,-9418.149754
42.580526,76.570323,114.855485,-9456.434915
42.581153,133.998066,153.140646,-9418.149754
42.581781,76.570323,114.855485,-9418.149754
42.582408,133.998066,229.710970,-9418.149754
42.583036,38.285162,114.855485,-9418.149754
42.583664,95.712904,172.283227,-9418.149754
42.584291,133.998066,153.140646,-9418.149754
42.584919,133.998066,153.140646,-9418.149754
42.585546,133.998066,114.855485,-9456.434915
42.586174,153.140646,133.998066,-9399.007173
42.586801,76.570323,114.855485,-9456.434915
42.587429,133.998066,114.855485,-9456.434915
42.588057,95.712904,95.712904,-9494.720077
42.588684,38.285162,153.140646,-9418.149754
42.589312,76.570323,210.568389,-9418.149754
42.589939,172.283227,153.140646,-9360.722011
42.590567,114.855485,114.855485,-9379.864592
42.591195,153.140646,191.425808,-9399.007173
42.591822,133.998066,114.855485,-9456.434915
42.592450,133.998066,114.855485,-9418.149754
42.593077,76.570323,114.855485,-9456.434915
42.593705,95.712904,95.712904,-9399.007173
42.594332,133.998066,191.425808,-9456.434915
42.594960,38.285162,114.855485,-9456.434915
42.595588,133.998066,114.855485,-9418.149754
42.596215,114.855485,95.712904,-9456.434915
42.596843,95.712904,133.998066,-9360.722011
42.597470,133.998066,114.855485,-9418.149754
42.598098,76.570323,172.283227,-9418.149754
42.598726,133.998066,114.855485,-9437.292334
42.599353,133.998066,114.855485,-9475.577496
42.599981,38.285162,114.855485,-9437.292334
42.600608,153.140646,153.140646,-9437.292334
42.601236,133.998066,114.855485,-9475.577496
42.601864,133.998066,191.425808,-9399.007173
42.602491,76.570323,114.855485,-9437.292334
42.603119,95.712904,114.855485,-9418.149754
42.603746,133.998066,133.998066,-9399.007173
42.604374,76.570323,172.283227,-9437.292334
42.605001,133.998066,172.283227,-9437.292334
42.605629,133.998066,172.283227,-9399.007173
42.606257,76.570323,153.140646,-9437.292334
42.606884,38.285162,114.855485,-9437.292334
42.607512,38.285162,114.855485,-9418.149754
42.608139,114.855485,114.855485,-9379.864592
42.608767,76.570323,172.283227,-9418.149754
42.609395,76.570323,114.855485,-9418.149754
42.610022,38.285162,114.855485,-9418.149754
42.610650,76.570323,114.855485,-9418.149754
42.611277,133.998066,153.140646,-9475.577496
42.611905,133.998066,172.283227,-9418.149754
42.612532,133.998066,114.855485,-9418.149754
42.613160,76.570323,172.283227,-9437.292334
42.613788,76.570323,172.283227,-9437.292334
42.614415,133.998066,133.998066,-9399.007173
42.615043,76.570323,153.140646,-9456.434915
42.615670,76.570323,114.855485,-9418.149754
42.616298,76.570323,153.140646,-9437.292334
42.616926,133.998066,114.855485,-9456.434915
42.617553,153.140646,114.855485,-9418.149754
42.618181,76.570323,114.855485,-9494.720077
42.618808,76.570323,114.855485,-9456.434915
42.619435,133.998066,153.140646,-9399.007173
42.620063,76.570323,114.855485,-9418.149754
42.620690,133.998066,172.283227,-9399.007173
42.621318,114.855485,95.712904,-9399.007173
42.621945,76.570323,114.855485,-9418.149754
42.622572,38.285162,153.140646,-9418.149754
42.623200,133.998066,114.855485,-9418.149754
42.623827,133.998066,172.283227,-9418.149754
42.624455,133.998066,191.425808,-9399.007173
42.625082,133.998066,210.568389,-9418.149754
42.625709,76.570323,210.568389,-9437.292334
42.626337,76.570323,153.140646,-9418.149754
42.626964,38.285162,114.855485,-9418.149754
42.627591,95.712904,153.140646,-9418.149754
42.628219,76.570323,172.283227,-9418.149754
42.628846,76.570323,114.855485,-9437.292334
42.629474,38.285162,210.568389,-9456.434915
42.630101,76.570323,153.140646,-9437.292334
42.630728,76.570323,172.283227,-9456.434915
42.631356,38.285162,114.855485,-9418.149754
42.631983,133.998066,114.855485,-9456.434915
42.632611,153.140646,133.998066,-9399.007173
42.633238,76.570323,172.283227,-9418.149754
42.633865,153.140646,172.283227,-9399.007173
42.634493,133.998066,114.855485,-9437.292334
42.635120,133.998066,114.855485,-9437.292334
42.635748,76.570323,172.283227,-9360.722011
42.636375,76.570323,114.855485,-9418.149754
42.637002,76.570323,114.855485,-9456.434915
42.637630,133.998066,114.855485,-9418.149754
42.638257,95.712904,57.427742,-9456.434915
42.638885,95.712904,172.283227,-9360.722011
42.639512,114.855485,133.998066,-9360.722011
42.640139,133.998066,191.425808,-9437.292334
42.640767,114.855485,38.285162,-9475.577496
42.641394,95.712904,95.712904,-9456.434915
42.642022,76.570323,114.855485,-9418.149754
42.642649,38.285162,114.855485,-9456.434915
42.643276,95.712904,114.855485,-9418.149754
42.643904,95.712904,133.998066,-9360.722011
42.644531,38.285162,153.140646,-9418.149754
42.645159,133.998066,114.855485,-9418.149754
42.645786,133.998066,114.855485,-9418.149754
42.646413,57.427742,95.712904,-9399.007173
42.647041,76.570323,153.140646,-9418.149754
42.647668,133.998066,229.710970,-9437.292334
42.648296,76.570323,114.855485,-9437.292334
42.648923,133.998066,153.140646,-9437.292334
42.649550,153.140646,153.140646,-9437.292334
42.650178,133.998066,114.855485,-9456.434915
42.650805,76.570323,153.140646,-9418.149754
42.651433,133.998066,114.855485,-9418.149754
42.652060,95.712904,114.855485,-9379.864592
42.652687,38.285162,114.855485,-9437.292334
42.653315,76.570323,114.855485,-9418.149754
42.653942,38.285162,153.140646,-9456.434915
42.654570,133.998066,114.855485,-9456.434915
42.655197,76.570323,114.855485,-9418.149754
42.655824,76.570323,114.855485,-9418.149754
42.656452,76.570323,172.283227,-9418.149754
42.657079,133.998066,153.140646,-9418.149754
42.657707,133.998066,114.855485,-9418.149754
42.658334,133.998066,133.998066,-9456.434915
42.658961,38.285162,210.568389,-9418.149754
42.659589,38.285162,172.283227,-9418.149754
42.660216,57.427742,191.425808,-9418.149754
42.660844,76.570323,114.855485,-9418.149754
42.661471,38.285162,172.283227,-9418.149754
42.662098,133.998066,172.283227,-9418.149754
42.662726,76.570323,114.855485,-9456.434915
42.663353,76.570323,153.140646,-9456.434915
42.663981,95.712904,114.855485,-9418.149754
42.664608,76.570323,114.855485,-9437.292334
42.665235,76.570323,153.140646,-9418.149754
42.665863,76.570323,114.855485,-9475.577496
42.666490,95.712904,114.855485,-9418.149754
42.667118,133.998066,153.140646,-9456.434915
42.667745,76.570323,153.140646,-9456.434915
42.668372,95.712904,153.140646,-9418.149754
42.669000,76.570323,114.855485,-9418.149754
42.669627,76.570323,172.283227,-9418.149754
42.670255,76.570323,114.855485,-9418.149754
42.670882,76.570323,114.855485,-9418.149754
42.671509,133.998066,210.568389,-9456.434915
42.672137,95.712904,114.855485,-9418.149754
42.672764,95.712904,114.855485,-9418.149754
42.673392,76.570323,114.855485,-9437.292334
42.674019,172.283227,133.998066,-9418.149754
42.674646,76.570323,114.855485,-9418.149754
42.675274,76.570323,114.855485,-9437.292334
42.675901,95.712904,114.855485,-9456.434915
42.676528,95.712904,172.283227,-9494.720077
42.677156,76.570323,172.283227,-9533.005238
42.677783,76.570323,210.568389,-9418.149754
42.678411,133.998066,114.855485,-9475.577496
42.679038,76.570323,229.710970,-9475.577496
42.679665,153.140646,133.998066,-9437.292334
42.680293,114.855485,133.998066,-9533.005238
42.680920,133.998066,210.568389,-9418.149754
42.681548,76.570323,114.855485,-9418.149754
42.682175,76.570323,153.140646,-9418.149754
42.682802,38.285162,114.855485,-9437.292334
42.683430,76.570323,114.855485,-9418.149754
42.684057,133.998066,114.855485,-9418.149754
42.684685,133.998066,114.855485,-9418.149754
42.685312,210.568389,133.998066,-9399.007173
42.685939,153.140646,153.140646,-9456.434915
42.686567,76.570323,114.855485,-9418.149754
42.687194,38.285162,114.855485,-9418.149754
42.687822,95.712904,114.855485,-9418.149754
42.688449,133.998066,191.425808,-9456.434915
42.689076,114.855485,76.570323,-9418.149754
42.689704,76.570323,114.855485,-9456.434915
42.690331,95.712904,95.712904,-9399.007173
42.690959,76.570323,114.855485,-9418.149754
42.691586,76.570323,114.855485,-9418.149754
42.692213,38.285162,153.140646,-9418.149754
42.692841,76.570323,114.855485,-9418.149754
42.693468,38.285162,114.855485,-9475.577496
42.694096,153.140646,153.140646,-9399.007173
42.694723,133.998066,133.998066,-9437.292334
42.695350,76.570323,153.140646,-9418.149754
42.695978,57.427742,95.712904,-9399.007173
42.696605,76.570323,114.855485,-9418.149754
42.697233,95.712904,95.712904,-9437.292334
42.697860,76.570323,172.283227,-9437.292334
42.698487,95.712904,153.140646,-9360.722011
42.699115,153.140646,133.998066,-9399.007173
42.699742,133.998066,210.568389,-9437.292334
42.700370,133.998066,114.855485,-9418.149754
42.700997,76.570323,172.283227,-9418.149754
42.701624,172.283227,172.283227,-9379.864592
42.702252,153.140646,133.998066,-9437.292334
42.702879,114.855485,133.998066,-9360.722011
42.703507,76.570323,114.855485,-9418.149754
42.704134,38.285162,172.283227,-9418.149754
42.704761,76.570323,153.140646,-9418.149754
42.705389,76.570323,210.568389,-9456.434915
42.706016,133.998066,191.425808,-9437.292334
42.706644,57.427742,114.855485,-9360.722011
42.707271,57.427742,95.712904,-9437.292334
42.707898,153.140646,133.998066,-9399.007173
42.708526,95.712904,133.998066,-9418.149754
42.709153,133.998066,114.855485,-9437.292334
42.709781,133.998066,114.855485,-9475.577496
42.710408,114.855485,95.712904,-9494.720077
42.711035,95.712904,133.998066,-9360.722011
42.711663,76.570323,114.855485,-9418.149754
42.712290,76.570323,114.855485,-9475.577496
42.712918,153.140646,172.283227,-9437.292334
42.713545,114.855485,95.712904,-9399.007173
42.714172,95.712904,172.283227,-9360.722011
42.714800,133.998066,210.568389,-9475.577496
42.715427,95.712904,95.712904,-9437.292334
42.716055,38.285162,191.425808,-9437.292334
42.716682,38.285162,191.425808,-9437.292334
42.717309,76.570323,114.855485,-9418.149754
42.717937,153.140646,153.140646,-9494.720077
42.718564,76.570323,172.283227,-9418.149754
42.719192,95.712904,172.283227,-9437.292334
42.719820,133.998066,172.283227,-9418.149754
42.720448,133.998066,114.855485,-9418.149754
42.721075,114.855485,95.712904,-9399.007173
42.721703,114.855485,76.570323,-9418.149754
42.722331,153.140646,210.568389,-9456.434915
42.722958,76.570323,153.140646,-9437.292334
42.723586,38.285162,153.140646,-9475.577496
42.724214,133.998066,114.855485,-9475.577496
42.724841,38.285162,210.568389,-9418.149754
42.725469,95.712904,114.855485,-9418.149754
42.726097,76.570323,114.855485,-9418.149754
42.726724,76.570323,114.855485,-9418.149754
42.727352,133.998066,210.568389,-9418.149754
42.727980,133.998066,172.283227,-9418.149754
42.728608,76.570323,114.855485,-9456.434915
42.729235,38.285162,114.855485,-9494.720077
42.729863,114.855485,95.712904,-9456.434915
42.730491,153.140646,133.998066,-9399.007173
42.731118,133.998066,153.140646,-9399.007173
42.731746,133.998066,114.855485,-9418.149754
42.732374,133.998066,153.140646,-9418.149754
42.733001,95.712904,153.140646,-9456.434915
42.733629,38.285162,114.855485,-9418.149754
42.734257,76.570323,76.570323,-9379.864592
42.734885,95.712904,133.998066,-9360.722011
42.735512,38.285162,114.855485,-9418.149754
42.736140,76.570323,210.568389,-9418.149754
42.736768,76.570323,172.283227,-9456.434915
42.737395,153.140646,133.998066,-9399.007173
42.738023,95.712904,95.712904,-9399.007173
42.738651,76.570323,153.140646,-9418.149754
42.739278,76.570323,114.855485,-9418.149754
42.739906,153.140646,133.998066,-9399.007173
42.740534,76.570323,191.425808,-9418.149754
42.741162,95.712904,95.712904,-9399.007173
42.741789,133.998066,210.568389,-9437.292334
42.742417,153.140646,133.998066,-9399.007173
42.743045,133.998066,76.570323,-9379.864592
42.743672,38.285162,114.855485,-9456.434915
42.744300,76.570323,114.855485,-9418.149754
42.744928,133.998066,114.855485,-9418.149754
42.745555,153.140646,133.998066,-9437.292334
42.746183,133.998066,191.425808,-9437.292334
42.746811,133.998066,153.140646,-9475.577496
42.747439,133.998066,114.855485,-9456.434915
42.748066,95.712904,114.855485,-9418.149754
42.748694,95.712904,133.998066,-9360.722011
42.749322,38.285162,114.855485,-9437.292334
42.749949,114.855485,133.998066,-9360.722011
42.750577,133.998066,114.855485,-9418.149754
42.751205,153.140646,153.140646,-9418.149754
42.751832,172.283227,95.712904,-9379.864592
42.752460,153.140646,133.998066,-9399.007173
42.753088,95.712904,114.855485,-9437.292334
42.753715,76.570323,114.855485,-9418.149754
42.754343,133.998066,114.855485,-9418.149754
42.754971,76.570323,172.283227,-9418.149754
42.755599,133.998066,210.568389,-9456.434915
42.756226,76.570323,172.283227,-9418.149754
42.756854,133.998066,133.998066,-9399.007173
42.757482,38.285162,153.140646,-9456.434915
42.758109,76.570323,191.425808,-9475.577496
42.758737,76.570323,114.855485,-9437.292334
42.759365,76.570323,172.283227,-9418.149754
42.759992,76.570323,153.140646,-9418.149754
42.760620,76.570323,114.855485,-9456.434915
42.761248,133.998066,153.140646,-9437.292334
42.761876,133.998066,114.855485,-9418.149754
42.762503,76.570323,191.425808,-9418.149754
42.763131,76.570323,114.855485,-9418.149754
42.763759,76.570323,114.855485,-9418.149754
42.764386,76.570323,114.855485,-9418.149754
42.765014,38.285162,114.855485,-9418.149754
42.765642,19.142581,114.855485,-9418.149754
42.766269,76.570323,114.855485,-9418.149754
42.766897,38.285162,114.855485,-9418.149754
42.767525,114.855485,95.712904,-9456.434915
42.768153,133.998066,133.998066,-9399.007173
42.768780,133.998066,210.568389,-9418.149754
42.769408,76.570323,114.855485,-9418.149754
42.770036,114.855485,191.425808,-9418.149754
42.770663,133.998066,153.140646,-9437.292334
42.771291,133.998066,133.998066,-9399.007173
42.771919,133.998066,114.855485,-9418.149754
42.772546,38.285162,95.712904,-9437.292334
42.773174,133.998066,210.568389,-9437.292334
42.773802,133.998066,114.855485,-9418.149754
42.774430,76.570323,153.140646,-9418.149754
42.775057,76.570323,114.855485,-9418.149754
42.775685,133.998066,114.855485,-9437.292334
42.776313,210.568389,133.998066,-9494.720077
42.776940,153.140646,133.998066,-9456.434915
42.777568,133.998066,114.855485,-9418.149754
42.778196,76.570323,114.855485,-9456.434915
42.778823,133.998066,114.855485,-9437.292334
42.779451,133.998066,114.855485,-9399.007173
42.780079,95.712904,114.855485,-9418.149754
42.780706,133.998066,114.855485,-9418.149754
42.781334,153.140646,133.998066,-9456.434915
42.781962,133.998066,172.283227,-9418.149754
42.782590,133.998066,114.855485,-9418.149754
42.783217,76.570323,172.283227,-9418.149754
42.783845,76.570323,114.855485,-9456.434915
42.784473,114.855485,172.283227,-9360.722011
42.785100,133.998066,114.855485,-9437.292334
42.785728,38.285162,153.140646,-9418.149754
42.786356,172.283227,76.570323,-9437.292334
42.786983,76.570323,172.283227,-9418.149754
42.787611,95.712904,153.140646,-9360.722011
42.788239,76.570323,133.998066,-9379.864592
42.788867,133.998066,114.855485,-9456.434915
42.789494,153.140646,133.998066,-9399.007173
42.790122,172.283227,172.283227,-9379.864592
42.790750,133.998066,114.855485,-9456.434915
42.791377,95.712904,95.712904,-9379.864592
42.792005,76.570323,114.855485,-9418.149754
42.792633,95.712904,114.855485,-9456.434915
42.793260,133.998066,114.855485,-9437.292334
42.793888,133.998066,114.855485,-9418.149754
42.794516,133.998066,114.855485,-9418.149754
42.795144,133.998066,133.998066,-9437.292334
42.795771,76.570323,114.855485,-9456.434915
42.796399,133.998066,114.855485,-9418.149754
42.797027,76.570323,114.855485,-9475.577496
42.797654,133.998066,114.855485,-9418.149754
42.798282,114.855485,172.283227,-9360.722011
42.798910,153.140646,172.283227,-9418.149754
42.799537,133.998066,172.283227,-9399.007173
42.800165,95.712904,95.712904,-9456.434915
42.800793,133.998066,210.568389,-9437.292334
42.801421,133.998066,210.568389,-9437.292334
42.802048,76.570323,114.855485,-9418.149754
42.802676,133.998066,153.140646,-9418.149754
42.803304,153.140646,133.998066,-9399.007173
42.803931,76.570323,114.855485,-9418.149754
42.804559,153.140646,133.998066,-9399.007173
42.805187,114.855485,57.427742,-9418.149754
42.805814,153.140646,172.283227,-9418.149754
42.806442,133.998066,153.140646,-9418.149754
42.807070,153.140646,153.140646,-9399.007173
42.807697,133.998066,210.568389,-9475.577496
42.808325,76.570323,114.855485,-9437.292334
42.808953,133.998066,172.283227,-9418.149754
42.809581,76.570323,172.283227,-9475.577496
42.810208,76.570323,153.140646,-9437.292334
42.810836,76.570323,114.855485,-9437.292334
42.811464,153.140646,172.283227,-9494.720077
42.812091,133.998066,114.855485,-9418.149754
42.812719,76.570323,114.855485,-9456.434915
42.813347,172.283227,76.570323,-9456.434915
42.813974,153.140646,133.998066,-9456.434915
42.814602,133.998066,210.568389,-9475.577496
42.815230,133.998066,114.855485,-9475.577496
42.815858,95.712904,95.712904,-9437.292334
42.816485,38.285162,114.855485,-9437.292334
42.817113,38.285162,172.283227,-9418.149754
42.817741,76.570323,114.855485,-9456.434915
42.818368,114.855485,153.140646,-9360.722011
42.818996,133.998066,153.140646,-9418.149754
42.819624,153.140646,248.853550,-9494.720077
42.820251,76.570323,153.140646,-9437.292334
42.820879,76.570323,114.855485,-9437.292334
42.821507,38.285162,153.140646,-9418.149754
42.822135,133.998066,114.855485,-9456.434915
42.822762,76.570323,153.140646,-9456.434915
42.823390,114.855485,95.712904,-9456.434915
42.824018,133.998066,191.425808,-9456.434915
42.824645,76.570323,172.283227,-9418.149754
42.825273,133.998066,114.855485,-9456.434915
42.825901,133.998066,114.855485,-9418.149754
42.826528,76.570323,114.855485,-9418.149754
42.827156,133.998066,133.998066,-9437.292334
42.827784,95.712904,114.855485,-9399.007173
42.828411,76.570323,114.855485,-9418.149754
42.829039,76.570323,153.140646,-9418.149754
42.829667,133.998066,172.283227,-9418.149754
42.830295,153.140646,133.998066,-9437.292334
42.830922,76.570323,114.855485,-9456.434915
42.831550,38.285162,114.855485,-9437.292334
42.832178,76.570323,172.283227,-9418.149754
42.832805,76.570323,114.855485,-9437.292334
42.833433,133.998066,114.855485,-9437.292334
42.834061,133.998066,114.855485,-9418.149754
42.834688,76.570323,172.283227,-9437.292334
42.835316,191.425808,133.998066,-9379.864592
42.835944,76.570323,114.855485,-9418.149754
42.836571,133.998066,114.855485,-9475.577496
42.837199,95.712904,153.140646,-9437.292334
42.837827,76.570323,114.855485,-9418.149754
42.838455,95.712904,114.855485,-9437.292334
42.839082,95.712904,114.855485,-9437.292334
42.839710,153.140646,172.283227,-9399.007173
42.840338,133.998066,114.855485,-9437.292334
42.840965,76.570323,114.855485,-9437.292334
42.841593,114.855485,95.712904,-9437.292334
42.842221,133.998066,114.855485,-9456.434915
42.842848,133.998066,114.855485,-9437.292334
42.843476,133.998066,153.140646,-9437.292334
42.844104,76.570323,114.855485,-9456.434915
42.844731,38.285162,172.283227,-9437.292334
42.845359,133.998066,114.855485,-9418.149754
42.845987,95.712904,153.140646,-9418.149754
42.846615,38.285162,210.568389,-9456.434915
42.847242,76.570323,153.140646,-9418.149754
42.847870,38.285162,114.855485,-9418.149754
42.848498,95.712904,95.712904,-9399.007173
42.849125,133.998066,114.855485,-9418.149754
42.849753,76.570323,114.855485,-9418.149754
42.850381,114.855485,76.570323,-9456.434915
42.851008,76.570323,114.855485,-9437.292334
42.851636,133.998066,191.425808,-9437.292334
42.852264,76.570323,172.283227,-9418.149754
42.852892,133.998066,210.568389,-9475.577496
42.853519,76.570323,210.568389,-9437.292334
42.854147,76.570323,172.283227,-9418.149754
42.854775,57.427742,153.140646,-9437.292334
42.855402,76.570323,172.283227,-9437.292334
42.856030,76.570323,114.855485,-9418.149754
42.856658,133.998066,133.998066,-9399.007173
42.857285,95.712904,133.998066,-9360.722011
42.857913,133.998066,172.283227,-9456.434915
42.858541,133.998066,153.140646,-9456.434915
42.859168,133.998066,172.283227,-9437.292334
42.859796,19.142581,210.568389,-9456.434915
42.860424,76.570323,114.855485,-9418.149754
42.861052,95.712904,133.998066,-9360.722011
42.861679,133.998066,114.855485,-9418.149754
42.862307,133.998066,229.710970,-9418.149754
42.862935,76.570323,210.568389,-9418.149754
42.863562,133.998066,114.855485,-9418.149754
42.864190,153.140646,133.998066,-9399.007173
42.864818,76.570323,114.855485,-9418.149754
42.865445,76.570323,114.855485,-9418.149754
42.866073,133.998066,114.855485,-9437.292334
42.866701,133.998066,114.855485,-9418.149754
42.867328,114.855485,133.998066,-9418.149754
42.867956,38.285162,114.855485,-9437.292334
42.868584,38.285162,114.855485,-9418.149754
42.869212,38.285162,114.855485,-9418.149754
42.869839,133.998066,114.855485,-9437.292334
42.870467,133.998066,172.283227,-9456.434915
42.871095,95.712904,153.140646,-9437.292334
42.871722,76.570323,114.855485,-9456.434915
42.872350,95.712904,95.712904,-9399.007173
42.872978,76.570323,114.855485,-9418.149754
42.873605,172.283227,95.712904,-9399.007173
42.874233,114.855485,95.712904,-9399.007173
42.874861,76.570323,210.568389,-9418.149754
42.875488,76.570323,114.855485,-9456.434915
42.876116,153.140646,172.283227,-9456.434915
42.876744,133.998066,114.855485,-9418.149754
42.877372,133.998066,114.855485,-9437.292334
42.877999,114.855485,76.570323,-9418.149754
42.878627,133.998066,114.855485,-9418.149754
42.879255,76.570323,114.855485,-9418.149754
42.879882,38.285162,114.855485,-9456.434915
42.880510,133.998066,172.283227,-9418.149754
42.881138,153.140646,172.283227,-9418.149754
42.881765,133.998066,210.568389,-9418.149754
42.882393,133.998066,133.998066,-9437.292334
42.883021,76.570323,153.140646,-9418.149754
42.883649,38.285162,172.283227,-9533.005238
42.884276,76.570323,153.140646,-9437.292334
42.884904,76.570323,153.140646,-9418.149754
42.885532,133.998066,210.568389,-9418.149754
42.886159,95.712904,95.712904,-9399.007173
42.886787,114.855485,133.998066,-9418.149754
42.887415,153.140646,133.998066,-9399.007173
42.888042,133.998066,172.283227,-9475.577496
42.888670,38.285162,172.283227,-9418.149754
42.889298,133.998066,114.855485,-9437.292334
42.889925,38.285162,114.855485,-9418.149754
42.890553,95.712904,133.998066,-9360.722011
42.891181,38.285162,153.140646,-9418.149754
42.891809,76.570323,114.855485,-9418.149754
42.892436,76.570323,114.855485,-9418.149754
42.893064,76.570323,114.855485,-9418.149754
42.893692,76.570323,114.855485,-9418.149754
42.894319,38.285162,210.568389,-9437.292334
42.894947,76.570323,114.855485,-9437.292334
42.895575,133.998066,114.855485,-9456.434915
42.896202,133.998066,172.283227,-9437.292334
42.896830,76.570323,172.283227,-9418.149754
42.897458,133.998066,114.855485,-9418.149754
42.898085,133.998066,114.855485,-9418.149754
42.898713,133.998066,172.283227,-9418.149754
42.899341,38.285162,172.283227,-9437.292334
42.899969,95.712904,114.855485,-9418.149754
42.900596,172.283227,172.283227,-9379.864592
42.901224,172.283227,210.568389,-9399.007173
42.901852,133.998066,172.283227,-9418.149754
42.902479,133.998066,114.855485,-9418.149754
42.903107,38.285162,114.855485,-9418.149754
42.903735,76.570323,114.855485,-9456.434915
42.904362,76.570323,95.712904,-9456.434915
42.904990,76.570323,114.855485,-9418.149754
42.905618,153.140646,172.283227,-9437.292334
42.906245,210.568389,191.425808,-9399.007173
42.906873,153.140646,133.998066,-9399.007173
42.907501,153.140646,133.998066,-9399.007173
42.908129,133.998066,114.855485,-9437.292334
42.908756,76.570323,114.855485,-9418.149754
42.909384,38.285162,172.283227,-9437.292334
42.910012,133.998066,153.140646,-9418.149754
42.910639,76.570323,114.855485,-9456.434915
42.911267,114.855485,133.998066,-9360.722011
42.911895,114.855485,95.712904,-9494.720077
42.912522,133.998066,114.855485,-9418.149754
42.913150,133.998066,114.855485,-9418.149754
42.913778,114.855485,133.998066,-9360.722011
42.914406,76.570323,114.855485,-9418.149754
42.915033,76.570323,114.855485,-9418.149754
42.915661,76.570323,153.140646,-9418.149754
42.916289,38.285162,114.855485,-9437.292334
42.916916,76.570323,153.140646,-9418.149754
42.917544,76.570323,114.855485,-9437.292334
42.918172,95.712904,133.998066,-9322.436850
42.918799,38.285162,114.855485,-9437.292334
42.919427,133.998066,133.998066,-9513.862658
42.920055,38.285162,114.855485,-9418.149754
42.920683,76.570323,172.283227,-9437.292334
42.921310,76.570323,114.855485,-9456.434915
42.921938,133.998066,114.855485,-9437.292334
42.922566,133.998066,114.855485,-9418.149754
42.923194,57.427742,95.712904,-9399.007173
42.923822,133.998066,114.855485,-9456.434915
42.924449,133.998066,172.283227,-9475.577496
42.925077,76.570323,114.855485,-9418.149754
42.925705,95.712904,153.140646,-9360.722011
42.926333,76.570323,114.855485,-9418.149754
42.926960,133.998066,172.283227,-9418.149754
42.927588,114.855485,114.855485,-9379.864592
42.928216,76.570323,172.283227,-9456.434915
42.928844,95.712904,95.712904,-9437.292334
42.929472,95.712904,114.855485,-9418.149754
42.930099,133.998066,133.998066,-9456.434915
42.930727,133.998066,153.140646,-9399.007173
42.931355,133.998066,114.855485,-9475.577496
42.931983,133.998066,133.998066,-9437.292334
42.932611,95.712904,114.855485,-9456.434915
42.933238,133.998066,114.855485,-9418.149754
42.933866,76.570323,114.855485,-9418.149754
42.934494,133.998066,114.855485,-9437.292334
42.935122,95.712904,95.712904,-9399.007173
42.935749,95.712904,172.283227,-9360.722011
42.936377,133.998066,114.855485,-9418.149754
42.937005,133.998066,114.855485,-9437.292334
42.937633,76.570323,114.855485,-9456.434915
42.938261,133.998066,114.855485,-9418.149754
42.938888,76.570323,153.140646,-9418.149754
42.939516,76.570323,76.570323,-9379.864592
42.940144,153.140646,133.998066,-9399.007173
42.940772,114.855485,95.712904,-9399.007173
42.941399,114.855485,210.568389,-9360.722011
42.942027,76.570323,114.855485,-9456.434915
42.942655,76.570323,153.140646,-9418.149754
42.943283,95.712904,95.712904,-9399.007173
42.943911,76.570323,153.140646,-9418.149754
42.944538,133.998066,114.855485,-9418.149754
42.945166,95.712904,95.712904,-9437.292334
42.945794,133.998066,114.855485,-9360.722011
42.946422,76.570323,114.855485,-9418.149754
42.947049,133.998066,210.568389,-9418.149754
42.947677,76.570323,172.283227,-9437.292334
42.948305,76.570323,114.855485,-9475.577496
42.948933,95.712904,95.712904,-9399.007173
42.949561,133.998066,114.855485,-9418.149754
42.950188,153.140646,191.425808,-9399.007173
42.950816,76.570323,114.855485,-9418.149754
42.951444,133.998066,114.855485,-9437.292334
42.952072,76.570323,114.855485,-9418.149754
42.952699,133.998066,153.140646,-9475.577496
42.953327,76.570323,114.855485,-9418.149754
42.953955,38.285162,114.855485,-9418.149754
42.954583,38.285162,210.568389,-9418.149754
42.955211,95.712904,210.568389,-9360.722011
42.955838,133.998066,114.855485,-9456.434915
42.956466,76.570323,114.855485,-9418.149754
42.957094,133.998066,153.140646,-9418.149754
42.957722,76.570323,114.855485,-9418.149754
42.958349,133.998066,172.283227,-9418.149754
42.958977,38.285162,114.855485,-9418.149754
42.959605,76.570323,114.855485,-9418.149754
42.960233,76.570323,114.855485,-9418.149754
42.960861,38.285162,153.140646,-9418.149754
42.961488,133.998066,133.998066,-9399.007173
42.962116,76.570323,153.140646,-9418.149754
42.962744,76.570323,114.855485,-9418.149754
42.963372,76.570323,114.855485,-9418.149754
42.963999,133.998066,114.855485,-9456.434915
42.964627,133.998066,172.283227,-9399.007173
42.965255,76.570323,114.855485,-9418.149754
42.965883,76.570323,191.425808,-9418.149754
42.966511,76.570323,114.855485,-9418.149754
42.967138,38.285162,133.998066,-9360.722011
42.967766,172.283227,76.570323,-9418.149754
42.968394,133.998066,114.855485,-9437.292334
42.969022,38.285162,114.855485,-9418.149754
42.969650,114.855485,133.998066,-9360.722011
42.970277,153.140646,153.140646,-9399.007173
42.970905,95.712904,133.998066,-9360.722011
42.971533,76.570323,153.140646,-9456.434915
42.972161,133.998066,114.855485,-9418.149754
42.972788,95.712904,210.568389,-9437.292334
42.973416,76.570323,153.140646,-9418.149754
42.974044,76.570323,210.568389,-9437.292334
42.974672,133.998066,153.140646,-9418.149754
42.975300,95.712904,114.855485,-9494.720077
42.975927,76.570323,114.855485,-9437.292334
42.976555,76.570323,114.855485,-9418.149754
42.977183,133.998066,114.855485,-9418.149754
42.977811,133.998066,114.855485,-9418.149754
42.978438,133.998066,114.855485,-9418.149754
42.979066,114.855485,95.712904,-9399.007173
42.979694,76.570323,153.140646,-9437.292334
42.980322,133.998066,114.855485,-9418.149754
42.980950,133.998066,114.855485,-9533.005238
42.981577,76.570323,191.425808,-9418.149754
42.982205,133.998066,114.855485,-9418.149754
42.982833,133.998066,153.140646,-9418.149754
42.983461,153.140646,133.998066,-9399.007173
42.984088,114.855485,95.712904,-9399.007173
42.984716,76.570323,210.568389,-9418.149754
42.985344,133.998066,114.855485,-9418.149754
42.985972,133.998066,133.998066,-9399.007173
42.986600,153.140646,114.855485,-9418.149754
42.987227,133.998066,172.283227,-9399.007173
42.987855,133.998066,114.855485,-9475.577496
42.988483,95.712904,95.712904,-9399.007173
42.989111,95.712904,95.712904,-9494.720077
42.989738,76.570323,114.855485,-9418.149754
42.990366,76.570323,172.283227,-9418.149754
42.990994,133.998066,210.568389,-9475.577496
42.991622,153.140646,114.855485,-9418.149754
42.992250,76.570323,114.855485,-9418.149754
42.992877,133.998066,114.855485,-9437.292334
42.993505,76.570323,114.855485,-9456.434915
42.994133,76.570323,172.283227,-9418.149754
42.994761,133.998066,153.140646,-9418.149754
42.995388,76.570323,114.855485,-9418.149754
42.996016,57.427742,133.998066,-9418.149754
42.996644,153.140646,133.998066,-9399.007173
42.997272,95.712904,133.998066,-9360.722011
42.997900,38.285162,114.855485,-9418.149754
42.998527,38.285162,114.855485,-9437.292334
42.999155,95.712904,114.855485,-9437.292334
42.999783,76.570323,114.855485,-9437.292334
43.000411,38.285162,114.855485,-9456.434915
43.001038,76.570323,153.140646,-9418.149754
43.001666,95.712904,95.712904,-9437.292334
43.002294,57.427742,114.855485,-9418.149754
43.002922,76.570323,114.855485,-9418.149754
43.003550,133.998066,114.855485,-9418.149754
43.004177,133.998066,133.998066,-9437.292334
43.004805,38.285162,210.568389,-9418.149754
43.005433,76.570323,153.140646,-9418.149754
43.006061,95.712904,114.855485,-9456.434915
43.006689,153.140646,114.855485,-9437.292334
43.007316,76.570323,114.855485,-9418.149754
43.007944,133.998066,114.855485,-9437.292334
43.008572,114.855485,95.712904,-9399.007173
43.009200,153.140646,133.998066,-9399.007173
43.009827,76.570323,172.283227,-9418.149754
43.010455,153.140646,210.568389,-9418.149754
43.011083,133.998066,153.140646,-9360.722011
43.011711,57.427742,210.568389,-9418.149754
43.012339,38.285162,153.140646,-9418.149754
43.012966,133.998066,114.855485,-9494.720077
43.013594,133.998066,133.998066,-9399.007173
43.014222,95.712904,172.283227,-9418.149754
43.014850,133.998066,133.998066,-9399.007173
43.015477,133.998066,172.283227,-9418.149754
43.016105,172.283227,76.570323,-9418.149754
43.016733,133.998066,133.998066,-9399.007173
43.017361,38.285162,114.855485,-9418.149754
43.017989,76.570323,172.283227,-9494.720077
43.018616,76.570323,210.568389,-9456.434915
43.019244,133.998066,191.425808,-9399.007173
43.019872,38.285162,114.855485,-9418.149754
43.020499,76.570323,153.140646,-9418.149754
43.021127,133.998066,114.855485,-9418.149754
43.021754,76.570323,114.855485,-9418.149754
43.022382,133.998066,172.283227,-9456.434915
43.023009,133.998066,153.140646,-9437.292334
43.023636,76.570323,172.283227,-9437.292334
43.024264,133.998066,153.140646,-9418.149754
43.024891,133.998066,210.568389,-9418.149754
43.025519,76.570323,210.568389,-9418.149754
43.026146,153.140646,172.283227,-9456.434915
43.026774,133.998066,153.140646,-9418.149754
43.027401,76.570323,172.283227,-9475.577496
43.028029,114.855485,76.570323,-9456.434915
43.028656,133.998066,172.283227,-9418.149754
43.029284,95.712904,114.855485,-9399.007173
43.029911,76.570323,114.855485,-9418.149754
43.030539,95.712904,172.283227,-9418.149754
43.031166,76.570323,153.140646,-9437.292334
43.031794,95.712904,95.712904,-9456.434915
43.032421,76.570323,114.855485,-9418.149754
43.033049,133.998066,114.855485,-9418.149754
43.033676,76.570323,114.855485,-9456.434915
43.034304,76.570323,153.140646,-9418.149754
43.034931,76.570323,172.283227,-9475.577496
43.035559,133.998066,172.283227,-9418.149754
43.036186,133.998066,153.140646,-9418.149754
43.036814,95.712904,153.140646,-9360.722011
43.037441,133.998066,114.855485,-9437.292334
43.038069,76.570323,114.855485,-9418.149754
43.038696,76.570323,172.283227,-9360.722011
43.039323,38.285162,172.283227,-9418.149754
43.039951,38.285162,114.855485,-9437.292334
43.040578,95.712904,114.855485,-9418.149754
43.041206,153.140646,133.998066,-9399.007173
43.041833,133.998066,133.998066,-9456.434915
43.042461,76.570323,114.855485,-9456.434915
43.043088,76.570323,172.283227,-9418.149754
43.043716,133.998066,114.855485,-9418.149754
43.044343,133.998066,114.855485,-9437.292334
43.044971,133.998066,114.855485,-9418.149754
43.045598,133.998066,114.855485,-9418.149754
43.046226,133.998066,153.140646,-9418.149754
43.046853,114.855485,95.712904,-9399.007173
43.047481,114.855485,95.712904,-9437.292334
43.048108,133.998066,133.998066,-9399.007173
43.048736,133.998066,153.140646,-9418.149754
43.049363,95.712904,153.140646,-9360.722011
43.049991,38.285162,191.425808,-9418.149754
43.050618,95.712904,229.710970,-9399.007173
