#time,accel_x,accel_y,accel_z
141.458107,133.998066,153.140646,-9418.149754
141.458735,133.998066,210.568389,-9418.149754
141.459363,114.855485,95.712904,-9399.007173
141.459992,114.855485,76.570323,-9418.149754
141.460620,133.998066,114.855485,-9418.149754
141.461248,76.570323,172.283227,-9418.149754
141.461876,76.570323,114.855485,-9456.434915
141.462504,133.998066,133.998066,-9437.292334
141.463133,76.570323,114.855485,-9418.149754
141.463761,76.570323,114.855485,-9456.434915
141.464389,95.712904,114.855485,-9437.292334
141.465017,76.570323,153.140646,-9456.434915
141.465645,153.140646,153.140646,-9456.434915
141.466274,153.140646,133.998066,-9437.292334
141.466902,76.570323,95.712904,-9399.007173
141.467530,76.570323,114.855485,-9418.149754
141.468158,76.570323,114.855485,-9475.577496
141.468786,133.998066,172.283227,-9437.292334
141.469415,153.140646,133.998066,-9399.007173
141.470043,133.998066,153.140646,-9418.149754
141.470671,133.998066,114.855485,-9418.149754
141.471299,133.998066,114.855485,-9418.149754
141.471927,133.998066,172.283227,-9418.149754
141.472556,133.998066,153.140646,-9418.149754
141.473184,76.570323,114.855485,-9494.720077
141.473812,38.285162,114.855485,-9456.434915
141.474440,76.570323,114.855485,-9418.149754
141.475068,38.285162,172.283227,-9456.434915
141.475697,133.998066,114.855485,-9456.434915
141.476325,114.855485,76.570323,-9456.434915
141.476953,95.712904,114.855485,-9418.149754
141.477581,114.855485,133.998066,-9456.434915
141.478209,114.855485,133.998066,-9360.722011
141.478838,133.998066,114.855485,-9437.292334
141.479466,38.285162,114.855485,-9418.149754
141.480094,76.570323,172.283227,-9418.149754
141.480722,38.285162,153.140646,-9456.434915
141.481350,153.140646,133.998066,-9399.007173
141.481979,133.998066,153.140646,-9399.007173
141.482607,153.140646,153.140646,-9399.007173
141.483235,76.570323,114.855485,-9418.149754
141.483863,76.570323,114.855485,-9418.149754
141.484491,95.712904,114.855485,-9418.149754
141.485120,114.855485,95.712904,-9399.007173
141.485748,38.285162,210.568389,-9456.434915
141.486376,133.998066,133.998066,-9399.007173
141.487004,133.998066,114.855485,-9418.149754
141.487632,133.998066,114.855485,-9418.149754
141.488261,133.998066,153.140646,-9437.292334
141.488889,153.140646,210.568389,-9399.007173
141.489517,95.712904,153.140646,-9360.722011
141.490145,95.712904,172.283227,-9418.149754
141.490773,133.998066,114.855485,-9456.434915
141.491402,133.998066,114.855485,-9418.149754
141.492030,76.570323,153.140646,-9418.149754
141.492658,38.285162,153.140646,-9456.434915
141.493286,38.285162,114.855485,-9437.292334
141.493914,95.712904,95.712904,-9399.007173
141.494543,76.570323,229.710970,-9437.292334
141.495171,133.998066,153.140646,-9418.149754
141.495799,133.998066,153.140646,-9418.149754
141.496427,133.998066,114.855485,-9456.434915
141.497055,153.140646,114.855485,-9418.149754
141.497684,76.570323,114.855485,-9456.434915
141.498312,153.140646,133.998066,-9456.434915
141.498940,133.998066,172.283227,-9418.149754
141.499568,133.998066,172.283227,-9418.149754
141.500196,95.712904,172.283227,-9360.722011
141.500825,76.570323,114.855485,-9437.292334
141.501453,76.570323,114.855485,-9418.149754
141.502081,133.998066,114.855485,-9437.292334
141.502709,133.998066,172.283227,-9494.720077
141.503337,95.712904,114.855485,-9456.434915
141.503966,172.283227,76.570323,-9418.149754
141.504594,95.712904,95.712904,-9456.434915
141.505222,76.570323,210.568389,-9418.149754
141.505850,38.285162,114.855485,-9437.292334
141.506478,95.712904,114.855485,-9418.149754
141.507107,114.855485,95.712904,-9399.007173
141.507735,95.712904,95.712904,-9399.007173
141.508363,76.570323,114.855485,-9494.720077
141.508991,133.998066,172.283227,-9533.005238
141.509620,133.998066,172.283227,-9456.434915
141.510248,76.570323,114.855485,-9418.149754
141.510876,76.570323,210.568389,-9418.149754
141.511504,172.283227,114.855485,-9379.864592
141.512132,133.998066,153.140646,-9418.149754
141.512761,153.140646,133.998066,-9399.007173
141.513389,133.998066,114.855485,-9418.149754
141.514017,133.998066,114.855485,-9456.434915
141.514645,76.570323,210.568389,-9437.292334
141.515273,76.570323,114.855485,-9456.434915
141.515902,76.570323,114.855485,-9437.292334
141.516529,95.712904,172.283227,-9437.292334
141.517157,76.570323,114.855485,-9437.292334
141.517784,76.570323,114.855485,-9494.720077
141.518412,76.570323,114.855485,-9494.720077
141.519040,76.570323,114.855485,-9437.292334
141.519667,133.998066,114.855485,-9437.292334
141.520295,76.570323,210.568389,-9418.149754
141.520923,133.998066,153.140646,-9533.005238
141.521550,133.998066,114.855485,-9437.292334
141.522178,153.140646,133.998066,-9399.007173
141.522805,38.285162,153.140646,-9456.434915
141.523433,38.285162,210.568389,-9418.149754
141.524061,133.998066,153.140646,-9456.434915
141.524688,153.140646,133.998066,-9437.292334
141.525316,133.998066,172.283227,-9456.434915
141.525943,153.140646,210.568389,-9456.434915
141.526571,76.570323,153.140646,-9418.149754
141.527199,76.570323,114.855485,-9437.292334
141.527826,76.570323,153.140646,-9418.149754
141.528454,57.427742,172.283227,-9475.577496
141.529082,38.285162,153.140646,-9437.292334
141.529709,76.570323,114.855485,-9418.149754
141.530337,76.570323,114.855485,-9418.149754
141.530964,133.998066,191.425808,-9418.149754
141.531592,76.570323,153.140646,-9418.149754
141.532220,76.570323,133.998066,-9360.722011
141.532847,76.570323,114.855485,-9418.149754
141.533475,76.570323,114.855485,-9494.720077
141.534103,76.570323,229.710970,-9418.149754
141.534730,133.998066,114.855485,-9437.292334
141.535358,76.570323,172.283227,-9437.292334
141.535985,133.998066,114.855485,-9437.292334
141.536613,57.427742,114.855485,-9418.149754
141.537241,153.140646,133.998066,-9456.434915
141.537868,133.998066,133.998066,-9399.007173
141.538496,95.712904,114.855485,-9418.149754
141.539124,76.570323,114.855485,-9437.292334
141.539751,95.712904,95.712904,-9399.007173
141.540379,114.855485,114.855485,-9379.864592
141.541006,76.570323,114.855485,-9418.149754
141.541634,76.570323,172.283227,-9418.149754
141.542262,76.570323,153.140646,-9437.292334
141.542889,95.712904,95.712904,-9399.007173
141.543517,57.427742,229.710970,-9456.434915
141.544145,38.285162,114.855485,-9418.149754
141.544772,133.998066,191.425808,-9418.149754
141.545400,133.998066,172.283227,-9418.149754
141.546027,76.570323,153.140646,-9418.149754
141.546655,76.570323,114.855485,-9418.149754
141.547283,133.998066,114.855485,-9418.149754
141.547910,133.998066,153.140646,-9418.149754
141.548538,133.998066,172.283227,-9418.149754
141.549165,76.570323,153.140646,-9456.434915
141.549793,133.998066,172.283227,-9437.292334
141.550421,76.570323,153.140646,-9418.149754
141.551048,76.570323,153.140646,-9418.149754
141.551676,114.855485,95.712904,-9399.007173
141.552304,38.285162,172.283227,-9437.292334
141.552931,57.427742,95.712904,-9399.007173
141.553559,153.140646,210.568389,-9399.007173
141.554186,133.998066,114.855485,-9418.149754
141.554814,114.855485,95.712904,-9456.434915
141.555442,95.712904,95.712904,-9456.434915
141.556069,76.570323,114.855485,-9437.292334
141.556697,76.570323,114.855485,-9418.149754
141.557325,133.998066,114.855485,-9437.292334
141.557952,133.998066,114.855485,-9418.149754
141.558580,133.998066,114.855485,-9456.434915
141.559207,95.712904,95.712904,-9399.007173
141.559835,76.570323,114.855485,-9418.149754
141.560463,133.998066,172.283227,-9418.149754
141.561090,133.998066,114.855485,-9418.149754
141.561718,153.140646,133.998066,-9399.007173
141.562346,153.140646,133.998066,-9456.434915
141.562973,153.140646,133.998066,-9456.434915
141.563601,133.998066,172.283227,-9456.434915
141.564228,133.998066,153.140646,-9437.292334
141.564856,133.998066,172.283227,-9437.292334
141.565484,76.570323,172.283227,-9437.292334
141.566111,133.998066,172.283227,-9437.292334
141.566739,76.570323,114.855485,-9418.149754
141.567367,133.998066,114.855485,-9418.149754
141.567994,95.712904,114.855485,-9475.577496
141.568622,76.570323,153.140646,-9475.577496
141.569249,38.285162,114.855485,-9418.149754
141.569877,133.998066,133.998066,-9399.007173
141.570505,76.570323,114.855485,-9418.149754
141.571132,114.855485,76.570323,-9418.149754
141.571760,133.998066,114.855485,-9418.149754
141.572387,133.998066,114.855485,-9418.149754
141.573015,95.712904,191.425808,-9360.722011
141.573643,133.998066,210.568389,-9399.007173
141.574270,76.570323,114.855485,-9418.149754
141.574898,133.998066,114.855485,-9456.434915
141.575526,57.427742,114.855485,-9456.434915
141.576153,95.712904,114.855485,-9418.149754
141.576781,133.998066,153.140646,-9475.577496
141.577408,38.285162,153.140646,-9456.434915
141.578036,133.998066,172.283227,-9418.149754
141.578664,76.570323,114.855485,-9437.292334
141.579291,133.998066,114.855485,-9418.149754
141.579919,76.570323,114.855485,-9418.149754
141.580547,153.140646,133.998066,-9399.007173
141.581174,153.140646,133.998066,-9399.007173
141.581802,76.570323,172.283227,-9437.292334
141.582429,133.998066,153.140646,-9418.149754
141.583057,133.998066,172.283227,-9418.149754
141.583685,153.140646,210.568389,-9437.292334
141.584312,133.998066,172.283227,-9456.434915
141.584940,133.998066,172.283227,-9456.434915
141.585568,76.570323,114.855485,-9456.434915
141.586195,38.285162,153.140646,-9418.149754
141.586823,76.570323,114.855485,-9456.434915
141.587450,76.570323,153.140646,-9437.292334
141.588078,210.568389,133.998066,-9399.007173
141.588706,172.283227,76.570323,-9418.149754
141.589333,133.998066,114.855485,-9418.149754
141.589961,76.570323,210.568389,-9418.149754
141.590589,153.140646,153.140646,-9456.434915
141.591216,133.998066,153.140646,-9418.149754
141.591844,95.712904,95.712904,-9399.007173
141.592471,172.283227,133.998066,-9418.149754
141.593099,133.998066,114.855485,-9437.292334
141.593727,38.285162,153.140646,-9418.149754
141.594354,76.570323,114.855485,-9437.292334
141.594982,76.570323,114.855485,-9418.149754
141.595609,57.427742,95.712904,-9437.292334
141.596237,38.285162,114.855485,-9418.149754
141.596865,133.998066,114.855485,-9418.149754
141.597492,114.855485,114.855485,-9379.864592
141.598120,76.570323,210.568389,-9437.292334
141.598748,153.140646,210.568389,-9399.007173
141.599375,153.140646,133.998066,-9437.292334
141.600003,76.570323,114.855485,-9456.434915
141.600630,57.427742,114.855485,-9399.007173
141.601258,133.998066,133.998066,-9399.007173
141.601886,153.140646,172.283227,-9399.007173
141.602513,133.998066,114.855485,-9418.149754
141.603141,153.140646,172.283227,-9456.434915
141.603769,38.285162,153.140646,-9418.149754
141.604396,76.570323,114.855485,-9437.292334
141.605024,76.570323,114.855485,-9494.720077
141.605651,153.140646,172.283227,-9399.007173
141.606279,133.998066,114.855485,-9437.292334
141.606907,114.855485,95.712904,-9399.007173
141.607534,153.140646,133.998066,-9456.434915
141.608162,133.998066,114.855485,-9418.149754
141.608790,57.427742,95.712904,-9399.007173
141.609417,133.998066,114.855485,-9418.149754
141.610045,133.998066,172.283227,-9418.149754
141.610672,133.998066,153.140646,-9456.434915
141.611300,133.998066,172.283227,-9437.292334
141.611928,133.998066,114.855485,-9418.149754
141.612555,133.998066,172.283227,-9494.720077
141.613183,133.998066,114.855485,-9418.149754
141.613810,76.570323,114.855485,-9418.149754
141.614438,114.855485,95.712904,-9456.434915
141.615066,95.712904,114.855485,-9418.149754
141.615693,95.712904,153.140646,-9418.149754
141.616321,133.998066,95.712904,-9456.434915
141.616948,114.855485,95.712904,-9399.007173
141.617576,133.998066,133.998066,-9437.292334
141.618203,133.998066,153.140646,-9437.292334
141.618831,133.998066,153.140646,-9418.149754
141.619458,133.998066,153.140646,-9494.720077
141.620085,133.998066,133.998066,-9399.007173
141.620713,133.998066,172.283227,-9418.149754
141.621340,95.712904,133.998066,-9360.722011
141.621968,133.998066,210.568389,-9437.292334
141.622595,153.140646,172.283227,-9456.434915
141.623223,133.998066,153.140646,-9418.149754
141.623850,76.570323,114.855485,-9418.149754
141.624477,95.712904,114.855485,-9418.149754
141.625105,76.570323,114.855485,-9475.577496
141.625732,76.570323,172.283227,-9456.434915
141.626360,76.570323,114.855485,-9360.722011
141.626987,95.712904,114.855485,-9418.149754
141.627614,76.570323,153.140646,-9418.149754
141.628242,133.998066,172.283227,-9418.149754
141.628869,114.855485,95.712904,-9399.007173
141.629497,133.998066,172.283227,-9475.577496
141.630124,38.285162,153.140646,-9418.149754
141.630752,133.998066,114.855485,-9437.292334
141.631379,76.570323,114.855485,-9437.292334
141.632006,95.712904,114.855485,-9399.007173
141.632634,76.570323,172.283227,-9418.149754
141.633261,133.998066,133.998066,-9399.007173
141.633889,95.712904,114.855485,-9437.292334
141.634516,114.855485,210.568389,-9456.434915
141.635143,133.998066,114.855485,-9418.149754
141.635771,133.998066,114.855485,-9418.149754
141.636398,133.998066,153.140646,-9437.292334
141.637026,114.855485,191.425808,-9379.864592
141.637653,210.568389,172.283227,-9437.292334
141.638280,153.140646,133.998066,-9399.007173
141.638908,133.998066,153.140646,-9418.149754
141.639535,133.998066,114.855485,-9418.149754
141.640163,114.855485,95.712904,-9399.007173
141.640790,133.998066,114.855485,-9456.434915
141.641418,114.855485,95.712904,-9475.577496
141.642045,76.570323,114.855485,-9456.434915
141.642672,95.712904,95.712904,-9399.007173
141.643300,38.285162,114.855485,-9418.149754
141.643927,153.140646,191.425808,-9456.434915
141.644555,133.998066,172.283227,-9418.149754
141.645182,95.712904,114.855485,-9418.149754
141.645809,76.570323,114.855485,-9437.292334
141.646437,133.998066,114.855485,-9456.434915
141.647064,133.998066,114.855485,-9494.720077
141.647692,172.283227,76.570323,-9418.149754
141.648319,153.140646,133.998066,-9456.434915
141.648946,153.140646,133.998066,-9399.007173
141.649574,133.998066,114.855485,-9418.149754
141.650201,153.140646,133.998066,-9399.007173
141.650829,133.998066,114.855485,-9418.149754
141.651456,133.998066,114.855485,-9418.149754
141.652084,133.998066,172.283227,-9418.149754
141.652711,153.140646,172.283227,-9399.007173
141.653338,153.140646,133.998066,-9399.007173
141.653966,76.570323,114.855485,-9418.149754
141.654593,57.427742,133.998066,-9360.722011
141.655221,38.285162,76.570323,-9399.007173
141.655848,38.285162,114.855485,-9360.722011
141.656475,76.570323,114.855485,-9360.722011
141.657103,114.855485,95.712904,-9399.007173
141.657730,172.283227,76.570323,-9418.149754
141.658358,76.570323,114.855485,-9456.434915
141.658985,114.855485,95.712904,-9399.007173
141.659613,133.998066,114.855485,-9418.149754
141.660240,95.712904,114.855485,-9399.007173
141.660867,133.998066,114.855485,-9437.292334
141.661495,76.570323,114.855485,-9418.149754
141.662122,95.712904,114.855485,-9360.722011
141.662750,38.285162,172.283227,-9475.577496
141.663377,76.570323,114.855485,-9418.149754
141.664004,76.570323,114.855485,-9418.149754
141.664632,76.570323,95.712904,-9399.007173
141.665259,57.427742,210.568389,-9418.149754
141.665887,38.285162,153.140646,-9418.149754
141.666514,133.998066,210.568389,-9456.434915
141.667141,95.712904,133.998066,-9360.722011
141.667769,76.570323,114.855485,-9399.007173
141.668396,153.140646,133.998066,-9399.007173
141.669024,133.998066,172.283227,-9437.292334
141.669651,153.140646,133.998066,-9399.007173
141.670279,76.570323,76.570323,-9379.864592
141.670906,133.998066,191.425808,-9475.577496
141.671533,153.140646,153.140646,-9437.292334
141.672161,76.570323,153.140646,-9456.434915
141.672788,95.712904,172.283227,-9533.005238
141.673416,133.998066,114.855485,-9418.149754
141.674043,133.998066,114.855485,-9418.149754
141.674670,133.998066,133.998066,-9399.007173
141.675298,19.142581,114.855485,-9437.292334
141.675925,76.570323,153.140646,-9437.292334
141.676553,76.570323,114.855485,-9437.292334
141.677180,76.570323,114.855485,-9456.434915
141.677808,38.285162,114.855485,-9437.292334
141.678435,57.427742,114.855485,-9456.434915
141.679062,95.712904,114.855485,-9418.149754
141.679690,133.998066,172.283227,-9418.149754
141.680317,153.140646,153.140646,-9456.434915
141.680945,76.570323,114.855485,-9456.434915
141.681572,133.998066,114.855485,-9418.149754
141.682199,95.712904,153.140646,-9360.722011
141.682827,95.712904,95.712904,-9399.007173
141.683454,57.427742,95.712904,-9399.007173
141.684082,133.998066,133.998066,-9399.007173
141.684709,114.855485,95.712904,-9399.007173
141.685336,133.998066,133.998066,-9399.007173
141.685964,76.570323,114.855485,-9437.292334
141.686591,76.570323,114.855485,-9418.149754
141.687219,172.283227,76.570323,-9437.292334
141.687846,95.712904,114.855485,-9418.149754
141.688474,114.855485,172.283227,-9360.722011
141.689101,76.570323,114.855485,-9475.577496
141.689728,95.712904,95.712904,-9494.720077
141.690356,95.712904,114.855485,-9513.862658
141.690983,133.998066,114.855485,-9418.149754
141.691611,133.998066,114.855485,-9456.434915
141.692238,114.855485,95.712904,-9399.007173
141.692865,153.140646,153.140646,-9456.434915
141.693493,133.998066,153.140646,-9456.434915
141.694120,133.998066,153.140646,-9418.149754
141.694748,133.998066,114.855485,-9418.149754
141.695375,76.570323,172.283227,-9418.149754
141.696002,114.855485,95.712904,-9399.007173
141.696630,38.285162,114.855485,-9418.149754
141.697257,19.142581,114.855485,-9418.149754
141.697885,95.712904,95.712904,-9437.292334
141.698512,133.998066,153.140646,-9399.007173
141.699140,38.285162,172.283227,-9418.149754
141.699767,133.998066,114.855485,-9437.292334
141.700394,95.712904,172.283227,-9418.149754
141.701022,133.998066,133.998066,-9399.007173
141.701649,133.998066,114.855485,-9475.577496
141.702277,153.140646,172.283227,-9437.292334
141.702904,76.570323,114.855485,-9456.434915
141.703531,133.998066,153.140646,-9418.149754
141.704159,133.998066,114.855485,-9456.434915
141.704786,76.570323,114.855485,-9418.149754
141.705414,76.570323,114.855485,-9456.434915
141.706041,76.570323,172.283227,-9475.577496
141.706669,57.427742,95.712904,-9456.434915
141.707296,95.712904,191.425808,-9360.722011
141.707923,95.712904,210.568389,-9399.007173
141.708551,76.570323,172.283227,-9418.149754
141.709178,95.712904,210.568389,-9360.722011
141.709806,133.998066,210.568389,-9418.149754
141.710433,133.998066,114.855485,-9418.149754
141.711060,153.140646,133.998066,-9437.292334
141.711688,76.570323,114.855485,-9418.149754
141.712315,76.570323,114.855485,-9533.005238
141.712943,153.140646,133.998066,-9437.292334
141.713570,76.570323,153.140646,-9437.292334
141.714197,133.998066,191.425808,-9456.434915
141.714825,172.283227,172.283227,-9379.864592
141.715452,133.998066,153.140646,-9418.149754
141.716080,76.570323,153.140646,-9418.149754
141.716707,76.570323,114.855485,-9475.577496
141.717335,133.998066,210.568389,-9475.577496
141.717962,95.712904,153.140646,-9418.149754
141.718589,76.570323,114.855485,-9418.149754
141.719217,95.712904,210.568389,-9418.149754
141.719844,76.570323,153.140646,-9418.149754
141.720472,38.285162,191.425808,-9437.292334
141.721099,133.998066,191.425808,-9437.292334
141.721726,38.285162,114.855485,-9418.149754
141.722354,76.570323,114.855485,-9418.149754
141.722981,133.998066,172.283227,-9418.149754
141.723608,133.998066,172.283227,-9456.434915
141.724236,38.285162,210.568389,-9456.434915
141.724863,153.140646,191.425808,-9456.434915
141.725490,76.570323,114.855485,-9418.149754
141.726117,95.712904,133.998066,-9360.722011
141.726745,153.140646,172.283227,-9494.720077
141.727372,76.570323,229.710970,-9437.292334
141.727999,76.570323,114.855485,-9418.149754
141.728626,133.998066,114.855485,-9437.292334
141.729254,133.998066,210.568389,-9418.149754
141.729881,133.998066,153.140646,-9456.434915
141.730508,114.855485,172.283227,-9360.722011
141.731135,133.998066,172.283227,-9456.434915
141.731763,114.855485,133.998066,-9360.722011
141.732390,133.998066,114.855485,-9418.149754
141.733017,133.998066,114.855485,-9418.149754
141.733645,133.998066,76.570323,-9379.864592
141.734272,114.855485,95.712904,-9399.007173
141.734899,76.570323,153.140646,-9379.864592
141.735526,76.570323,114.855485,-9437.292334
141.736154,76.570323,172.283227,-9418.149754
141.736781,76.570323,114.855485,-9456.434915
141.737408,114.855485,95.712904,-9399.007173
141.738035,153.140646,133.998066,-9399.007173
141.738663,133.998066,114.855485,-9418.149754
141.739290,133.998066,114.855485,-9418.149754
141.739917,133.998066,229.710970,-9437.292334
141.740545,133.998066,153.140646,-9418.149754
141.741172,133.998066,153.140646,-9399.007173
141.741799,172.283227,114.855485,-9379.864592
141.742426,114.855485,133.998066,-9418.149754
141.743054,76.570323,114.855485,-9437.292334
141.743681,76.570323,114.855485,-9437.292334
141.744308,76.570323,153.140646,-9456.434915
141.744935,76.570323,114.855485,-9418.149754
141.745563,76.570323,114.855485,-9418.149754
141.746190,76.570323,172.283227,-9418.149754
141.746817,76.570323,210.568389,-9456.434915
141.747445,114.855485,114.855485,-9399.007173
141.748072,76.570323,114.855485,-9418.149754
141.748699,133.998066,172.283227,-9418.149754
141.749326,76.570323,114.855485,-9418.149754
141.749954,133.998066,133.998066,-9399.007173
141.750581,95.712904,191.425808,-9360.722011
141.751208,133.998066,114.855485,-9418.149754
141.751835,76.570323,153.140646,-9418.149754
141.752463,95.712904,172.283227,-9418.149754
141.753090,133.998066,114.855485,-9437.292334
141.753717,95.712904,95.712904,-9494.720077
141.754344,76.570323,114.855485,-9456.434915
141.754972,133.998066,114.855485,-9418.149754
141.755599,133.998066,76.570323,-9399.007173
141.756226,133.998066,210.568389,-9418.149754
141.756854,133.998066,114.855485,-9418.149754
141.757481,95.712904,114.855485,-9418.149754
141.758108,76.570323,114.855485,-9418.149754
141.758735,114.855485,153.140646,-9360.722011
141.759363,133.998066,114.855485,-9418.149754
141.759990,133.998066,114.855485,-9418.149754
141.760617,76.570323,114.855485,-9418.149754
141.761244,76.570323,114.855485,-9418.149754
141.761872,133.998066,114.855485,-9418.149754
141.762499,38.285162,114.855485,-9418.149754
141.763126,114.855485,95.712904,-9494.720077
141.763754,133.998066,114.855485,-9418.149754
141.764381,133.998066,114.855485,-9418.149754
141.765008,76.570323,172.283227,-9418.149754
141.765635,95.712904,133.998066,-9418.149754
141.766263,76.570323,114.855485,-9360.722011
141.766890,38.285162,153.140646,-9418.149754
141.767517,95.712904,210.568389,-9418.149754
141.768144,133.998066,114.855485,-9418.149754
141.768772,133.998066,172.283227,-9437.292334
141.769399,76.570323,114.855485,-9437.292334
141.770026,76.570323,114.855485,-9475.577496
141.770654,133.998066,76.570323,-9399.007173
141.771281,95.712904,114.855485,-9418.149754
141.771908,38.285162,191.425808,-9437.292334
141.772535,76.570323,114.855485,-9456.434915
141.773163,76.570323,153.140646,-9456.434915
141.773790,114.855485,153.140646,-9360.722011
141.774417,76.570323,114.855485,-9418.149754
141.775044,57.427742,133.998066,-9360.722011
141.775672,95.712904,76.570323,-9456.434915
141.776299,38.285162,114.855485,-9456.434915
141.776926,57.427742,95.712904,-9456.434915
141.777553,76.570323,95.712904,-9437.292334
141.778181,133.998066,172.283227,-9418.149754
141.778808,133.998066,114.855485,-9418.149754
141.779435,133.998066,172.283227,-9418.149754
141.780063,95.712904,191.425808,-9418.149754
141.780690,95.712904,133.998066,-9360.722011
141.781317,95.712904,153.140646,-9456.434915
141.781944,76.570323,114.855485,-9418.149754
141.782572,95.712904,172.283227,-9418.149754
141.783199,133.998066,114.855485,-9437.292334
141.783826,133.998066,153.140646,-9418.149754
141.784453,76.570323,153.140646,-9494.720077
141.785081,133.998066,114.855485,-9418.149754
141.785708,133.998066,153.140646,-9418.149754
141.786335,38.285162,172.283227,-9418.149754
141.786963,133.998066,114.855485,-9456.434915
141.787590,153.140646,153.140646,-9399.007173
141.788217,133.998066,172.283227,-9418.149754
141.788844,172.283227,210.568389,-9379.864592
141.789472,133.998066,114.855485,-9418.149754
141.790099,95.712904,57.427742,-9399.007173
141.790726,133.998066,172.283227,-9418.149754
141.791353,76.570323,114.855485,-9418.149754
141.791981,76.570323,172.283227,-9418.149754
141.792608,95.712904,114.855485,-9418.149754
141.793235,172.283227,172.283227,-9379.864592
141.793863,95.712904,114.855485,-9418.149754
141.794490,76.570323,114.855485,-9437.292334
141.795117,95.712904,95.712904,-9399.007173
141.795744,76.570323,172.283227,-9418.149754
141.796372,76.570323,172.283227,-9437.292334
141.796999,76.570323,114.855485,-9418.149754
141.797626,76.570323,114.855485,-9418.149754
141.798253,76.570323,114.855485,-9418.149754
141.798881,76.570323,153.140646,-9418.149754
141.799508,76.570323,114.855485,-9437.292334
141.800135,153.140646,153.140646,-9399.007173
141.800762,95.712904,172.283227,-9418.149754
141.801390,153.140646,133.998066,-9399.007173
141.802017,76.570323,114.855485,-9418.149754
141.802644,76.570323,133.998066,-9456.434915
141.803272,95.712904,114.855485,-9418.149754
141.803899,76.570323,114.855485,-9418.149754
141.804526,76.570323,153.140646,-9475.577496
141.805153,95.712904,172.283227,-9475.577496
141.805781,133.998066,172.283227,-9437.292334
141.806408,133.998066,153.140646,-9418.149754
141.807035,133.998066,114.855485,-9418.149754
141.807662,133.998066,114.855485,-9418.149754
141.808290,153.140646,172.283227,-9399.007173
141.808917,133.998066,114.855485,-9418.149754
141.809544,76.570323,114.855485,-9418.149754
141.810172,133.998066,153.140646,-9418.149754
141.810799,153.140646,191.425808,-9399.007173
141.811426,57.427742,95.712904,-9399.007173
141.812053,76.570323,114.855485,-9418.149754
141.812681,133.998066,210.568389,-9418.149754
141.813308,114.855485,172.283227,-9533.005238
141.813935,133.998066,133.998066,-9399.007173
141.814562,133.998066,172.283227,-9456.434915
141.815190,76.570323,153.140646,-9418.149754
141.815817,133.998066,153.140646,-9418.149754
141.816444,95.712904,133.998066,-9360.722011
141.817072,95.712904,210.568389,-9475.577496
141.817699,153.140646,133.998066,-9437.292334
141.818326,133.998066,114.855485,-9437.292334
141.818953,76.570323,114.855485,-9475.577496
141.819581,76.570323,114.855485,-9418.149754
141.820208,133.998066,172.283227,-9418.149754
141.820835,76.570323,172.283227,-9418.149754
141.821462,133.998066,114.855485,-9418.149754
141.822090,76.570323,172.283227,-9437.292334
141.822717,76.570323,114.855485,-9475.577496
141.823345,38.285162,172.283227,-9456.434915
141.823972,57.427742,172.283227,-9456.434915
141.824600,95.712904,95.712904,-9399.007173
141.825228,114.855485,95.712904,-9475.577496
141.825855,153.140646,133.998066,-9399.007173
141.826483,133.998066,229.710970,-9437.292334
141.827110,133.998066,114.855485,-9418.149754
141.827738,133.998066,114.855485,-9418.149754
141.828366,153.140646,172.283227,-9399.007173
141.828993,114.855485,76.570323,-9418.149754
141.829621,76.570323,210.568389,-9418.149754
141.830248,133.998066,114.855485,-9418.149754
141.830876,133.998066,114.855485,-9456.434915
141.831504,133.998066,153.140646,-9418.149754
141.832131,153.140646,153.140646,-9399.007173
141.832759,133.998066,172.283227,-9418.149754
141.833386,133.998066,133.998066,-9494.720077
141.834014,76.570323,114.855485,-9418.149754
141.834642,114.855485,95.712904,-9437.292334
141.835269,114.855485,95.712904,-9399.007173
141.835897,95.712904,133.998066,-9360.722011
141.836524,76.570323,114.855485,-9418.149754
141.837152,76.570323,172.283227,-9418.149754
141.837780,133.998066,133.998066,-9456.434915
141.838407,76.570323,172.283227,-9418.149754
141.839035,133.998066,114.855485,-9418.149754
141.839662,95.712904,133.998066,-9360.722011
141.840290,76.570323,114.855485,-9456.434915
141.840918,76.570323,114.855485,-9437.292334
141.841545,76.570323,114.855485,-9418.149754
141.842173,133.998066,153.140646,-9437.292334
141.842800,38.285162,153.140646,-9418.149754
141.843428,76.570323,172.283227,-9437.292334
141.844056,95.712904,172.283227,-9360.722011
141.844683,95.712904,210.568389,-9418.149754
141.845311,76.570323,114.855485,-9418.149754
141.845938,133.998066,114.855485,-9418.149754
141.846566,153.140646,191.425808,-9456.434915
141.847194,76.570323,133.998066,-9437.292334
141.847821,76.570323,114.855485,-9437.292334
141.848449,76.570323,172.283227,-9437.292334
141.849076,133.998066,172.283227,-9437.292334
141.849704,57.427742,114.855485,-9437.292334
141.850332,133.998066,153.140646,-9456.434915
141.850959,133.998066,114.855485,-9494.720077
141.851587,76.570323,114.855485,-9418.149754
141.852214,153.140646,172.283227,-9399.007173
141.852842,153.140646,153.140646,-9399.007173
141.853470,133.998066,153.140646,-9418.149754
141.854097,133.998066,114.855485,-9437.292334
141.854725,76.570323,114.855485,-9456.434915
141.855352,133.998066,153.140646,-9418.149754
141.855980,38.285162,210.568389,-9418.149754
141.856608,76.570323,172.283227,-9456.434915
141.857235,133.998066,153.140646,-9418.149754
141.857863,95.712904,114.855485,-9456.434915
141.858490,95.712904,114.855485,-9418.149754
141.859118,76.570323,114.855485,-9456.434915
141.859746,133.998066,114.855485,-9418.149754
141.860373,133.998066,114.855485,-9418.149754
141.861001,133.998066,114.855485,-9456.434915
141.861628,133.998066,133.998066,-9399.007173
141.862256,133.998066,114.855485,-9418.149754
141.862884,133.998066,133.998066,-9399.007173
141.863511,95.712904,114.855485,-9475.577496
141.864139,57.427742,133.998066,-9533.005238
141.864766,95.712904,133.998066,-9418.149754
141.865394,133.998066,114.855485,-9418.149754
141.866022,76.570323,114.855485,-9475.577496
141.866649,76.570323,191.425808,-9418.149754
141.867277,133.998066,210.568389,-9456.434915
141.867904,76.570323,114.855485,-9437.292334
141.868532,95.712904,114.855485,-9456.434915
141.869160,76.570323,153.140646,-9418.149754
141.869787,76.570323,114.855485,-9418.149754
141.870415,38.285162,114.855485,-9533.005238
141.871042,95.712904,95.712904,-9399.007173
141.871670,95.712904,153.140646,-9360.722011
141.872298,133.998066,153.140646,-9418.149754
141.872925,133.998066,172.283227,-9418.149754
141.873553,133.998066,172.283227,-9418.149754
141.874180,133.998066,172.283227,-9456.434915
141.874808,153.140646,133.998066,-9399.007173
141.875436,133.998066,114.855485,-9418.149754
141.876063,95.712904,95.712904,-9437.292334
141.876691,95.712904,114.855485,-9456.434915
141.877318,133.998066,210.568389,-9418.149754
141.877946,133.998066,114.855485,-9494.720077
141.878574,76.570323,114.855485,-9418.149754
141.879201,76.570323,114.855485,-9456.434915
141.879829,76.570323,114.855485,-9475.577496
141.880456,38.285162,153.140646,-9418.149754
141.881084,153.140646,191.425808,-9399.007173
141.881712,153.140646,133.998066,-9399.007173
141.882339,133.998066,114.855485,-9437.292334
141.882967,133.998066,114.855485,-9437.292334
141.883594,114.855485,133.998066,-9360.722011
141.884222,114.855485,76.570323,-9437.292334
141.884850,133.998066,172.283227,-9418.149754
141.885477,95.712904,114.855485,-9437.292334
141.886105,133.998066,114.855485,-9456.434915
141.886732,133.998066,133.998066,-9437.292334
141.887360,114.855485,76.570323,-9418.149754
141.887988,133.998066,172.283227,-9418.149754
141.888615,76.570323,114.855485,-9418.149754
141.889243,76.570323,172.283227,-9437.292334
141.889870,76.570323,114.855485,-9437.292334
141.890498,95.712904,114.855485,-9437.292334
141.891125,133.998066,153.140646,-9418.149754
141.891753,38.285162,114.855485,-9418.149754
141.892381,76.570323,114.855485,-9418.149754
141.893008,76.570323,114.855485,-9437.292334
141.893636,95.712904,114.855485,-9418.149754
141.894263,95.712904,133.998066,-9360.722011
141.894891,76.570323,114.855485,-9418.149754
141.895519,38.285162,153.140646,-9437.292334
141.896146,38.285162,229.710970,-9475.577496
141.896774,76.570323,153.140646,-9418.149754
141.897401,95.712904,133.998066,-9360.722011
141.898029,114.855485,95.712904,-9399.007173
141.898657,133.998066,114.855485,-9418.149754
141.899284,76.570323,133.998066,-9418.149754
141.899912,76.570323,172.283227,-9418.149754
141.900539,133.998066,133.998066,-9399.007173
141.901167,133.998066,172.283227,-9437.292334
141.901795,57.427742,133.998066,-9418.149754
141.902422,76.570323,153.140646,-9418.149754
141.903050,133.998066,133.998066,-9399.007173
141.903677,76.570323,191.425808,-9418.149754
141.904305,133.998066,114.855485,-9418.149754
141.904933,133.998066,114.855485,-9437.292334
141.905560,153.140646,133.998066,-9399.007173
141.906188,76.570323,114.855485,-9475.577496
141.906815,76.570323,114.855485,-9437.292334
141.907443,76.570323,114.855485,-9418.149754
141.908071,76.570323,114.855485,-9418.149754
141.908698,76.570323,172.283227,-9418.149754
141.909326,153.140646,133.998066,-9399.007173
141.909953,133.998066,114.855485,-9456.434915
141.910581,172.283227,153.140646,-9379.864592
141.911209,76.570323,114.855485,-9418.149754
141.911836,114.855485,210.568389,-9379.864592
141.912464,38.285162,172.283227,-9437.292334
141.913091,114.855485,133.998066,-9360.722011
141.913719,76.570323,114.855485,-9456.434915
141.914347,114.855485,133.998066,-9360.722011
141.914974,95.712904,95.712904,-9399.007173
141.915602,95.712904,133.998066,-9360.722011
141.916229,95.712904,114.855485,-9399.007173
141.916857,153.140646,133.998066,-9399.007173
141.917485,153.140646,133.998066,-9456.434915
141.918112,133.998066,153.140646,-9437.292334
141.918740,133.998066,153.140646,-9418.149754
141.919367,76.570323,114.855485,-9418.149754
141.919995,76.570323,114.855485,-9475.577496
141.920623,133.998066,153.140646,-9418.149754
141.921250,133.998066,172.283227,-9456.434915
141.921878,95.712904,114.855485,-9437.292334
141.922505,133.998066,114.855485,-9475.577496
141.923133,76.570323,114.855485,-9456.434915
141.923760,133.998066,172.283227,-9437.292334
141.924387,76.570323,114.855485,-9475.577496
141.925014,95.712904,172.283227,-9475.577496
141.925641,95.712904,153.140646,-9475.577496
141.926269,76.570323,153.140646,-9475.577496
141.926896,153.140646,153.140646,-9399.007173
141.927523,153.140646,133.998066,-9399.007173
141.928150,76.570323,114.855485,-9456.434915
141.928777,95.712904,95.712904,-9399.007173
141.929405,95.712904,114.855485,-9475.577496
141.930032,38.285162,153.140646,-9418.149754
141.930659,57.427742,95.712904,-9399.007173
141.931286,95.712904,95.712904,-9456.434915
141.931914,57.427742,95.712904,-9494.720077
141.932541,76.570323,114.855485,-9475.577496
141.933168,114.855485,172.283227,-9360.722011
141.933795,38.285162,114.855485,-9437.292334
141.934422,76.570323,172.283227,-9418.149754
141.935050,76.570323,153.140646,-9418.149754
141.935677,95.712904,133.998066,-9379.864592
141.936304,76.570323,114.855485,-9456.434915
141.936931,38.285162,114.855485,-9418.149754
141.937558,153.140646,133.998066,-9437.292334
141.938186,133.998066,133.998066,-9379.864592
141.938813,133.998066,172.283227,-9418.149754
141.939440,172.283227,114.855485,-9379.864592
141.940067,76.570323,172.283227,-9418.149754
141.940694,76.570323,153.140646,-9456.434915
141.941322,133.998066,114.855485,-9418.149754
141.941949,76.570323,114.855485,-9456.434915
141.942576,95.712904,114.855485,-9418.149754
141.943203,76.570323,114.855485,-9437.292334
141.943830,114.855485,95.712904,-9399.007173
141.944458,95.712904,153.140646,-9418.149754
141.945085,76.570323,172.283227,-9418.149754
141.945712,76.570323,114.855485,-9437.292334
141.946339,133.998066,114.855485,-9437.292334
141.946967,76.570323,114.855485,-9418.149754
141.947594,133.998066,114.855485,-9437.292334
141.948221,210.568389,133.998066,-9399.007173
141.948848,114.855485,95.712904,-9437.292334
141.949475,76.570323,114.855485,-9418.149754
141.950103,153.140646,153.140646,-9418.149754
141.950730,114.855485,133.998066,-9360.722011
141.951357,133.998066,133.998066,-9399.007173
141.951984,76.570323,172.283227,-9418.149754
141.952611,133.998066,210.568389,-9418.149754
141.953239,133.998066,114.855485,-9418.149754
141.953866,133.998066,153.140646,-9456.434915
141.954493,133.998066,172.283227,-9456.434915
141.955120,133.998066,153.140646,-9437.292334
141.955747,133.998066,133.998066,-9399.007173
141.956375,133.998066,153.140646,-9418.149754
141.957002,76.570323,114.855485,-9456.434915
141.957629,76.570323,114.855485,-9418.149754
141.958256,133.998066,172.283227,-9418.149754
141.958883,76.570323,114.855485,-9437.292334
141.959511,133.998066,153.140646,-9456.434915
141.960138,133.998066,210.568389,-9418.149754
141.960765,95.712904,95.712904,-9399.007173
141.961392,133.998066,133.998066,-9456.434915
141.962020,114.855485,172.283227,-9456.434915
141.962647,153.140646,133.998066,-9494.720077
141.963274,95.712904,114.855485,-9418.149754
141.963901,76.570323,114.855485,-9418.149754
141.964528,76.570323,210.568389,-9456.434915
141.965156,133.998066,133.998066,-9399.007173
141.965783,95.712904,95.712904,-9437.292334
141.966410,133.998066,153.140646,-9418.149754
141.967037,76.570323,114.855485,-9418.149754
141.967664,133.998066,210.568389,-9418.149754
141.968292,38.285162,191.425808,-9437.292334
141.968919,57.427742,210.568389,-9418.149754
141.969546,133.998066,114.855485,-9418.149754
141.970173,76.570323,153.140646,-9360.722011
141.970800,153.140646,133.998066,-9399.007173
141.971428,76.570323,114.855485,-9418.149754
141.972055,57.427742,114.855485,-9399.007173
141.972682,114.855485,133.998066,-9360.722011
141.973309,57.427742,114.855485,-9418.149754
141.973936,38.285162,114.855485,-9418.149754
141.974564,95.712904,133.998066,-9360.722011
141.975191,76.570323,114.855485,-9456.434915
141.975818,76.570323,153.140646,-9418.149754
141.976445,95.712904,114.855485,-9418.149754
141.977073,133.998066,153.140646,-9360.722011
141.977700,38.285162,114.855485,-9418.149754
141.978327,76.570323,114.855485,-9418.149754
141.978954,133.998066,114.855485,-9456.434915
141.979581,133.998066,114.855485,-9456.434915
141.980209,133.998066,114.855485,-9418.149754
141.980836,133.998066,114.855485,-9437.292334
141.981463,133.998066,114.855485,-9418.149754
141.982090,76.570323,114.855485,-9437.292334
141.982717,38.285162,172.283227,-9418.149754
141.983345,133.998066,114.855485,-9418.149754
141.983972,76.570323,114.855485,-9418.149754
141.984599,114.855485,133.998066,-9360.722011
141.985226,133.998066,172.283227,-9418.149754
141.985853,153.140646,114.855485,-9418.149754
141.986481,153.140646,133.998066,-9399.007173
141.987108,76.570323,153.140646,-9418.149754
141.987735,38.285162,114.855485,-9418.149754
141.988362,133.998066,210.568389,-9437.292334
141.988989,133.998066,114.855485,-9418.149754
141.989617,95.712904,114.855485,-9456.434915
141.990244,95.712904,133.998066,-9360.722011
141.990871,133.998066,114.855485,-9418.149754
141.991498,153.140646,114.855485,-9437.292334
141.992126,133.998066,133.998066,-9399.007173
141.992753,133.998066,114.855485,-9418.149754
141.993380,153.140646,133.998066,-9399.007173
141.994007,133.998066,153.140646,-9418.149754
141.994634,133.998066,114.855485,-9418.149754
141.995262,153.140646,153.140646,-9456.434915
141.995889,76.570323,114.855485,-9418.149754
141.996516,133.998066,172.283227,-9418.149754
141.997143,133.998066,114.855485,-9418.149754
141.997770,38.285162,114.855485,-9418.149754
141.998398,38.285162,114.855485,-9418.149754
141.999025,133.998066,114.855485,-9456.434915
141.999652,133.998066,153.140646,-9418.149754
142.000279,38.285162,172.283227,-9418.149754
142.000906,133.998066,133.998066,-9437.292334
142.001534,133.998066,114.855485,-9418.149754
142.002161,76.570323,114.855485,-9494.720077
142.002788,133.998066,114.855485,-9418.149754
142.003415,153.140646,133.998066,-9399.007173
142.004042,95.712904,95.712904,-9399.007173
142.004670,133.998066,172.283227,-9418.149754
142.005297,57.427742,95.712904,-9399.007173
142.005924,133.998066,114.855485,-9418.149754
142.006551,133.998066,114.855485,-9475.577496
142.007179,114.855485,95.712904,-9399.007173
142.007806,76.570323,172.283227,-9475.577496
142.008433,76.570323,114.855485,-9456.434915
142.009060,38.285162,114.855485,-9475.577496
142.009687,38.285162,114.855485,-9418.149754
142.010315,133.998066,114.855485,-9418.149754
142.010942,133.998066,114.855485,-9418.149754
142.011569,76.570323,114.855485,-9418.149754
142.012196,76.570323,114.855485,-9418.149754
142.012823,76.570323,153.140646,-9418.149754
142.013451,133.998066,114.855485,-9418.149754
142.014078,133.998066,114.855485,-9456.434915
142.014705,133.998066,114.855485,-9418.149754
142.015332,95.712904,95.712904,-9456.434915
142.015959,114.855485,95.712904,-9399.007173
142.016587,133.998066,172.283227,-9475.577496
142.017214,38.285162,191.425808,-9418.149754
142.017841,38.285162,153.140646,-9418.149754
142.018468,57.427742,95.712904,-9456.434915
142.019095,114.855485,229.710970,-9399.007173
142.019723,76.570323,114.855485,-9418.149754
142.020350,76.570323,114.855485,-9418.149754
142.020977,95.712904,95.712904,-9399.007173
142.021604,76.570323,114.855485,-9418.149754
142.022232,114.855485,95.712904,-9399.007173
142.022859,153.140646,114.855485,-9418.149754
142.023486,76.570323,114.855485,-9418.149754
142.024113,95.712904,95.712904,-9399.007173
142.024740,95.712904,114.855485,-9418.149754
142.025367,76.570323,153.140646,-9475.577496
142.025994,38.285162,114.855485,-9475.577496
142.026621,133.998066,114.855485,-9418.149754
142.027248,133.998066,114.855485,-9437.292334
142.027876,133.998066,114.855485,-9456.434915
142.028503,133.998066,114.855485,-9418.149754
142.029130,133.998066,114.855485,-9437.292334
142.029757,57.427742,191.425808,-9475.577496
142.030384,76.570323,114.855485,-9475.577496
142.031011,76.570323,172.283227,-9494.720077
142.031638,153.140646,133.998066,-9399.007173
142.032265,95.712904,114.855485,-9418.149754
142.032892,114.855485,191.425808,-9418.149754
142.033520,133.998066,114.855485,-9418.149754
142.034147,133.998066,114.855485,-9418.149754
142.034774,133.998066,114.855485,-9418.149754
142.035401,76.570323,114.855485,-9418.149754
142.036028,133.998066,114.855485,-9437.292334
142.036655,95.712904,133.998066,-9360.722011
142.037282,76.570323,114.855485,-9456.434915
142.037909,133.998066,210.568389,-9456.434915
142.038536,76.570323,114.855485,-9418.149754
142.039163,76.570323,114.855485,-9418.149754
142.039791,133.998066,153.140646,-9418.149754
142.040418,57.427742,133.998066,-9341.579430
142.041045,76.570323,114.855485,-9418.149754
142.041672,133.998066,210.568389,-9418.149754
142.042299,76.570323,153.140646,-9418.149754
142.042926,76.570323,153.140646,-9418.149754
142.043553,76.570323,210.568389,-9418.149754
142.044180,133.998066,114.855485,-9418.149754
142.044807,133.998066,114.855485,-9456.434915
142.045434,76.570323,114.855485,-9418.149754
142.046062,133.998066,114.855485,-9494.720077
142.046689,38.285162,172.283227,-9418.149754
142.047316,38.285162,172.283227,-9418.149754
142.047943,38.285162,114.855485,-9418.149754
142.048570,133.998066,172.283227,-9456.434915
142.049197,114.855485,153.140646,-9379.864592
142.049824,76.570323,114.855485,-9456.434915
142.050451,76.570323,114.855485,-9475.577496
142.051078,76.570323,172.283227,-9418.149754
142.051706,76.570323,114.855485,-9456.434915
142.052333,153.140646,133.998066,-9399.007173
142.052960,153.140646,133.998066,-9399.007173
142.053587,95.712904,114.855485,-9418.149754
142.054214,153.140646,153.140646,-9437.292334
142.054841,133.998066,133.998066,-9399.007173
142.055468,38.285162,172.283227,-9437.292334
142.056095,133.998066,153.140646,-9456.434915
142.056722,133.998066,172.283227,-9437.292334
142.057349,95.712904,95.712904,-9437.292334
142.057977,76.570323,114.855485,-9418.149754
142.058604,76.570323,114.855485,-9456.434915
142.059231,95.712904,95.712904,-9399.007173
142.059858,133.998066,133.998066,-9399.007173
142.060485,133.998066,114.855485,-9418.149754
142.061112,76.570323,114.855485,-9418.149754
142.061739,153.140646,153.140646,-9399.007173
142.062366,95.712904,153.140646,-9475.577496
142.062993,133.998066,153.140646,-9456.434915
142.063620,95.712904,114.855485,-9456.434915
142.064248,133.998066,172.283227,-9418.149754
142.064875,76.570323,153.140646,-9418.149754
142.065502,76.570323,114.855485,-9418.149754
142.066129,133.998066,114.855485,-9494.720077
142.066756,133.998066,114.855485,-9418.149754
142.067383,76.570323,114.855485,-9418.149754
142.068010,95.712904,133.998066,-9418.149754
142.068637,133.998066,172.283227,-9360.722011
142.069264,114.855485,172.283227,-9360.722011
142.069892,153.140646,114.855485,-9418.149754
142.070519,133.998066,172.283227,-9418.149754
142.071146,95.712904,172.283227,-9399.007173
142.071773,153.140646,133.998066,-9456.434915
142.072400,133.998066,114.855485,-9418.149754
142.073027,133.998066,114.855485,-9418.149754
142.073654,133.998066,133.998066,-9437.292334
142.074281,76.570323,114.855485,-9437.292334
142.074908,95.712904,114.855485,-9456.434915
142.075535,114.855485,95.712904,-9475.577496
142.076163,76.570323,114.855485,-9456.434915
142.076790,133.998066,210.568389,-9418.149754
142.077417,133.998066,172.283227,-9418.149754
142.078044,133.998066,114.855485,-9360.722011
142.078671,76.570323,114.855485,-9418.149754
142.079298,57.427742,95.712904,-9399.007173
142.079925,133.998066,153.140646,-9418.149754
142.080552,95.712904,95.712904,-9399.007173
142.081179,76.570323,114.855485,-9418.149754
142.081807,172.283227,76.570323,-9418.149754
142.082434,76.570323,153.140646,-9418.149754
142.083061,76.570323,114.855485,-9418.149754
142.083688,95.712904,172.283227,-9418.149754
142.084315,76.570323,114.855485,-9418.149754
142.084942,76.570323,153.140646,-9418.149754
142.085569,38.285162,172.283227,-9418.149754
142.086196,76.570323,153.140646,-9418.149754
142.086823,76.570323,114.855485,-9418.149754
142.087450,95.712904,95.712904,-9494.720077
142.088078,133.998066,114.855485,-9418.149754
142.088705,95.712904,95.712904,-9437.292334
142.089332,76.570323,114.855485,-9437.292334
142.089959,76.570323,114.855485,-9418.149754
142.090586,76.570323,191.425808,-9418.149754
142.091213,76.570323,153.140646,-9418.149754
142.091840,133.998066,172.283227,-9418.149754
142.092467,172.283227,76.570323,-9418.149754
142.093094,133.998066,114.855485,-9418.149754
142.093721,38.285162,114.855485,-9418.149754
142.094349,38.285162,114.855485,-9418.149754
142.094976,114.855485,95.712904,-9399.007173
142.095603,76.570323,210.568389,-9418.149754
142.096230,76.570323,114.855485,-9475.577496
142.096857,38.285162,172.283227,-9456.434915
142.097484,133.998066,114.855485,-9418.149754
142.098111,76.570323,210.568389,-9418.149754
142.098738,133.998066,172.283227,-9418.149754
142.099365,38.285162,210.568389,-9418.149754
142.099993,76.570323,114.855485,-9418.149754
142.100620,76.570323,114.855485,-9437.292334
142.101247,133.998066,114.855485,-9418.149754
142.101874,114.855485,133.998066,-9418.149754
142.102501,76.570323,172.283227,-9418.149754
142.103128,172.283227,76.570323,-9418.149754
142.103755,133.998066,114.855485,-9418.149754
142.104382,76.570323,210.568389,-9437.292334
142.105009,133.998066,114.855485,-9418.149754
142.105636,153.140646,133.998066,-9399.007173
142.106264,76.570323,114.855485,-9456.434915
142.106891,76.570323,114.855485,-9437.292334
142.107518,133.998066,210.568389,-9456.434915
142.108145,76.570323,210.568389,-9418.149754
142.108772,153.140646,114.855485,-9418.149754
142.109399,133.998066,133.998066,-9399.007173
142.110026,133.998066,114.855485,-9418.149754
142.110653,114.855485,133.998066,-9360.722011
142.111280,153.140646,172.283227,-9456.434915
142.111907,133.998066,114.855485,-9437.292334
142.112535,76.570323,172.283227,-9418.149754
142.113162,133.998066,114.855485,-9360.722011
142.113789,95.712904,95.712904,-9399.007173
142.114416,76.570323,114.855485,-9418.149754
142.115043,76.570323,114.855485,-9418.149754
142.115670,153.140646,133.998066,-9399.007173
142.116297,76.570323,114.855485,-9418.149754
142.116924,76.570323,114.855485,-9418.149754
142.117551,133.998066,210.568389,-9418.149754
142.118179,38.285162,114.855485,-9418.149754
142.118806,133.998066,114.855485,-9418.149754
142.119433,133.998066,153.140646,-9418.149754
142.120060,76.570323,114.855485,-9418.149754
142.120687,133.998066,114.855485,-9418.149754
142.121314,76.570323,153.140646,-9437.292334
142.121941,76.570323,114.855485,-9418.149754
142.122568,153.140646,133.998066,-9494.720077
142.123195,153.140646,153.140646,-9399.007173
142.123823,114.855485,114.855485,-9379.864592
142.124451,133.998066,133.998066,-9399.007173
142.125079,133.998066,114.855485,-9418.149754
142.125706,133.998066,114.855485,-9494.720077
142.126334,133.998066,133.998066,-9399.007173
142.126962,76.570323,95.712904,-9399.007173
142.127590,114.855485,76.570323,-9418.149754
142.128217,133.998066,114.855485,-9418.149754
142.128845,76.570323,114.855485,-9456.434915
142.129473,114.855485,114.855485,-9418.149754
142.130101,133.998066,114.855485,-9475.577496
142.130728,133.998066,133.998066,-9399.007173
142.131356,76.570323,153.140646,-9456.434915
142.131984,95.712904,210.568389,-9437.292334
142.132611,133.998066,210.568389,-9437.292334
142.133239,76.570323,153.140646,-9437.292334
142.133867,133.998066,153.140646,-9418.149754
142.134495,76.570323,191.425808,-9418.149754
142.135122,133.998066,114.855485,-9418.149754
142.135750,76.570323,153.140646,-9418.149754
142.136378,76.570323,153.140646,-9418.149754
142.137006,76.570323,114.855485,-9456.434915
142.137633,76.570323,114.855485,-9456.434915
142.138261,76.570323,114.855485,-9475.577496
142.138889,114.855485,95.712904,-9456.434915
142.139517,153.140646,153.140646,-9494.720077
142.140144,133.998066,114.855485,-9475.577496
142.140772,76.570323,114.855485,-9418.149754
142.141400,172.283227,76.570323,-9418.149754
142.142028,133.998066,114.855485,-9437.292334
142.142655,133.998066,172.283227,-9418.149754
142.143283,114.855485,95.712904,-9456.434915
142.143911,76.570323,114.855485,-9418.149754
142.144539,172.283227,76.570323,-9418.149754
142.145166,172.283227,153.140646,-9418.149754
142.145794,76.570323,114.855485,-9418.149754
142.146422,95.712904,38.285162,-9399.007173
142.147050,114.855485,95.712904,-9399.007173
142.147677,76.570323,114.855485,-9418.149754
142.148305,133.998066,172.283227,-9418.149754
142.148933,76.570323,114.855485,-9475.577496
142.149561,76.570323,114.855485,-9418.149754
142.150188,57.427742,95.712904,-9399.007173
142.150816,76.570323,114.855485,-9418.149754
142.151444,76.570323,114.855485,-9437.292334
142.152071,133.998066,172.283227,-9437.292334
142.152699,76.570323,114.855485,-9418.149754
142.153327,76.570323,114.855485,-9437.292334
142.153955,153.140646,133.998066,-9475.577496
142.154582,76.570323,114.855485,-9418.149754
142.155210,114.855485,133.998066,-9360.722011
142.155838,153.140646,133.998066,-9399.007173
142.156466,76.570323,153.140646,-9418.149754
142.157093,76.570323,114.855485,-9418.149754
142.157721,133.998066,172.283227,-9418.149754
142.158349,38.285162,114.855485,-9360.722011
142.158977,95.712904,133.998066,-9360.722011
142.159604,38.285162,114.855485,-9456.434915
142.160232,133.998066,114.855485,-9494.720077
142.160860,38.285162,191.425808,-9456.434915
142.161488,38.285162,114.855485,-9360.722011
142.162115,133.998066,114.855485,-9437.292334
142.162743,76.570323,153.140646,-9418.149754
142.163371,76.570323,114.855485,-9475.577496
142.163999,133.998066,114.855485,-9418.149754
142.164626,38.285162,153.140646,-9418.149754
142.165254,114.855485,133.998066,-9360.722011
142.165882,133.998066,114.855485,-9418.149754
142.166510,133.998066,133.998066,-9399.007173
142.167137,114.855485,95.712904,-9456.434915
142.167765,95.712904,95.712904,-9437.292334
142.168393,133.998066,114.855485,-9437.292334
142.169021,133.998066,114.855485,-9437.292334
142.169648,38.285162,114.855485,-9456.434915
142.170276,38.285162,114.855485,-9418.149754
142.170904,133.998066,114.855485,-9418.149754
142.171531,76.570323,153.140646,-9418.149754
142.172159,76.570323,172.283227,-9418.149754
142.172787,114.855485,153.140646,-9360.722011
142.173415,76.570323,114.855485,-9418.149754
142.174042,133.998066,133.998066,-9399.007173
142.174670,133.998066,172.283227,-9437.292334
142.175298,76.570323,172.283227,-9533.005238
142.175926,76.570323,153.140646,-9456.434915
142.176553,133.998066,114.855485,-9360.722011
142.177181,114.855485,133.998066,-9418.149754
142.177809,38.285162,114.855485,-9418.149754
142.178437,133.998066,114.855485,-9418.149754
142.179064,133.998066,114.855485,-9418.149754
142.179692,76.570323,210.568389,-9418.149754
142.180320,76.570323,114.855485,-9418.149754
142.180948,38.285162,114.855485,-9456.434915
142.181575,76.570323,114.855485,-9418.149754
142.182203,76.570323,172.283227,-9418.149754
142.182831,95.712904,114.855485,-9418.149754
142.183459,76.570323,114.855485,-9475.577496
142.184086,133.998066,114.855485,-9418.149754
142.184714,76.570323,95.712904,-9399.007173
142.185342,95.712904,133.998066,-9360.722011
142.185970,95.712904,153.140646,-9360.722011
142.186597,133.998066,114.855485,-9456.434915
142.187225,95.712904,95.712904,-9456.434915
142.187853,76.570323,114.855485,-9456.434915
142.188480,57.427742,133.998066,-9360.722011
142.189108,76.570323,114.855485,-9437.292334
142.189736,133.998066,114.855485,-9418.149754
142.190364,95.712904,95.712904,-9456.434915
142.190991,133.998066,114.855485,-9437.292334
142.191619,114.855485,95.712904,-9456.434915
142.192247,133.998066,210.568389,-9475.577496
142.192875,76.570323,153.140646,-9418.149754
142.193502,76.570323,114.855485,-9475.577496
142.194130,133.998066,114.855485,-9533.005238
142.194758,133.998066,114.855485,-9418.149754
142.195386,95.712904,114.855485,-9475.577496
142.196013,76.570323,114.855485,-9418.149754
142.196641,114.855485,95.712904,-9399.007173
142.197269,76.570323,114.855485,-9418.149754
142.197897,133.998066,114.855485,-9437.292334
142.198524,210.568389,172.283227,-9437.292334
142.199152,153.140646,172.283227,-9494.720077
142.199780,114.855485,133.998066,-9360.722011
142.200408,133.998066,172.283227,-9418.149754
142.201035,133.998066,114.855485,-9418.149754
142.201663,153.140646,172.283227,-9399.007173
142.202291,153.140646,133.998066,-9399.007173
142.202919,76.570323,114.855485,-9418.149754
142.203546,133.998066,114.855485,-9418.149754
142.204174,76.570323,95.712904,-9360.722011
142.204802,114.855485,95.712904,-9399.007173
142.205430,38.285162,114.855485,-9437.292334
142.206057,114.855485,133.998066,-9360.722011
142.206685,133.998066,172.283227,-9418.149754
142.207313,133.998066,172.283227,-9437.292334
142.207940,153.140646,172.283227,-9456.434915
142.208568,153.140646,191.425808,-9437.292334
142.209196,76.570323,114.855485,-9418.149754
142.209824,133.998066,172.283227,-9456.434915
142.210451,153.140646,133.998066,-9399.007173
142.211079,133.998066,172.283227,-9418.149754
142.211707,76.570323,153.140646,-9418.149754
142.212335,38.285162,172.283227,-9437.292334
142.212962,114.855485,133.998066,-9456.434915
142.213590,133.998066,229.710970,-9418.149754
142.214218,133.998066,153.140646,-9418.149754
142.214846,133.998066,114.855485,-9418.149754
142.215473,76.570323,210.568389,-9418.149754
142.216101,76.570323,172.283227,-9494.720077
142.216729,133.998066,172.283227,-9418.149754
142.217357,133.998066,153.140646,-9418.149754
142.217984,95.712904,114.855485,-9437.292334
142.218612,57.427742,95.712904,-9494.720077
142.219240,76.570323,172.283227,-9456.434915
142.219868,76.570323,114.855485,-9475.577496
142.220495,133.998066,114.855485,-9533.005238
142.221123,76.570323,114.855485,-9418.149754
142.221751,76.570323,114.855485,-9418.149754
142.222379,133.998066,210.568389,-9418.149754
142.223006,133.998066,114.855485,-9418.149754
142.223634,76.570323,114.855485,-9418.149754
142.224262,57.427742,133.998066,-9418.149754
142.224890,95.712904,114.855485,-9456.434915
142.225517,76.570323,114.855485,-9418.149754
142.226145,76.570323,153.140646,-9418.149754
142.226773,95.712904,172.283227,-9456.434915
142.227401,76.570323,114.855485,-9418.149754
142.228029,133.998066,133.998066,-9399.007173
142.228656,133.998066,114.855485,-9418.149754
142.229284,38.285162,172.283227,-9418.149754
142.229912,38.285162,172.283227,-9533.005238
142.230540,114.855485,153.140646,-9475.577496
142.231167,114.855485,95.712904,-9399.007173
142.231795,76.570323,114.855485,-9418.149754
142.232423,38.285162,114.855485,-9418.149754
142.233051,133.998066,114.855485,-9437.292334
142.233679,133.998066,114.855485,-9418.149754
142.234306,153.140646,133.998066,-9437.292334
142.234934,76.570323,114.855485,-9418.149754
142.235562,76.570323,114.855485,-9418.149754
142.236190,133.998066,114.855485,-9475.577496
142.236818,133.998066,133.998066,-9399.007173
142.237445,114.855485,95.712904,-9399.007173
142.238073,133.998066,153.140646,-9399.007173
142.238701,76.570323,153.140646,-9418.149754
142.239329,76.570323,114.855485,-9399.007173
142.239956,133.998066,191.425808,-9418.149754
142.240584,133.998066,191.425808,-9399.007173
142.241212,133.998066,191.425808,-9399.007173
142.241840,57.427742,114.855485,-9437.292334
142.242468,76.570323,210.568389,-9418.149754
142.243095,95.712904,114.855485,-9418.149754
142.243723,133.998066,172.283227,-9418.149754
142.244351,133.998066,191.425808,-9399.007173
142.244979,57.427742,114.855485,-9418.149754
142.245607,76.570323,114.855485,-9418.149754
142.246234,76.570323,172.283227,-9418.149754
142.246862,76.570323,114.855485,-9418.149754
142.247490,76.570323,172.283227,-9437.292334
142.248118,76.570323,114.855485,-9418.149754
142.248745,133.998066,114.855485,-9418.149754
142.249373,133.998066,114.855485,-9437.292334
142.250001,76.570323,153.140646,-9418.149754
142.250629,133.998066,114.855485,-9418.149754
142.251257,114.855485,95.712904,-9399.007173
142.251884,172.283227,76.570323,-9456.434915
142.252512,57.427742,95.712904,-9399.007173
142.253140,95.712904,172.283227,-9418.149754
142.253768,57.427742,114.855485,-9456.434915
142.254396,76.570323,114.855485,-9456.434915
142.255023,133.998066,114.855485,-9437.292334
142.255651,133.998066,153.140646,-9437.292334
142.256279,133.998066,114.855485,-9418.149754
142.256907,133.998066,114.855485,-9437.292334
142.257534,76.570323,172.283227,-9418.149754
142.258162,38.285162,114.855485,-9418.149754
142.258790,38.285162,114.855485,-9418.149754
142.259418,133.998066,172.283227,-9399.007173
142.260046,38.285162,114.855485,-9456.434915
142.260673,133.998066,114.855485,-9418.149754
142.261301,133.998066,114.855485,-9418.149754
142.261929,133.998066,114.855485,-9418.149754
142.262557,153.140646,133.998066,-9399.007173
142.263184,133.998066,114.855485,-9418.149754
142.263812,133.998066,114.855485,-9418.149754
142.264440,76.570323,172.283227,-9418.149754
142.265068,57.427742,114.855485,-9418.149754
142.265696,38.285162,114.855485,-9418.149754
142.266323,76.570323,114.855485,-9418.149754
142.266951,133.998066,114.855485,-9418.149754
142.267579,76.570323,114.855485,-9456.434915
142.268207,76.570323,114.855485,-9418.149754
142.268835,114.855485,133.998066,-9360.722011
142.269462,133.998066,153.140646,-9360.722011
142.270090,76.570323,172.283227,-9437.292334
142.270718,76.570323,172.283227,-9418.149754
142.271346,76.570323,172.283227,-9418.149754
142.271973,76.570323,153.140646,-9360.722011
142.272601,133.998066,114.855485,-9456.434915
142.273229,133.998066,153.140646,-9418.149754
142.273857,133.998066,153.140646,-9418.149754
142.274485,133.998066,153.140646,-9418.149754
142.275112,38.285162,153.140646,-9418.149754
142.275740,38.285162,172.283227,-9437.292334
142.276368,133.998066,114.855485,-9418.149754
142.276996,133.998066,172.283227,-9437.292334
142.277624,153.140646,153.140646,-9437.292334
142.278251,76.570323,153.140646,-9418.149754
142.278879,38.285162,172.283227,-9418.149754
142.279507,133.998066,114.855485,-9437.292334
142.280135,133.998066,153.140646,-9494.720077
142.280762,133.998066,114.855485,-9437.292334
142.281390,76.570323,114.855485,-9475.577496
142.282018,95.712904,38.285162,-9494.720077
142.282646,38.285162,114.855485,-9475.577496
142.283274,76.570323,114.855485,-9456.434915
142.283901,133.998066,153.140646,-9418.149754
142.284529,38.285162,172.283227,-9418.149754
142.285157,76.570323,114.855485,-9418.149754
142.285785,133.998066,172.283227,-9418.149754
142.286413,76.570323,210.568389,-9418.149754
142.287040,76.570323,153.140646,-9475.577496
142.287668,76.570323,114.855485,-9456.434915
142.288296,153.140646,133.998066,-9399.007173
142.288924,172.283227,76.570323,-9437.292334
142.289551,153.140646,172.283227,-9399.007173
142.290179,210.568389,172.283227,-9399.007173
142.290807,76.570323,114.855485,-9456.434915
142.291435,133.998066,114.855485,-9418.149754
142.292063,133.998066,114.855485,-9418.149754
142.292690,76.570323,172.283227,-9437.292334
142.293318,153.140646,248.853550,-9456.434915
142.293946,95.712904,172.283227,-9456.434915
142.294574,133.998066,172.283227,-9418.149754
142.295202,76.570323,114.855485,-9437.292334
142.295829,133.998066,133.998066,-9494.720077
142.296457,95.712904,114.855485,-9456.434915
142.297085,76.570323,114.855485,-9418.149754
142.297713,76.570323,114.855485,-9418.149754
142.298340,95.712904,133.998066,-9360.722011
142.298968,133.998066,114.855485,-9418.149754
142.299596,133.998066,172.283227,-9418.149754
142.300224,76.570323,172.283227,-9418.149754
142.300852,76.570323,153.140646,-9418.149754
142.301479,38.285162,191.425808,-9456.434915
142.302107,38.285162,114.855485,-9418.149754
142.302735,133.998066,114.855485,-9456.434915
142.303363,133.998066,114.855485,-9437.292334
142.303991,133.998066,114.855485,-9456.434915
142.304618,95.712904,95.712904,-9456.434915
142.305246,133.998066,114.855485,-9418.149754
142.305874,76.570323,114.855485,-9418.149754
142.306502,76.570323,114.855485,-9437.292334
142.307129,95.712904,172.283227,-9418.149754
142.307757,76.570323,210.568389,-9475.577496
142.308385,76.570323,114.855485,-9418.149754
142.309013,114.855485,133.998066,-9418.149754
142.309641,114.855485,133.998066,-9360.722011
142.310268,133.998066,114.855485,-9418.149754
142.310896,95.712904,95.712904,-9399.007173
142.311524,95.712904,114.855485,-9494.720077
142.312152,114.855485,95.712904,-9437.292334
142.312780,76.570323,114.855485,-9456.434915
142.313407,114.855485,95.712904,-9399.007173
142.314035,76.570323,114.855485,-9418.149754
142.314663,133.998066,172.283227,-9360.722011
142.315291,114.855485,172.283227,-9379.864592
142.315918,76.570323,133.998066,-9399.007173
142.316546,95.712904,153.140646,-9437.292334
142.317174,133.998066,153.140646,-9437.292334
142.317802,133.998066,114.855485,-9418.149754
142.318430,133.998066,114.855485,-9418.149754
142.319057,76.570323,153.140646,-9418.149754
142.319685,95.712904,133.998066,-9360.722011
142.320313,38.285162,172.283227,-9456.434915
142.320941,95.712904,172.283227,-9360.722011
142.321569,133.998066,210.568389,-9418.149754
142.322196,76.570323,114.855485,-9418.149754
142.322824,133.998066,133.998066,-9494.720077
142.323452,38.285162,210.568389,-9418.149754
142.324080,95.712904,172.283227,-9418.149754
142.324707,133.998066,114.855485,-9418.149754
142.325335,76.570323,114.855485,-9418.149754
142.325962,76.570323,153.140646,-9418.149754
142.326590,133.998066,172.283227,-9494.720077
142.327218,76.570323,114.855485,-9475.577496
142.327845,95.712904,172.283227,-9418.149754
142.328473,172.283227,114.855485,-9379.864592
142.329101,76.570323,210.568389,-9418.149754
142.329728,95.712904,133.998066,-9418.149754
142.330356,76.570323,114.855485,-9418.149754
142.330983,133.998066,114.855485,-9437.292334
142.331611,76.570323,114.855485,-9437.292334
142.332239,57.427742,172.283227,-9418.149754
142.332866,95.712904,172.283227,-9418.149754
142.333494,76.570323,114.855485,-9418.149754
142.334121,133.998066,114.855485,-9418.149754
142.334749,95.712904,114.855485,-9418.149754
142.335377,76.570323,153.140646,-9418.149754
142.336004,153.140646,153.140646,-9399.007173
142.336632,38.285162,114.855485,-9418.149754
142.337260,76.570323,153.140646,-9475.577496
142.337887,153.140646,133.998066,-9399.007173
142.338515,76.570323,114.855485,-9456.434915
142.339142,76.570323,114.855485,-9437.292334
142.339770,95.712904,114.855485,-9418.149754
142.340398,133.998066,114.855485,-9418.149754
142.341025,76.570323,172.283227,-9418.149754
142.341653,133.998066,114.855485,-9418.149754
142.342280,76.570323,114.855485,-9418.149754
142.342908,133.998066,210.568389,-9418.149754
142.343536,133.998066,114.855485,-9418.149754
142.344163,38.285162,153.140646,-9418.149754
142.344791,76.570323,114.855485,-9418.149754
142.345418,133.998066,114.855485,-9437.292334
142.346046,76.570323,172.283227,-9418.149754
142.346674,38.285162,114.855485,-9418.149754
142.347301,76.570323,114.855485,-9418.149754
142.347929,95.712904,133.998066,-9360.722011
142.348557,57.427742,153.140646,-9360.722011
142.349184,133.998066,133.998066,-9456.434915
142.349812,76.570323,172.283227,-9437.292334
142.350439,76.570323,210.568389,-9418.149754
142.351067,133.998066,114.855485,-9475.577496
142.351695,133.998066,133.998066,-9399.007173
142.352322,38.285162,114.855485,-9437.292334
142.352950,76.570323,210.568389,-9418.149754
142.353577,76.570323,114.855485,-9475.577496
142.354205,153.140646,133.998066,-9399.007173
142.354833,133.998066,153.140646,-9399.007173
142.355460,76.570323,114.855485,-9418.149754
142.356088,95.712904,153.140646,-9456.434915
142.356716,76.570323,114.855485,-9456.434915
142.357343,76.570323,153.140646,-9418.149754
142.357971,38.285162,114.855485,-9456.434915
142.358598,133.998066,210.568389,-9418.149754
142.359226,133.998066,172.283227,-9418.149754
142.359854,76.570323,95.712904,-9399.007173
142.360481,133.998066,191.425808,-9399.007173
142.361109,38.285162,114.855485,-9418.149754
142.361736,114.855485,153.140646,-9360.722011
142.362364,76.570323,153.140646,-9418.149754
142.362992,133.998066,114.855485,-9418.149754
142.363619,133.998066,153.140646,-9437.292334
142.364247,133.998066,133.998066,-9399.007173
142.364874,19.142581,114.855485,-9437.292334
142.365502,95.712904,210.568389,-9456.434915
142.366130,133.998066,114.855485,-9475.577496
142.366757,153.140646,133.998066,-9437.292334
142.367385,133.998066,172.283227,-9475.577496
142.368013,76.570323,114.855485,-9456.434915
142.368640,133.998066,172.283227,-9437.292334
142.369268,95.712904,95.712904,-9456.434915
142.369895,133.998066,114.855485,-9437.292334
142.370523,38.285162,114.855485,-9475.577496
142.371151,133.998066,172.283227,-9418.149754
142.371778,95.712904,153.140646,-9475.577496
142.372406,76.570323,114.855485,-9418.149754
142.373033,95.712904,114.855485,-9437.292334
142.373661,95.712904,95.712904,-9437.292334
142.374289,114.855485,133.998066,-9341.579430
142.374916,76.570323,153.140646,-9418.149754
142.375544,133.998066,114.855485,-9418.149754
142.376172,153.140646,133.998066,-9399.007173
142.376799,133.998066,133.998066,-9399.007173
142.377427,76.570323,153.140646,-9418.149754
142.378054,133.998066,172.283227,-9418.149754
142.378682,153.140646,172.283227,-9399.007173
142.379310,133.998066,172.283227,-9418.149754
142.379937,76.570323,114.855485,-9418.149754
142.380565,76.570323,210.568389,-9418.149754
142.381192,76.570323,191.425808,-9456.434915
142.381820,133.998066,210.568389,-9437.292334
142.382448,76.570323,153.140646,-9418.149754
142.383075,76.570323,114.855485,-9418.149754
142.383703,95.712904,95.712904,-9494.720077
142.384330,76.570323,172.283227,-9418.149754
142.384958,95.712904,172.283227,-9418.149754
142.385586,133.998066,153.140646,-9418.149754
142.386213,76.570323,210.568389,-9437.292334
142.386841,38.285162,153.140646,-9456.434915
142.387469,76.570323,76.570323,-9379.864592
142.388096,95.712904,153.140646,-9360.722011
142.388724,76.570323,114.855485,-9418.149754
142.389351,153.140646,133.998066,-9456.434915
142.389979,114.855485,210.568389,-9379.864592
142.390607,133.998066,172.283227,-9418.149754
142.391234,95.712904,114.855485,-9437.292334
142.391862,76.570323,153.140646,-9437.292334
142.392489,133.998066,114.855485,-9418.149754
142.393117,210.568389,191.425808,-9494.720077
142.393745,95.712904,153.140646,-9418.149754
142.394372,38.285162,114.855485,-9437.292334
142.395000,76.570323,114.855485,-9437.292334
142.395627,133.998066,114.855485,-9475.577496
142.396255,76.570323,153.140646,-9475.577496
142.396883,133.998066,153.140646,-9475.577496
142.397510,133.998066,172.283227,-9418.149754
142.398138,153.140646,133.998066,-9437.292334
142.398766,133.998066,114.855485,-9418.149754
142.399393,76.570323,114.855485,-9418.149754
142.400021,76.570323,114.855485,-9418.149754
142.400648,133.998066,114.855485,-9418.149754
142.401276,76.570323,153.140646,-9418.149754
142.401904,95.712904,114.855485,-9437.292334
142.402531,76.570323,114.855485,-9437.292334
142.403159,153.140646,133.998066,-9456.434915
142.403786,95.712904,153.140646,-9418.149754
142.404414,76.570323,114.855485,-9418.149754
142.405042,172.283227,76.570323,-9418.149754
142.405669,95.712904,95.712904,-9456.434915
142.406297,133.998066,172.283227,-9437.292334
142.406925,133.998066,153.140646,-9437.292334
142.407552,114.855485,95.712904,-9399.007173
142.408180,133.998066,114.855485,-9418.149754
142.408807,114.855485,95.712904,-9399.007173
142.409435,95.712904,95.712904,-9399.007173
142.410063,133.998066,114.855485,-9418.149754
142.410690,38.285162,114.855485,-9418.149754
142.411318,76.570323,172.283227,-9418.149754
142.411945,153.140646,133.998066,-9399.007173
142.412573,95.712904,133.998066,-9418.149754
142.413201,76.570323,153.140646,-9456.434915
142.413828,76.570323,172.283227,-9418.149754
142.414456,76.570323,153.140646,-9437.292334
142.415083,133.998066,172.283227,-9437.292334
142.415711,133.998066,210.568389,-9475.577496
142.416339,133.998066,172.283227,-9437.292334
142.416966,153.140646,172.283227,-9437.292334
142.417594,76.570323,114.855485,-9437.292334
142.418222,95.712904,172.283227,-9456.434915
142.418849,172.283227,76.570323,-9418.149754
142.419477,95.712904,172.283227,-9360.722011
142.420104,76.570323,172.283227,-9437.292334
142.420732,95.712904,172.283227,-9437.292334
142.421360,95.712904,153.140646,-9437.292334
142.421987,76.570323,153.140646,-9418.149754
142.422615,76.570323,114.855485,-9418.149754
142.423242,76.570323,172.283227,-9418.149754
142.423870,38.285162,153.140646,-9437.292334
142.424498,133.998066,114.855485,-9418.149754
142.425125,153.140646,133.998066,-9399.007173
142.425753,133.998066,114.855485,-9418.149754
142.426381,133.998066,114.855485,-9437.292334
142.427008,76.570323,114.855485,-9456.434915
142.427636,76.570323,172.283227,-9418.149754
142.428263,76.570323,114.855485,-9418.149754
142.428891,57.427742,95.712904,-9494.720077
142.429519,133.998066,114.855485,-9418.149754
142.430146,133.998066,172.283227,-9418.149754
142.430774,133.998066,114.855485,-9418.149754
142.431402,114.855485,133.998066,-9360.722011
142.432029,38.285162,172.283227,-9418.149754
142.432657,95.712904,172.283227,-9418.149754
142.433285,38.285162,229.710970,-9418.149754
142.433912,133.998066,153.140646,-9399.007173
142.434540,114.855485,210.568389,-9399.007173
142.435168,57.427742,95.712904,-9399.007173
142.435795,38.285162,114.855485,-9437.292334
142.436423,38.285162,153.140646,-9418.149754
142.437051,133.998066,172.283227,-9437.292334
142.437678,133.998066,172.283227,-9418.149754
142.438306,133.998066,114.855485,-9418.149754
142.438934,76.570323,114.855485,-9418.149754
142.439561,133.998066,114.855485,-9494.720077
142.440189,133.998066,153.140646,-9399.007173
142.440817,133.998066,114.855485,-9418.149754
142.441444,133.998066,172.283227,-9456.434915
142.442072,76.570323,114.855485,-9437.292334
142.442700,76.570323,153.140646,-9475.577496
142.443327,153.140646,172.283227,-9437.292334
142.443955,114.855485,76.570323,-9456.434915
142.444583,153.140646,172.283227,-9399.007173
142.445210,133.998066,153.140646,-9418.149754
142.445838,133.998066,114.855485,-9456.434915
142.446466,133.998066,172.283227,-9399.007173
142.447093,133.998066,153.140646,-9418.149754
142.447721,76.570323,114.855485,-9418.149754
142.448349,95.712904,153.140646,-9360.722011
142.448976,95.712904,153.140646,-9494.720077
142.449604,76.570323,114.855485,-9456.434915
142.450232,95.712904,114.855485,-9418.149754
142.450859,133.998066,114.855485,-9418.149754
142.451487,38.285162,114.855485,-9418.149754
142.452115,133.998066,114.855485,-9418.149754
142.452742,76.570323,114.855485,-9456.434915
142.453370,114.855485,133.998066,-9360.722011
142.453998,114.855485,95.712904,-9399.007173
142.454625,76.570323,114.855485,-9418.149754
142.455253,114.855485,133.998066,-9418.149754
142.455881,133.998066,172.283227,-9456.434915
142.456508,133.998066,172.283227,-9399.007173
142.457136,133.998066,114.855485,-9533.005238
142.457764,95.712904,95.712904,-9494.720077
142.458391,133.998066,114.855485,-9418.149754
142.459019,114.855485,133.998066,-9437.292334
142.459647,76.570323,172.283227,-9418.149754
142.460275,95.712904,114.855485,-9418.149754
142.460902,95.712904,95.712904,-9456.434915
142.461530,76.570323,114.855485,-9418.149754
142.462158,95.712904,133.998066,-9360.722011
142.462785,114.855485,133.998066,-9360.722011
142.463413,114.855485,95.712904,-9399.007173
142.464041,114.855485,114.855485,-9399.007173
142.464668,38.285162,114.855485,-9437.292334
142.465296,114.855485,95.712904,-9437.292334
142.465924,133.998066,114.855485,-9418.149754
142.466551,133.998066,172.283227,-9456.434915
142.467179,133.998066,153.140646,-9418.149754
142.467807,153.140646,153.140646,-9399.007173
142.468434,76.570323,153.140646,-9456.434915
142.469062,38.285162,114.855485,-9418.149754
142.469690,76.570323,191.425808,-9418.149754
142.470317,76.570323,153.140646,-9437.292334
142.470945,76.570323,114.855485,-9418.149754
142.471573,76.570323,114.855485,-9418.149754
142.472200,76.570323,172.283227,-9418.149754
142.472828,76.570323,153.140646,-9418.149754
142.473456,76.570323,95.712904,-9437.292334
142.474083,133.998066,153.140646,-9399.007173
142.474711,76.570323,114.855485,-9437.292334
142.475339,95.712904,153.140646,-9437.292334
142.475966,76.570323,172.283227,-9418.149754
142.476594,133.998066,153.140646,-9418.149754
142.477222,133.998066,210.568389,-9456.434915
142.477849,76.570323,172.283227,-9418.149754
142.478477,133.998066,153.140646,-9418.149754
142.479105,95.712904,95.712904,-9399.007173
142.479732,95.712904,114.855485,-9456.434915
142.480360,153.140646,114.855485,-9475.577496
142.480988,210.568389,133.998066,-9456.434915
142.481615,114.855485,133.998066,-9360.722011
142.482243,210.568389,210.568389,-9399.007173
142.482871,172.283227,76.570323,-9418.149754
142.483498,153.140646,133.998066,-9399.007173
142.484126,76.570323,114.855485,-9418.149754
142.484754,153.140646,133.998066,-9437.292334
142.485381,76.570323,114.855485,-9456.434915
142.486009,76.570323,114.855485,-9418.149754
142.486637,38.285162,114.855485,-9418.149754
142.487264,76.570323,114.855485,-9418.149754
142.487892,76.570323,133.998066,-9360.722011
142.488520,76.570323,114.855485,-9437.292334
142.489147,76.570323,114.855485,-9437.292334
142.489775,76.570323,229.710970,-9418.149754
142.490403,133.998066,114.855485,-9456.434915
142.491030,133.998066,114.855485,-9418.149754
142.491658,76.570323,114.855485,-9418.149754
142.492286,153.140646,133.998066,-9437.292334
142.492913,76.570323,172.283227,-9437.292334
142.493541,133.998066,153.140646,-9418.149754
142.494169,133.998066,114.855485,-9437.292334
142.494796,76.570323,172.283227,-9418.149754
142.495424,76.570323,114.855485,-9437.292334
142.496052,133.998066,114.855485,-9494.720077
142.496679,76.570323,114.855485,-9456.434915
142.497307,133.998066,114.855485,-9418.149754
142.497935,95.712904,95.712904,-9399.007173
142.498563,114.855485,133.998066,-9360.722011
142.499190,153.140646,133.998066,-9399.007173
142.499818,114.855485,76.570323,-9418.149754
142.500446,133.998066,153.140646,-9418.149754
142.501073,76.570323,114.855485,-9456.434915
142.501701,19.142581,114.855485,-9418.149754
142.502329,133.998066,114.855485,-9418.149754
142.502956,76.570323,114.855485,-9418.149754
142.503584,76.570323,210.568389,-9418.149754
142.504212,38.285162,153.140646,-9418.149754
142.504839,133.998066,153.140646,-9418.149754
142.505467,38.285162,114.855485,-9418.149754
142.506095,133.998066,114.855485,-9418.149754
142.506722,133.998066,114.855485,-9437.292334
142.507350,133.998066,114.855485,-9418.149754
142.507978,133.998066,172.283227,-9456.434915
142.508605,95.712904,210.568389,-9494.720077
142.509233,76.570323,172.283227,-9456.434915
142.509861,76.570323,114.855485,-9494.720077
142.510488,76.570323,114.855485,-9418.149754
142.511116,114.855485,133.998066,-9360.722011
142.511744,76.570323,114.855485,-9475.577496
142.512371,114.855485,95.712904,-9494.720077
142.512999,133.998066,133.998066,-9456.434915
142.513627,57.427742,133.998066,-9360.722011
142.514254,133.998066,172.283227,-9437.292334
142.514882,133.998066,210.568389,-9437.292334
142.515510,76.570323,114.855485,-9418.149754
142.516137,133.998066,114.855485,-9418.149754
142.516765,114.855485,76.570323,-9418.149754
142.517393,57.427742,95.712904,-9399.007173
142.518020,76.570323,114.855485,-9418.149754
142.518648,133.998066,153.140646,-9418.149754
142.519276,76.570323,114.855485,-9418.149754
142.519903,95.712904,133.998066,-9360.722011
142.520531,38.285162,114.855485,-9418.149754
142.521159,76.570323,95.712904,-9399.007173
142.521786,133.998066,114.855485,-9418.149754
142.522414,133.998066,114.855485,-9456.434915
142.523042,133.998066,114.855485,-9418.149754
142.523669,57.427742,133.998066,-9418.149754
142.524297,76.570323,114.855485,-9456.434915
142.524925,153.140646,191.425808,-9399.007173
142.525552,38.285162,172.283227,-9418.149754
142.526180,114.855485,95.712904,-9399.007173
142.526807,133.998066,153.140646,-9418.149754
142.527435,76.570323,114.855485,-9418.149754
142.528062,38.285162,114.855485,-9456.434915
142.528690,38.285162,153.140646,-9475.577496
142.529318,76.570323,114.855485,-9418.149754
142.529945,114.855485,95.712904,-9399.007173
142.530573,133.998066,153.140646,-9418.149754
142.531200,76.570323,172.283227,-9418.149754
142.531828,76.570323,153.140646,-9418.149754
142.532455,133.998066,153.140646,-9418.149754
142.533083,57.427742,114.855485,-9418.149754
142.533710,38.285162,229.710970,-9456.434915
142.534338,114.855485,133.998066,-9360.722011
142.534965,76.570323,114.855485,-9418.149754
142.535593,133.998066,114.855485,-9437.292334
142.536221,133.998066,172.283227,-9418.149754
142.536848,76.570323,114.855485,-9418.149754
142.537476,133.998066,114.855485,-9418.149754
142.538103,133.998066,114.855485,-9418.149754
142.538731,153.140646,114.855485,-9418.149754
142.539358,114.855485,114.855485,-9456.434915
142.539986,133.998066,172.283227,-9418.149754
142.540613,133.998066,172.283227,-9437.292334
142.541241,133.998066,172.283227,-9418.149754
142.541868,133.998066,114.855485,-9418.149754
142.542496,76.570323,114.855485,-9418.149754
142.543124,95.712904,114.855485,-9418.149754
142.543751,19.142581,114.855485,-9418.149754
142.544379,95.712904,114.855485,-9418.149754
142.545006,153.140646,172.283227,-9399.007173
142.545634,76.570323,114.855485,-9418.149754
142.546261,76.570323,153.140646,-9456.434915
142.546889,57.427742,95.712904,-9437.292334
142.547516,153.140646,133.998066,-9437.292334
142.548144,114.855485,114.855485,-9399.007173
142.548771,76.570323,172.283227,-9456.434915
142.549399,153.140646,133.998066,-9456.434915
142.550026,133.998066,114.855485,-9418.149754
142.550654,76.570323,153.140646,-9418.149754
142.551282,57.427742,133.998066,-9418.149754
142.551909,133.998066,172.283227,-9418.149754
142.552537,133.998066,114.855485,-9418.149754
142.553164,133.998066,114.855485,-9418.149754
142.553792,95.712904,153.140646,-9360.722011
142.554419,133.998066,114.855485,-9456.434915
142.555047,38.285162,114.855485,-9437.292334
142.555674,76.570323,114.855485,-9418.149754
142.556302,133.998066,133.998066,-9399.007173
142.556929,76.570323,114.855485,-9494.720077
142.557557,133.998066,114.855485,-9418.149754
142.558185,76.570323,172.283227,-9418.149754
142.558812,133.998066,210.568389,-9418.149754
142.559440,114.855485,248.853550,-9360.722011
142.560067,114.855485,210.568389,-9418.149754
142.560695,76.570323,172.283227,-9418.149754
142.561322,76.570323,114.855485,-9437.292334
142.561950,76.570323,172.283227,-9418.149754
142.562577,38.285162,133.998066,-9418.149754
142.563205,38.285162,153.140646,-9437.292334
142.563832,76.570323,153.140646,-9437.292334
142.564460,76.570323,172.283227,-9418.149754
142.565088,133.998066,114.855485,-9418.149754
142.565715,133.998066,153.140646,-9399.007173
142.566343,133.998066,153.140646,-9418.149754
142.566970,133.998066,114.855485,-9418.149754
142.567598,153.140646,114.855485,-9456.434915
142.568225,133.998066,133.998066,-9399.007173
142.568853,76.570323,153.140646,-9418.149754
142.569480,76.570323,114.855485,-9418.149754
142.570108,114.855485,76.570323,-9437.292334
142.570735,133.998066,153.140646,-9437.292334
142.571363,95.712904,153.140646,-9494.720077
142.571991,114.855485,95.712904,-9399.007173
142.572618,133.998066,114.855485,-9418.149754
142.573246,95.712904,95.712904,-9399.007173
142.573873,95.712904,114.855485,-9475.577496
142.574501,76.570323,172.283227,-9418.149754
142.575128,95.712904,153.140646,-9418.149754
142.575756,76.570323,114.855485,-9418.149754
142.576383,133.998066,114.855485,-9418.149754
142.577011,95.712904,114.855485,-9418.149754
142.577638,114.855485,133.998066,-9360.722011
142.578266,76.570323,76.570323,-9399.007173
142.578894,38.285162,114.855485,-9418.149754
142.579521,76.570323,114.855485,-9437.292334
142.580149,133.998066,114.855485,-9418.149754
142.580776,133.998066,153.140646,-9418.149754
142.581404,133.998066,210.568389,-9418.149754
142.582031,76.570323,153.140646,-9418.149754
142.582659,114.855485,76.570323,-9456.434915
142.583286,133.998066,153.140646,-9437.292334
142.583914,76.570323,114.855485,-9418.149754
142.584541,133.998066,114.855485,-9437.292334
142.585169,133.998066,153.140646,-9456.434915
142.585797,114.855485,76.570323,-9418.149754
142.586424,95.712904,95.712904,-9399.007173
142.587052,133.998066,114.855485,-9418.149754
142.587679,57.427742,172.283227,-9418.149754
142.588307,133.998066,153.140646,-9418.149754
142.588934,114.855485,133.998066,-9360.722011
142.589562,133.998066,153.140646,-9418.149754
142.590189,76.570323,153.140646,-9418.149754
142.590817,95.712904,172.283227,-9456.434915
142.591444,133.998066,114.855485,-9418.149754
142.592072,95.712904,114.855485,-9399.007173
142.592699,133.998066,153.140646,-9456.434915
142.593327,133.998066,114.855485,-9475.577496
142.593955,76.570323,114.855485,-9418.149754
142.594582,133.998066,153.140646,-9437.292334
142.595210,38.285162,210.568389,-9418.149754
142.595837,76.570323,172.283227,-9475.577496
142.596465,76.570323,95.712904,-9437.292334
142.597092,153.140646,133.998066,-9456.434915
142.597720,172.283227,76.570323,-9418.149754
142.598347,95.712904,95.712904,-9456.434915
142.598975,114.855485,95.712904,-9456.434915
142.599602,153.140646,133.998066,-9494.720077
142.600230,114.855485,76.570323,-9418.149754
142.600858,114.855485,153.140646,-9379.864592
142.601485,133.998066,114.855485,-9456.434915
142.602113,172.283227,133.998066,-9437.292334
142.602740,133.998066,114.855485,-9418.149754
142.603368,133.998066,114.855485,-9418.149754
142.603995,114.855485,95.712904,-9456.434915
142.604623,133.998066,133.998066,-9399.007173
142.605250,38.285162,114.855485,-9418.149754
142.605878,76.570323,114.855485,-9418.149754
142.606505,76.570323,172.283227,-9418.149754
142.607133,114.855485,95.712904,-9399.007173
142.607761,133.998066,114.855485,-9475.577496
142.608388,76.570323,114.855485,-9418.149754
142.609016,76.570323,114.855485,-9418.149754
142.609643,76.570323,114.855485,-9437.292334
142.610271,95.712904,95.712904,-9399.007173
142.610898,133.998066,114.855485,-9418.149754
142.611526,133.998066,172.283227,-9475.577496
142.612153,133.998066,114.855485,-9418.149754
142.612781,114.855485,95.712904,-9399.007173
142.613408,57.427742,95.712904,-9399.007173
142.614036,76.570323,114.855485,-9533.005238
142.614664,95.712904,114.855485,-9494.720077
142.615291,76.570323,133.998066,-9456.434915
142.615919,38.285162,172.283227,-9437.292334
142.616546,76.570323,153.140646,-9494.720077
142.617174,76.570323,172.283227,-9418.149754
142.617801,76.570323,114.855485,-9437.292334
142.618429,153.140646,133.998066,-9399.007173
142.619056,95.712904,114.855485,-9418.149754
142.619684,95.712904,114.855485,-9456.434915
142.620311,114.855485,133.998066,-9360.722011
142.620939,76.570323,172.283227,-9437.292334
142.621567,153.140646,172.283227,-9399.007173
142.622194,133.998066,114.855485,-9418.149754
142.622822,76.570323,114.855485,-9418.149754
142.623449,133.998066,172.283227,-9418.149754
142.624077,95.712904,172.283227,-9418.149754
142.624704,76.570323,114.855485,-9437.292334
142.625332,114.855485,95.712904,-9475.577496
142.625959,76.570323,114.855485,-9456.434915
142.626587,133.998066,114.855485,-9456.434915
142.627214,114.855485,114.855485,-9399.007173
142.627842,133.998066,114.855485,-9418.149754
142.628469,76.570323,114.855485,-9456.434915
142.629097,38.285162,114.855485,-9418.149754
142.629725,114.855485,95.712904,-9437.292334
142.630352,76.570323,114.855485,-9437.292334
142.630980,76.570323,153.140646,-9456.434915
142.631607,95.712904,114.855485,-9437.292334
142.632234,133.998066,172.283227,-9456.434915
142.632862,153.140646,133.998066,-9399.007173
142.633489,76.570323,114.855485,-9418.149754
142.634117,114.855485,133.998066,-9360.722011
142.634744,76.570323,114.855485,-9418.149754
142.635372,133.998066,114.855485,-9418.149754
142.635999,153.140646,133.998066,-9399.007173
142.636627,133.998066,172.283227,-9533.005238
142.637254,133.998066,114.855485,-9475.577496
142.637882,153.140646,133.998066,-9437.292334
142.638509,76.570323,153.140646,-9418.149754
142.639137,38.285162,114.855485,-9418.149754
142.639764,76.570323,172.283227,-9494.720077
142.640392,133.998066,114.855485,-9437.292334
142.641019,95.712904,191.425808,-9418.149754
142.641646,133.998066,191.425808,-9437.292334
142.642274,133.998066,133.998066,-9399.007173
142.642901,133.998066,114.855485,-9418.149754
142.643529,114.855485,133.998066,-9360.722011
142.644156,76.570323,114.855485,-9418.149754
142.644784,76.570323,114.855485,-9418.149754
142.645411,133.998066,114.855485,-9456.434915
142.646039,76.570323,153.140646,-9437.292334
142.646666,133.998066,153.140646,-9418.149754
142.647294,95.712904,133.998066,-9360.722011
142.647921,38.285162,114.855485,-9418.149754
142.648549,133.998066,114.855485,-9437.292334
142.649176,38.285162,153.140646,-9418.149754
142.649803,133.998066,153.140646,-9475.577496
142.650431,153.140646,191.425808,-9456.434915
142.651058,133.998066,153.140646,-9437.292334
142.651686,76.570323,114.855485,-9418.149754
142.652313,95.712904,172.283227,-9437.292334
142.652941,76.570323,172.283227,-9418.149754
142.653568,76.570323,114.855485,-9456.434915
142.654196,172.283227,76.570323,-9418.149754
142.654823,76.570323,114.855485,-9437.292334
142.655451,133.998066,153.140646,-9418.149754
142.656078,76.570323,114.855485,-9456.434915
142.656706,114.855485,114.855485,-9399.007173
142.657333,95.712904,95.712904,-9437.292334
142.657961,133.998066,114.855485,-9418.149754
142.658588,95.712904,95.712904,-9437.292334
142.659215,76.570323,114.855485,-9437.292334
142.659843,76.570323,172.283227,-9418.149754
142.660470,76.570323,153.140646,-9437.292334
142.661098,38.285162,114.855485,-9418.149754
142.661725,76.570323,114.855485,-9418.149754
142.662353,95.712904,95.712904,-9475.577496
142.662980,133.998066,114.855485,-9418.149754
142.663608,172.283227,76.570323,-9456.434915
142.664235,153.140646,191.425808,-9437.292334
142.664863,153.140646,133.998066,-9399.007173
142.665490,153.140646,133.998066,-9399.007173
142.666118,76.570323,210.568389,-9456.434915
142.666745,95.712904,153.140646,-9360.722011
142.667372,38.285162,172.283227,-9418.149754
142.668000,38.285162,114.855485,-9437.292334
142.668627,76.570323,172.283227,-9418.149754
142.669255,38.285162,172.283227,-9475.577496
142.669882,76.570323,153.140646,-9418.149754
142.670510,95.712904,153.140646,-9360.722011
142.671137,76.570323,114.855485,-9418.149754
142.671765,153.140646,133.998066,-9456.434915
142.672392,153.140646,172.283227,-9437.292334
142.673020,76.570323,114.855485,-9418.149754
142.673647,172.283227,133.998066,-9418.149754
142.674275,133.998066,153.140646,-9418.149754
142.674902,114.855485,133.998066,-9418.149754
142.675529,38.285162,114.855485,-9437.292334
142.676157,133.998066,153.140646,-9418.149754
142.676784,38.285162,114.855485,-9437.292334
142.677412,133.998066,114.855485,-9418.149754
142.678039,76.570323,153.140646,-9456.434915
142.678667,76.570323,153.140646,-9494.720077
142.679294,76.570323,210.568389,-9418.149754
142.679922,38.285162,172.283227,-9360.722011
142.680549,114.855485,133.998066,-9341.579430
142.681177,133.998066,76.570323,-9379.864592
142.681804,76.570323,114.855485,-9418.149754
142.682432,76.570323,114.855485,-9418.149754
142.683059,133.998066,191.425808,-9437.292334
142.683687,133.998066,153.140646,-9494.720077
142.684314,76.570323,172.283227,-9437.292334
142.684941,133.998066,153.140646,-9418.149754
142.685569,210.568389,133.998066,-9399.007173
142.686196,153.140646,153.140646,-9399.007173
142.686824,133.998066,114.855485,-9494.720077
142.687451,133.998066,114.855485,-9418.149754
142.688079,133.998066,210.568389,-9418.149754
142.688706,76.570323,114.855485,-9456.434915
142.689334,38.285162,172.283227,-9418.149754
142.689961,133.998066,76.570323,-9379.864592
142.690589,76.570323,172.283227,-9418.149754
142.691216,76.570323,114.855485,-9456.434915
142.691844,133.998066,153.140646,-9475.577496
142.692471,76.570323,153.140646,-9418.149754
142.693098,57.427742,95.712904,-9399.007173
142.693726,95.712904,114.855485,-9475.577496
142.694353,133.998066,133.998066,-9399.007173
142.694981,114.855485,133.998066,-9418.149754
142.695608,133.998066,114.855485,-9475.577496
142.696236,76.570323,153.140646,-9418.149754
142.696863,38.285162,153.140646,-9456.434915
142.697491,153.140646,133.998066,-9399.007173
142.698118,133.998066,114.855485,-9418.149754
142.698746,76.570323,76.570323,-9379.864592
142.699373,76.570323,114.855485,-9418.149754
142.700001,76.570323,153.140646,-9360.722011
142.700628,133.998066,172.283227,-9418.149754
142.701256,95.712904,210.568389,-9437.292334
142.701883,153.140646,114.855485,-9418.149754
142.702510,76.570323,210.568389,-9418.149754
142.703138,76.570323,172.283227,-9437.292334
142.703765,95.712904,153.140646,-9418.149754
142.704393,114.855485,133.998066,-9360.722011
142.705020,76.570323,191.425808,-9418.149754
142.705648,57.427742,153.140646,-9437.292334
142.706275,95.712904,133.998066,-9360.722011
142.706903,76.570323,114.855485,-9494.720077
142.707530,76.570323,114.855485,-9418.149754
142.708158,76.570323,114.855485,-9418.149754
142.708785,76.570323,153.140646,-9418.149754
142.709413,76.570323,153.140646,-9418.149754
142.710040,133.998066,153.140646,-9418.149754
142.710667,76.570323,172.283227,-9475.577496
142.711295,38.285162,114.855485,-9437.292334
142.711922,76.570323,153.140646,-9418.149754
142.712550,133.998066,114.855485,-9418.149754
142.713177,133.998066,114.855485,-9418.149754
142.713805,95.712904,95.712904,-9513.862658
142.714432,95.712904,95.712904,-9437.292334
142.715060,76.570323,114.855485,-9456.434915
142.715687,133.998066,153.140646,-9418.149754
142.716315,114.855485,153.140646,-9379.864592
142.716942,76.570323,172.283227,-9418.149754
142.717570,133.998066,153.140646,-9418.149754
142.718197,76.570323,172.283227,-9418.149754
142.718824,114.855485,95.712904,-9437.292334
142.719452,76.570323,172.283227,-9437.292334
142.720079,76.570323,153.140646,-9437.292334
142.720707,133.998066,114.855485,-9418.149754
142.721334,76.570323,153.140646,-9418.149754
142.721962,114.855485,38.285162,-9399.007173
142.722589,76.570323,172.283227,-9418.149754
142.723217,76.570323,114.855485,-9418.149754
142.723844,38.285162,153.140646,-9418.149754
142.724472,133.998066,153.140646,-9418.149754
142.725099,133.998066,114.855485,-9437.292334
142.725727,153.140646,229.710970,-9456.434915
142.726354,133.998066,153.140646,-9418.149754
142.726982,133.998066,114.855485,-9418.149754
142.727609,133.998066,114.855485,-9360.722011
142.728236,133.998066,114.855485,-9418.149754
142.728864,19.142581,114.855485,-9418.149754
142.729491,76.570323,114.855485,-9418.149754
142.730119,133.998066,172.283227,-9418.149754
142.730746,133.998066,76.570323,-9399.007173
142.731374,76.570323,114.855485,-9418.149754
142.732001,76.570323,114.855485,-9418.149754
142.732628,76.570323,114.855485,-9418.149754
142.733256,133.998066,191.425808,-9418.149754
142.733883,76.570323,153.140646,-9418.149754
142.734510,76.570323,191.425808,-9399.007173
142.735138,76.570323,114.855485,-9418.149754
142.735765,76.570323,114.855485,-9418.149754
142.736393,76.570323,153.140646,-9437.292334
142.737020,76.570323,153.140646,-9418.149754
142.737647,76.570323,114.855485,-9418.149754
142.738275,133.998066,114.855485,-9456.434915
142.738902,133.998066,172.283227,-9418.149754
142.739529,133.998066,172.283227,-9418.149754
142.740157,76.570323,114.855485,-9418.149754
142.740784,133.998066,153.140646,-9418.149754
142.741411,19.142581,114.855485,-9418.149754
142.742039,95.712904,114.855485,-9475.577496
142.742666,76.570323,95.712904,-9418.149754
142.743294,76.570323,95.712904,-9456.434915
142.743921,114.855485,76.570323,-9437.292334
142.744548,133.998066,172.283227,-9437.292334
142.745176,76.570323,172.283227,-9418.149754
142.745803,133.998066,114.855485,-9437.292334
142.746430,76.570323,153.140646,-9418.149754
142.747058,133.998066,114.855485,-9437.292334
142.747685,76.570323,95.712904,-9494.720077
142.748312,76.570323,114.855485,-9418.149754
142.748940,76.570323,76.570323,-9379.864592
142.749567,38.285162,114.855485,-9418.149754
142.750195,76.570323,153.140646,-9418.149754
142.750822,133.998066,153.140646,-9456.434915
142.751449,133.998066,114.855485,-9418.149754
142.752077,133.998066,153.140646,-9418.149754
142.752704,153.140646,133.998066,-9399.007173
142.753331,76.570323,114.855485,-9437.292334
142.753959,95.712904,95.712904,-9494.720077
142.754586,76.570323,114.855485,-9418.149754
142.755213,76.570323,114.855485,-9418.149754
142.755841,133.998066,114.855485,-9418.149754
142.756468,76.570323,153.140646,-9437.292334
142.757096,133.998066,114.855485,-9533.005238
142.757723,114.855485,114.855485,-9437.292334
142.758350,38.285162,153.140646,-9418.149754
142.758978,38.285162,114.855485,-9418.149754
142.759605,38.285162,210.568389,-9418.149754
142.760232,38.285162,210.568389,-9418.149754
142.760860,76.570323,172.283227,-9418.149754
142.761487,76.570323,172.283227,-9437.292334
142.762114,133.998066,133.998066,-9456.434915
142.762742,133.998066,114.855485,-9437.292334
142.763369,38.285162,229.710970,-9418.149754
142.763997,133.998066,153.140646,-9475.577496
142.764624,133.998066,114.855485,-9418.149754
142.765251,210.568389,191.425808,-9399.007173
142.765879,153.140646,172.283227,-9399.007173
142.766506,76.570323,114.855485,-9437.292334
142.767133,95.712904,133.998066,-9475.577496
142.767761,133.998066,191.425808,-9456.434915
142.768388,133.998066,210.568389,-9437.292334
142.769015,133.998066,114.855485,-9437.292334
142.769643,133.998066,172.283227,-9456.434915
142.770270,76.570323,114.855485,-9418.149754
142.770898,76.570323,114.855485,-9418.149754
142.771525,76.570323,153.140646,-9418.149754
142.772152,133.998066,114.855485,-9456.434915
142.772780,114.855485,95.712904,-9399.007173
142.773407,76.570323,114.855485,-9399.007173
142.774034,38.285162,114.855485,-9360.722011
142.774662,76.570323,114.855485,-9418.149754
142.775289,76.570323,114.855485,-9418.149754
142.775916,76.570323,114.855485,-9418.149754
142.776544,38.285162,114.855485,-9418.149754
142.777171,133.998066,114.855485,-9456.434915
142.777799,133.998066,114.855485,-9456.434915
142.778426,95.712904,172.283227,-9494.720077
142.779053,76.570323,172.283227,-9418.149754
142.779681,95.712904,153.140646,-9418.149754
142.780308,153.140646,133.998066,-9399.007173
142.780935,76.570323,114.855485,-9418.149754
142.781563,76.570323,114.855485,-9437.292334
142.782190,133.998066,153.140646,-9437.292334
142.782817,133.998066,114.855485,-9418.149754
142.783445,57.427742,114.855485,-9418.149754
142.784072,114.855485,114.855485,-9379.864592
142.784700,76.570323,114.855485,-9456.434915
142.785327,76.570323,114.855485,-9418.149754
142.785954,133.998066,153.140646,-9418.149754
142.786582,76.570323,114.855485,-9418.149754
142.787209,95.712904,114.855485,-9437.292334
142.787836,57.427742,191.425808,-9360.722011
142.788464,76.570323,153.140646,-9418.149754
142.789091,172.283227,76.570323,-9418.149754
142.789718,76.570323,114.855485,-9418.149754
142.790346,114.855485,172.283227,-9360.722011
142.790973,76.570323,191.425808,-9475.577496
142.791601,133.998066,172.283227,-9418.149754
142.792228,76.570323,114.855485,-9494.720077
142.792855,133.998066,172.283227,-9418.149754
142.793483,76.570323,114.855485,-9418.149754
142.794110,133.998066,114.855485,-9418.149754
142.794737,172.283227,133.998066,-9456.434915
142.795365,76.570323,153.140646,-9418.149754
142.795992,76.570323,114.855485,-9437.292334
142.796619,95.712904,114.855485,-9475.577496
142.797247,76.570323,114.855485,-9418.149754
142.797874,76.570323,114.855485,-9418.149754
142.798502,153.140646,133.998066,-9399.007173
142.799129,153.140646,172.283227,-9437.292334
142.799756,76.570323,114.855485,-9418.149754
142.800384,153.140646,133.998066,-9399.007173
142.801011,133.998066,133.998066,-9456.434915
142.801638,76.570323,114.855485,-9475.577496
142.802266,153.140646,114.855485,-9418.149754
142.802893,76.570323,114.855485,-9533.005238
142.803520,133.998066,191.425808,-9418.149754
142.804148,153.140646,153.140646,-9418.149754
142.804775,172.283227,114.855485,-9379.864592
142.805403,76.570323,114.855485,-9437.292334
142.806030,76.570323,114.855485,-9456.434915
142.806657,133.998066,114.855485,-9418.149754
142.807285,114.855485,95.712904,-9437.292334
142.807912,38.285162,172.283227,-9437.292334
142.808539,133.998066,153.140646,-9399.007173
142.809167,133.998066,114.855485,-9418.149754
142.809794,57.427742,133.998066,-9360.722011
142.810421,133.998066,114.855485,-9418.149754
142.811049,76.570323,114.855485,-9418.149754
142.811676,76.570323,95.712904,-9399.007173
142.812304,133.998066,114.855485,-9418.149754
142.812931,76.570323,114.855485,-9533.005238
142.813558,133.998066,114.855485,-9418.149754
142.814186,133.998066,114.855485,-9437.292334
142.814813,38.285162,114.855485,-9418.149754
142.815440,133.998066,114.855485,-9437.292334
142.816068,76.570323,114.855485,-9418.149754
142.816695,76.570323,172.283227,-9418.149754
142.817322,76.570323,153.140646,-9533.005238
142.817950,172.283227,210.568389,-9513.862658
142.818577,133.998066,114.855485,-9494.720077
142.819205,153.140646,172.283227,-9456.434915
142.819832,114.855485,76.570323,-9437.292334
142.820459,133.998066,153.140646,-9418.149754
142.821087,133.998066,114.855485,-9437.292334
142.821714,76.570323,114.855485,-9418.149754
142.822341,76.570323,114.855485,-9418.149754
142.822969,76.570323,114.855485,-9418.149754
142.823596,38.285162,95.712904,-9399.007173
142.824223,133.998066,114.855485,-9418.149754
142.824851,95.712904,153.140646,-9360.722011
142.825478,76.570323,210.568389,-9418.149754
142.826106,133.998066,114.855485,-9418.149754
142.826733,76.570323,95.712904,-9399.007173
142.827360,133.998066,133.998066,-9399.007173
142.827988,133.998066,114.855485,-9418.149754
142.828615,133.998066,153.140646,-9418.149754
142.829242,133.998066,114.855485,-9437.292334
142.829870,76.570323,172.283227,-9456.434915
142.830497,76.570323,114.855485,-9418.149754
142.831124,114.855485,95.712904,-9437.292334
142.831752,95.712904,133.998066,-9418.149754
142.832379,76.570323,114.855485,-9418.149754
142.833007,95.712904,95.712904,-9399.007173
142.833634,38.285162,153.140646,-9418.149754
142.834262,76.570323,153.140646,-9418.149754
142.834889,133.998066,114.855485,-9418.149754
142.835516,133.998066,153.140646,-9418.149754
142.836144,76.570323,114.855485,-9475.577496
142.836771,95.712904,114.855485,-9418.149754
142.837399,133.998066,114.855485,-9437.292334
142.838026,38.285162,114.855485,-9418.149754
142.838653,57.427742,95.712904,-9399.007173
142.839281,153.140646,114.855485,-9418.149754
142.839908,133.998066,114.855485,-9456.434915
142.840536,76.570323,172.283227,-9437.292334
142.841163,76.570323,229.710970,-9437.292334
142.841790,38.285162,153.140646,-9437.292334
142.842418,95.712904,172.283227,-9418.149754
142.843045,95.712904,114.855485,-9418.149754
142.843673,76.570323,114.855485,-9418.149754
142.844300,133.998066,114.855485,-9418.149754
142.844927,76.570323,114.855485,-9418.149754
142.845555,57.427742,172.283227,-9456.434915
142.846182,38.285162,191.425808,-9418.149754
142.846810,153.140646,133.998066,-9399.007173
142.847437,114.855485,172.283227,-9360.722011
142.848064,133.998066,191.425808,-9456.434915
142.848692,133.998066,210.568389,-9418.149754
142.849319,153.140646,133.998066,-9456.434915
142.849947,38.285162,114.855485,-9475.577496
142.850574,57.427742,133.998066,-9533.005238
142.851202,133.998066,114.855485,-9475.577496
142.851829,95.712904,114.855485,-9437.292334
142.852456,76.570323,172.283227,-9418.149754
142.853084,153.140646,172.283227,-9399.007173
142.853711,76.570323,153.140646,-9418.149754
142.854339,114.855485,95.712904,-9399.007173
142.854966,76.570323,114.855485,-9475.577496
142.855593,133.998066,114.855485,-9437.292334
142.856221,153.140646,133.998066,-9399.007173
142.856848,95.712904,95.712904,-9437.292334
142.857476,153.140646,133.998066,-9399.007173
142.858103,133.998066,114.855485,-9418.149754
142.858730,38.285162,114.855485,-9418.149754
142.859358,95.712904,114.855485,-9418.149754
142.859985,57.427742,172.283227,-9418.149754
142.860613,95.712904,114.855485,-9418.149754
142.861240,76.570323,114.855485,-9418.149754
142.861867,95.712904,95.712904,-9379.864592
142.862495,76.570323,172.283227,-9360.722011
142.863122,133.998066,114.855485,-9418.149754
142.863750,76.570323,114.855485,-9418.149754
142.864377,76.570323,114.855485,-9418.149754
142.865004,133.998066,114.855485,-9418.149754
142.865632,95.712904,114.855485,-9418.149754
142.866259,133.998066,210.568389,-9418.149754
142.866887,76.570323,114.855485,-9418.149754
142.867514,133.998066,114.855485,-9456.434915
142.868142,76.570323,114.855485,-9533.005238
142.868769,133.998066,114.855485,-9418.149754
142.869396,76.570323,172.283227,-9456.434915
142.870024,95.712904,172.283227,-9456.434915
142.870651,133.998066,114.855485,-9475.577496
142.871279,114.855485,38.285162,-9437.292334
142.871906,153.140646,172.283227,-9399.007173
142.872533,95.712904,95.712904,-9475.577496
142.873161,76.570323,172.283227,-9418.149754
142.873788,133.998066,114.855485,-9418.149754
142.874416,76.570323,210.568389,-9418.149754
142.875043,133.998066,114.855485,-9437.292334
142.875670,133.998066,133.998066,-9399.007173
142.876298,153.140646,287.138712,-9360.722011
142.876925,76.570323,114.855485,-9456.434915
142.877553,76.570323,114.855485,-9418.149754
142.878180,76.570323,114.855485,-9437.292334
142.878807,38.285162,114.855485,-9418.149754
142.879435,95.712904,153.140646,-9360.722011
142.880062,114.855485,133.998066,-9437.292334
142.880690,57.427742,153.140646,-9494.720077
142.881317,133.998066,114.855485,-9456.434915
142.881944,133.998066,114.855485,-9456.434915
142.882572,133.998066,114.855485,-9418.149754
142.883199,133.998066,114.855485,-9418.149754
142.883827,172.283227,76.570323,-9418.149754
142.884454,76.570323,114.855485,-9418.149754
142.885082,114.855485,210.568389,-9475.577496
142.885709,133.998066,114.855485,-9456.434915
142.886336,76.570323,114.855485,-9456.434915
142.886964,133.998066,114.855485,-9494.720077
142.887591,76.570323,114.855485,-9456.434915
142.888219,95.712904,95.712904,-9399.007173
142.888846,38.285162,114.855485,-9418.149754
142.889473,95.712904,114.855485,-9418.149754
142.890101,133.998066,114.855485,-9418.149754
142.890728,133.998066,153.140646,-9399.007173
142.891356,95.712904,114.855485,-9418.149754
142.891983,95.712904,95.712904,-9399.007173
142.892610,133.998066,114.855485,-9437.292334
142.893238,133.998066,153.140646,-9418.149754
142.893865,133.998066,114.855485,-9437.292334
142.894493,114.855485,95.712904,-9399.007173
142.895120,133.998066,153.140646,-9399.007173
142.895747,95.712904,153.140646,-9418.149754
142.896375,172.283227,76.570323,-9418.149754
142.897002,133.998066,153.140646,-9418.149754
142.897630,133.998066,114.855485,-9475.577496
142.898257,95.712904,95.712904,-9399.007173
142.898884,133.998066,114.855485,-9418.149754
142.899512,133.998066,153.140646,-9418.149754
142.900139,133.998066,114.855485,-9475.577496
142.900767,95.712904,133.998066,-9533.005238
142.901394,57.427742,95.712904,-9456.434915
142.902021,133.998066,191.425808,-9399.007173
142.902649,76.570323,172.283227,-9418.149754
142.903276,76.570323,114.855485,-9418.149754
142.903904,95.712904,153.140646,-9418.149754
142.904531,76.570323,229.710970,-9418.149754
142.905159,76.570323,210.568389,-9475.577496
142.905786,76.570323,172.283227,-9418.149754
142.906413,133.998066,210.568389,-9418.149754
142.907041,133.998066,114.855485,-9418.149754
142.907668,95.712904,172.283227,-9418.149754
142.908296,133.998066,210.568389,-9418.149754
142.908923,153.140646,133.998066,-9399.007173
142.909550,76.570323,210.568389,-9418.149754
142.910178,95.712904,153.140646,-9360.722011
142.910805,38.285162,153.140646,-9418.149754
142.911433,38.285162,114.855485,-9456.434915
142.912060,76.570323,114.855485,-9437.292334
142.912687,133.998066,114.855485,-9418.149754
142.913315,95.712904,114.855485,-9418.149754
142.913942,95.712904,95.712904,-9437.292334
142.914570,133.998066,153.140646,-9456.434915
142.915197,133.998066,172.283227,-9475.577496
142.915824,76.570323,114.855485,-9418.149754
142.916452,133.998066,114.855485,-9437.292334
142.917079,76.570323,114.855485,-9456.434915
142.917707,114.855485,95.712904,-9399.007173
142.918334,172.283227,133.998066,-9360.722011
142.918961,76.570323,114.855485,-9418.149754
142.919589,172.283227,95.712904,-9437.292334
142.920216,133.998066,210.568389,-9418.149754
142.920844,76.570323,114.855485,-9418.149754
142.921471,76.570323,114.855485,-9418.149754
142.922099,57.427742,95.712904,-9399.007173
142.922726,133.998066,114.855485,-9418.149754
142.923353,57.427742,95.712904,-9399.007173
142.923981,114.855485,153.140646,-9360.722011
142.924608,76.570323,210.568389,-9418.149754
142.925236,76.570323,153.140646,-9418.149754
142.925863,114.855485,95.712904,-9399.007173
142.926490,57.427742,95.712904,-9399.007173
142.927118,76.570323,114.855485,-9418.149754
142.927745,95.712904,114.855485,-9437.292334
142.928373,95.712904,95.712904,-9475.577496
142.929000,57.427742,114.855485,-9418.149754
142.929627,133.998066,210.568389,-9418.149754
142.930255,133.998066,114.855485,-9418.149754
142.930882,153.140646,172.283227,-9399.007173
142.931510,76.570323,114.855485,-9418.149754
142.932137,76.570323,114.855485,-9456.434915
142.932765,133.998066,153.140646,-9418.149754
142.933392,95.712904,95.712904,-9399.007173
142.934019,133.998066,114.855485,-9418.149754
142.934647,133.998066,133.998066,-9399.007173
142.935274,133.998066,153.140646,-9418.149754
142.935902,76.570323,114.855485,-9437.292334
142.936529,76.570323,153.140646,-9418.149754
142.937157,76.570323,153.140646,-9418.149754
142.937784,76.570323,210.568389,-9418.149754
142.938412,76.570323,153.140646,-9418.149754
142.939039,76.570323,172.283227,-9418.149754
142.939667,133.998066,210.568389,-9437.292334
142.940294,133.998066,153.140646,-9418.149754
142.940922,95.712904,95.712904,-9437.292334
142.941549,133.998066,172.283227,-9475.577496
142.942177,153.140646,133.998066,-9399.007173
142.942804,133.998066,133.998066,-9456.434915
142.943431,114.855485,95.712904,-9494.720077
142.944059,133.998066,210.568389,-9418.149754
142.944686,172.283227,76.570323,-9456.434915
142.945314,95.712904,95.712904,-9399.007173
142.945941,95.712904,133.998066,-9475.577496
142.946569,133.998066,172.283227,-9418.149754
142.947196,133.998066,153.140646,-9418.149754
142.947824,76.570323,114.855485,-9418.149754
142.948451,38.285162,114.855485,-9418.149754
142.949079,76.570323,114.855485,-9456.434915
142.949706,38.285162,153.140646,-9418.149754
142.950334,95.712904,133.998066,-9360.722011
142.950961,38.285162,153.140646,-9533.005238
142.951588,133.998066,114.855485,-9437.292334
142.952216,95.712904,114.855485,-9418.149754
142.952843,76.570323,210.568389,-9418.149754
142.953471,114.855485,133.998066,-9360.722011
142.954098,76.570323,114.855485,-9418.149754
142.954726,153.140646,191.425808,-9399.007173
142.955353,76.570323,172.283227,-9437.292334
142.955981,76.570323,153.140646,-9456.434915
142.956608,76.570323,114.855485,-9437.292334
142.957236,210.568389,133.998066,-9399.007173
142.957863,133.998066,153.140646,-9456.434915
142.958491,57.427742,210.568389,-9360.722011
142.959118,76.570323,114.855485,-9437.292334
142.959745,76.570323,114.855485,-9418.149754
142.960373,133.998066,153.140646,-9418.149754
142.961000,153.140646,114.855485,-9437.292334
142.961628,133.998066,133.998066,-9399.007173
142.962255,153.140646,133.998066,-9399.007173
142.962883,38.285162,114.855485,-9418.149754
142.963510,38.285162,172.283227,-9418.149754
142.964138,133.998066,133.998066,-9399.007173
142.964765,133.998066,114.855485,-9437.292334
142.965393,76.570323,172.283227,-9418.149754
142.966020,38.285162,172.283227,-9456.434915
142.966648,114.855485,153.140646,-9360.722011
142.967275,76.570323,172.283227,-9437.292334
142.967903,133.998066,229.710970,-9456.434915
142.968530,38.285162,172.283227,-9494.720077
142.969157,38.285162,114.855485,-9418.149754
142.969785,76.570323,172.283227,-9533.005238
142.970412,95.712904,114.855485,-9399.007173
142.971040,133.998066,114.855485,-9418.149754
142.971667,133.998066,114.855485,-9418.149754
142.972295,191.425808,114.855485,-9399.007173
142.972922,133.998066,114.855485,-9437.292334
142.973550,133.998066,114.855485,-9456.434915
142.974177,153.140646,153.140646,-9475.577496
142.974805,76.570323,210.568389,-9456.434915
142.975432,76.570323,153.140646,-9418.149754
142.976060,95.712904,114.855485,-9418.149754
142.976687,153.140646,133.998066,-9437.292334
142.977314,133.998066,153.140646,-9456.434915
142.977942,133.998066,114.855485,-9418.149754
142.978569,133.998066,114.855485,-9418.149754
142.979197,76.570323,153.140646,-9418.149754
142.979824,95.712904,95.712904,-9399.007173
142.980452,76.570323,210.568389,-9418.149754
142.981079,133.998066,114.855485,-9418.149754
142.981707,38.285162,114.855485,-9437.292334
142.982334,95.712904,153.140646,-9418.149754
142.982962,114.855485,133.998066,-9360.722011
142.983589,133.998066,172.283227,-9456.434915
142.984217,133.998066,153.140646,-9418.149754
142.984844,38.285162,114.855485,-9418.149754
142.985472,76.570323,172.283227,-9437.292334
142.986099,76.570323,172.283227,-9456.434915
142.986726,76.570323,114.855485,-9418.149754
142.987354,38.285162,210.568389,-9437.292334
142.987981,133.998066,114.855485,-9475.577496
142.988609,76.570323,114.855485,-9418.149754
142.989236,76.570323,172.283227,-9418.149754
142.989864,76.570323,210.568389,-9418.149754
142.990491,133.998066,172.283227,-9418.149754
142.991119,153.140646,172.283227,-9399.007173
142.991746,38.285162,114.855485,-9418.149754
142.992374,76.570323,153.140646,-9418.149754
142.993001,133.998066,114.855485,-9418.149754
142.993629,76.570323,114.855485,-9418.149754
142.994256,95.712904,172.283227,-9456.434915
142.994883,133.998066,114.855485,-9418.149754
142.995511,133.998066,114.855485,-9418.149754
142.996138,76.570323,172.283227,-9437.292334
142.996766,133.998066,153.140646,-9418.149754
142.997393,133.998066,114.855485,-9437.292334
142.998021,153.140646,133.998066,-9399.007173
142.998648,76.570323,153.140646,-9418.149754
142.999276,153.140646,114.855485,-9418.149754
142.999903,38.285162,114.855485,-9418.149754
143.000531,95.712904,133.998066,-9475.577496
143.001158,76.570323,114.855485,-9418.149754
143.001786,76.570323,210.568389,-9437.292334
143.002413,76.570323,114.855485,-9456.434915
143.003040,114.855485,172.283227,-9379.864592
143.003668,76.570323,114.855485,-9437.292334
143.004295,133.998066,133.998066,-9399.007173
143.004923,133.998066,114.855485,-9418.149754
143.005550,133.998066,153.140646,-9418.149754
143.006178,114.855485,95.712904,-9399.007173
143.006805,76.570323,114.855485,-9475.577496
143.007433,95.712904,133.998066,-9360.722011
143.008060,153.140646,153.140646,-9494.720077
143.008688,133.998066,172.283227,-9418.149754
143.009315,153.140646,133.998066,-9399.007173
143.009943,133.998066,114.855485,-9533.005238
143.010570,19.142581,191.425808,-9475.577496
143.011198,76.570323,210.568389,-9418.149754
143.011825,133.998066,133.998066,-9437.292334
143.012452,133.998066,114.855485,-9418.149754
143.013080,76.570323,114.855485,-9418.149754
143.013707,133.998066,114.855485,-9475.577496
143.014335,133.998066,114.855485,-9418.149754
143.014962,95.712904,114.855485,-9418.149754
143.015590,76.570323,114.855485,-9418.149754
143.016217,133.998066,114.855485,-9418.149754
143.016845,114.855485,95.712904,-9437.292334
143.017472,76.570323,229.710970,-9418.149754
143.018100,133.998066,153.140646,-9456.434915
143.018727,38.285162,114.855485,-9418.149754
143.019355,133.998066,210.568389,-9360.722011
143.019982,57.427742,191.425808,-9360.722011
143.020609,133.998066,153.140646,-9418.149754
143.021237,76.570323,114.855485,-9437.292334
143.021864,76.570323,114.855485,-9437.292334
143.022492,76.570323,95.712904,-9475.577496
143.023119,133.998066,114.855485,-9533.005238
143.023747,133.998066,133.998066,-9437.292334
143.024374,57.427742,95.712904,-9399.007173
143.025002,76.570323,114.855485,-9456.434915
143.025629,153.140646,114.855485,-9418.149754
143.026257,133.998066,114.855485,-9437.292334
143.026884,38.285162,153.140646,-9437.292334
143.027512,153.140646,114.855485,-9418.149754
143.028139,76.570323,114.855485,-9418.149754
143.028766,95.712904,114.855485,-9418.149754
143.029394,133.998066,114.855485,-9418.149754
143.030021,153.140646,133.998066,-9399.007173
143.030649,114.855485,95.712904,-9437.292334
143.031276,76.570323,114.855485,-9456.434915
143.031904,133.998066,210.568389,-9418.149754
143.032531,133.998066,114.855485,-9418.149754
143.033159,76.570323,95.712904,-9456.434915
143.033786,76.570323,114.855485,-9418.149754
143.034414,114.855485,153.140646,-9360.722011
143.035041,153.140646,133.998066,-9437.292334
143.035669,114.855485,133.998066,-9418.149754
143.036297,57.427742,133.998066,-9418.149754
143.036924,76.570323,114.855485,-9418.149754
143.037552,133.998066,114.855485,-9418.149754
143.038179,133.998066,133.998066,-9399.007173
143.038807,38.285162,153.140646,-9418.149754
143.039434,76.570323,114.855485,-9418.149754
143.040062,133.998066,172.283227,-9418.149754
143.040689,76.570323,153.140646,-9456.434915
143.041317,153.140646,153.140646,-9399.007173
143.041944,76.570323,114.855485,-9418.149754
143.042572,57.427742,191.425808,-9437.292334
143.043199,133.998066,114.855485,-9456.434915
143.043827,133.998066,114.855485,-9475.577496
143.044454,76.570323,114.855485,-9456.434915
143.045082,114.855485,95.712904,-9437.292334
143.045709,76.570323,114.855485,-9418.149754
143.046337,76.570323,114.855485,-9418.149754
143.046964,133.998066,153.140646,-9437.292334
143.047592,153.140646,191.425808,-9456.434915
143.048220,38.285162,114.855485,-9437.292334
143.048847,76.570323,114.855485,-9418.149754
143.049475,95.712904,133.998066,-9360.722011
143.050102,133.998066,114.855485,-9418.149754
143.050730,57.427742,114.855485,-9399.007173
143.051357,76.570323,114.855485,-9418.149754
143.051985,133.998066,172.283227,-9456.434915
143.052612,95.712904,191.425808,-9360.722011
143.053240,38.285162,114.855485,-9437.292334
143.053867,38.285162,114.855485,-9475.577496
143.054495,38.285162,114.855485,-9475.577496
143.055122,133.998066,153.140646,-9456.434915
143.055750,133.998066,153.140646,-9456.434915
143.056377,114.855485,95.712904,-9399.007173
143.057005,114.855485,95.712904,-9399.007173
143.057632,153.140646,114.855485,-9456.434915
143.058260,153.140646,133.998066,-9437.292334
143.058888,133.998066,172.283227,-9418.149754
143.059515,133.998066,114.855485,-9456.434915
143.060143,38.285162,114.855485,-9418.149754
143.060770,76.570323,114.855485,-9494.720077
143.061398,57.427742,95.712904,-9399.007173
143.062025,114.855485,95.712904,-9437.292334
143.062653,153.140646,133.998066,-9399.007173
143.063280,133.998066,191.425808,-9418.149754
143.063908,153.140646,133.998066,-9399.007173
143.064535,133.998066,191.425808,-9437.292334
143.065163,133.998066,114.855485,-9437.292334
143.065790,76.570323,210.568389,-9418.149754
143.066418,76.570323,114.855485,-9418.149754
143.067045,133.998066,191.425808,-9456.434915
143.067673,76.570323,114.855485,-9418.149754
143.068300,133.998066,133.998066,-9456.434915
143.068928,133.998066,191.425808,-9437.292334
143.069556,172.283227,114.855485,-9571.290400
143.070183,76.570323,114.855485,-9456.434915
143.070811,76.570323,95.712904,-9399.007173
143.071438,133.998066,114.855485,-9418.149754
143.072066,76.570323,172.283227,-9418.149754
143.072693,76.570323,114.855485,-9418.149754
143.073321,133.998066,114.855485,-9437.292334
143.073948,76.570323,114.855485,-9418.149754
143.074576,133.998066,172.283227,-9418.149754
143.075203,133.998066,114.855485,-9437.292334
143.075831,95.712904,133.998066,-9360.722011
143.076458,133.998066,210.568389,-9456.434915
143.077086,95.712904,133.998066,-9360.722011
143.077713,114.855485,76.570323,-9418.149754
143.078341,95.712904,133.998066,-9379.864592
143.078968,133.998066,76.570323,-9322.436850
143.079596,114.855485,133.998066,-9360.722011
143.080224,76.570323,114.855485,-9418.149754
143.080851,76.570323,114.855485,-9418.149754
143.081479,133.998066,114.855485,-9437.292334
143.082106,153.140646,172.283227,-9437.292334
143.082734,172.283227,114.855485,-9379.864592
143.083361,76.570323,114.855485,-9418.149754
143.083989,95.712904,95.712904,-9399.007173
143.084616,133.998066,114.855485,-9418.149754
143.085244,76.570323,114.855485,-9418.149754
143.085871,95.712904,114.855485,-9437.292334
143.086499,133.998066,114.855485,-9418.149754
143.087126,114.855485,133.998066,-9360.722011
143.087754,133.998066,133.998066,-9399.007173
143.088381,95.712904,133.998066,-9360.722011
143.089009,76.570323,172.283227,-9437.292334
143.089636,76.570323,153.140646,-9418.149754
143.090264,38.285162,114.855485,-9456.434915
143.090891,76.570323,114.855485,-9418.149754
143.091519,95.712904,114.855485,-9475.577496
143.092147,76.570323,114.855485,-9418.149754
143.092774,153.140646,133.998066,-9399.007173
143.093402,95.712904,95.712904,-9494.720077
143.094029,95.712904,114.855485,-9399.007173
143.094657,95.712904,95.712904,-9437.292334
143.095284,57.427742,133.998066,-9360.722011
143.095912,114.855485,153.140646,-9418.149754
143.096539,76.570323,191.425808,-9494.720077
143.097167,133.998066,114.855485,-9418.149754
143.097794,133.998066,114.855485,-9494.720077
143.098422,133.998066,114.855485,-9418.149754
143.099049,76.570323,114.855485,-9475.577496
143.099677,38.285162,114.855485,-9418.149754
143.100304,95.712904,114.855485,-9456.434915
143.100932,133.998066,76.570323,-9379.864592
143.101559,76.570323,114.855485,-9418.149754
143.102187,76.570323,172.283227,-9475.577496
143.102815,76.570323,172.283227,-9494.720077
143.103442,76.570323,114.855485,-9437.292334
143.104070,133.998066,210.568389,-9418.149754
143.104697,133.998066,229.710970,-9418.149754
143.105325,95.712904,133.998066,-9360.722011
143.105952,133.998066,133.998066,-9399.007173
143.106580,133.998066,114.855485,-9456.434915
143.107207,172.283227,114.855485,-9379.864592
143.107835,76.570323,114.855485,-9418.149754
143.108462,114.855485,114.855485,-9437.292334
143.109090,76.570323,114.855485,-9475.577496
143.109717,133.998066,229.710970,-9418.149754
143.110345,133.998066,229.710970,-9418.149754
143.110972,76.570323,172.283227,-9456.434915
143.111600,76.570323,153.140646,-9418.149754
143.112227,38.285162,114.855485,-9418.149754
143.112855,114.855485,95.712904,-9494.720077
143.113483,133.998066,172.283227,-9399.007173
143.114110,133.998066,114.855485,-9418.149754
143.114738,95.712904,95.712904,-9399.007173
143.115365,133.998066,114.855485,-9418.149754
143.115993,95.712904,95.712904,-9494.720077
