#time,accel_x,accel_y,accel_z
72.768873,133.998066,114.855485,-9418.149754
72.769501,153.140646,133.998066,-9399.007173
72.770130,95.712904,133.998066,-9360.722011
72.770758,172.283227,114.855485,-9379.864592
72.771386,133.998066,133.998066,-9399.007173
72.772014,76.570323,114.855485,-9418.149754
72.772642,76.570323,114.855485,-9437.292334
72.773270,76.570323,114.855485,-9456.434915
72.773898,95.712904,114.855485,-9418.149754
72.774527,172.283227,76.570323,-9418.149754
72.775155,153.140646,210.568389,-9399.007173
72.775783,38.285162,114.855485,-9418.149754
72.776411,57.427742,133.998066,-9360.722011
72.777039,76.570323,172.283227,-9360.722011
72.777667,57.427742,95.712904,-9399.007173
72.778295,76.570323,172.283227,-9418.149754
72.778923,172.283227,114.855485,-9379.864592
72.779552,76.570323,114.855485,-9437.292334
72.780180,133.998066,114.855485,-9360.722011
72.780808,133.998066,114.855485,-9418.149754
72.781436,133.998066,114.855485,-9437.292334
72.782064,172.283227,76.570323,-9418.149754
72.782692,153.140646,153.140646,-9437.292334
72.783320,76.570323,153.140646,-9437.292334
72.783949,76.570323,114.855485,-9437.292334
72.784577,153.140646,172.283227,-9456.434915
72.785205,95.712904,153.140646,-9437.292334
72.785833,153.140646,191.425808,-9456.434915
72.786461,76.570323,114.855485,-9437.292334
72.787089,95.712904,114.855485,-9456.434915
72.787717,76.570323,191.425808,-9399.007173
72.788345,19.142581,153.140646,-9418.149754
72.788974,95.712904,133.998066,-9360.722011
72.789602,133.998066,114.855485,-9437.292334
72.790230,76.570323,114.855485,-9418.149754
72.790858,76.570323,153.140646,-9437.292334
72.791486,38.285162,114.855485,-9418.149754
72.792114,38.285162,153.140646,-9456.434915
72.792742,19.142581,114.855485,-9437.292334
72.793371,76.570323,153.140646,-9418.149754
72.793999,153.140646,172.283227,-9399.007173
72.794627,133.998066,191.425808,-9399.007173
72.795255,19.142581,153.140646,-9418.149754
72.795883,76.570323,114.855485,-9437.292334
72.796511,76.570323,114.855485,-9456.434915
72.797139,76.570323,172.283227,-9456.434915
72.797767,153.140646,133.998066,-9399.007173
72.798396,76.570323,114.855485,-9418.149754
72.799024,133.998066,114.855485,-9418.149754
72.799652,133.998066,172.283227,-9437.292334
72.800280,133.998066,114.855485,-9418.149754
72.800908,172.283227,76.570323,-9418.149754
72.801536,76.570323,172.283227,-9418.149754
72.802164,76.570323,114.855485,-9418.149754
72.802792,76.570323,114.855485,-9418.149754
72.803421,133.998066,191.425808,-9437.292334
72.804049,133.998066,210.568389,-9418.149754
72.804677,76.570323,114.855485,-9418.149754
72.805305,38.285162,114.855485,-9437.292334
72.805933,114.855485,95.712904,-9437.292334
72.806561,38.285162,114.855485,-9456.434915
72.807189,76.570323,172.283227,-9418.149754
72.807818,76.570323,172.283227,-9418.149754
72.808446,114.855485,95.712904,-9456.434915
72.809074,76.570323,172.283227,-9533.005238
72.809702,133.998066,114.855485,-9418.149754
72.810330,153.140646,172.283227,-9399.007173
72.810958,133.998066,172.283227,-9437.292334
72.811586,76.570323,153.140646,-9418.149754
72.812214,95.712904,114.855485,-9456.434915
72.812843,76.570323,114.855485,-9418.149754
72.813471,133.998066,172.283227,-9399.007173
72.814099,133.998066,114.855485,-9418.149754
72.814727,114.855485,172.283227,-9360.722011
72.815355,95.712904,153.140646,-9360.722011
72.815983,76.570323,114.855485,-9418.149754
72.816611,38.285162,114.855485,-9418.149754
72.817240,95.712904,95.712904,-9399.007173
72.817868,133.998066,114.855485,-9437.292334
72.818496,95.712904,95.712904,-9494.720077
72.819124,133.998066,172.283227,-9418.149754
72.819752,76.570323,114.855485,-9418.149754
72.820380,95.712904,191.425808,-9418.149754
72.821008,76.570323,114.855485,-9418.149754
72.821636,95.712904,153.140646,-9418.149754
72.822264,133.998066,114.855485,-9418.149754
72.822892,76.570323,114.855485,-9418.149754
72.823520,76.570323,95.712904,-9399.007173
72.824148,95.712904,153.140646,-9418.149754
72.824775,133.998066,114.855485,-9418.149754
72.825403,114.855485,95.712904,-9399.007173
72.826031,76.570323,114.855485,-9437.292334
72.826659,95.712904,95.712904,-9399.007173
72.827287,76.570323,114.855485,-9418.149754
72.827914,95.712904,95.712904,-9399.007173
72.828542,76.570323,114.855485,-9456.434915
72.829170,210.568389,133.998066,-9399.007173
72.829798,153.140646,133.998066,-9475.577496
72.830425,76.570323,114.855485,-9418.149754
72.831053,38.285162,114.855485,-9418.149754
72.831681,76.570323,114.855485,-9418.149754
72.832309,133.998066,114.855485,-9418.149754
72.832937,76.570323,114.855485,-9437.292334
72.833564,76.570323,114.855485,-9494.720077
72.834192,76.570323,172.283227,-9475.577496
72.834820,76.570323,114.855485,-9418.149754
72.835448,133.998066,114.855485,-9418.149754
72.836076,38.285162,114.855485,-9418.149754
72.836703,38.285162,114.855485,-9418.149754
72.837331,133.998066,114.855485,-9418.149754
72.837959,133.998066,153.140646,-9475.577496
72.838587,76.570323,153.140646,-9418.149754
72.839214,153.140646,172.283227,-9475.577496
72.839842,153.140646,133.998066,-9399.007173
72.840470,114.855485,95.712904,-9399.007173
72.841098,38.285162,172.283227,-9418.149754
72.841726,76.570323,114.855485,-9456.434915
72.842353,76.570323,114.855485,-9360.722011
72.842981,95.712904,95.712904,-9456.434915
72.843609,133.998066,172.283227,-9418.149754
72.844237,76.570323,114.855485,-9360.722011
72.844865,76.570323,114.855485,-9418.149754
72.845492,114.855485,95.712904,-9475.577496
72.846120,133.998066,114.855485,-9456.434915
72.846748,95.712904,95.712904,-9399.007173
72.847376,153.140646,172.283227,-9456.434915
72.848003,76.570323,114.855485,-9418.149754
72.848631,95.712904,133.998066,-9437.292334
72.849259,76.570323,114.855485,-9475.577496
72.849887,153.140646,133.998066,-9399.007173
72.850515,76.570323,114.855485,-9418.149754
72.851142,133.998066,153.140646,-9456.434915
72.851770,76.570323,153.140646,-9437.292334
72.852398,133.998066,114.855485,-9418.149754
72.853026,76.570323,114.855485,-9418.149754
72.853654,114.855485,153.140646,-9360.722011
72.854281,114.855485,133.998066,-9360.722011
72.854909,76.570323,210.568389,-9418.149754
72.855537,133.998066,248.853550,-9399.007173
72.856165,133.998066,114.855485,-9418.149754
72.856793,133.998066,114.855485,-9437.292334
72.857420,133.998066,210.568389,-9418.149754
72.858048,133.998066,114.855485,-9418.149754
72.858676,38.285162,172.283227,-9418.149754
72.859304,76.570323,114.855485,-9418.149754
72.859931,133.998066,114.855485,-9475.577496
72.860559,133.998066,153.140646,-9456.434915
72.861187,133.998066,114.855485,-9418.149754
72.861815,172.283227,76.570323,-9418.149754
72.862443,114.855485,133.998066,-9360.722011
72.863070,76.570323,172.283227,-9437.292334
72.863698,172.283227,114.855485,-9379.864592
72.864326,76.570323,114.855485,-9437.292334
72.864954,133.998066,210.568389,-9456.434915
72.865582,133.998066,153.140646,-9437.292334
72.866209,76.570323,172.283227,-9418.149754
72.866837,114.855485,95.712904,-9437.292334
72.867465,153.140646,153.140646,-9399.007173
72.868093,76.570323,114.855485,-9456.434915
72.868720,114.855485,95.712904,-9399.007173
72.869348,76.570323,114.855485,-9475.577496
72.869976,57.427742,133.998066,-9360.722011
72.870604,133.998066,114.855485,-9418.149754
72.871232,76.570323,114.855485,-9437.292334
72.871859,133.998066,114.855485,-9437.292334
72.872487,133.998066,172.283227,-9418.149754
72.873115,133.998066,210.568389,-9418.149754
72.873743,76.570323,172.283227,-9418.149754
72.874371,114.855485,95.712904,-9437.292334
72.874998,133.998066,114.855485,-9418.149754
72.875626,133.998066,76.570323,-9379.864592
72.876254,133.998066,114.855485,-9475.577496
72.876882,133.998066,114.855485,-9418.149754
72.877509,38.285162,114.855485,-9475.577496
72.878137,133.998066,210.568389,-9456.434915
72.878765,133.998066,114.855485,-9475.577496
72.879393,76.570323,114.855485,-9418.149754
72.880021,133.998066,114.855485,-9437.292334
72.880648,76.570323,153.140646,-9456.434915
72.881276,133.998066,153.140646,-9418.149754
72.881904,133.998066,172.283227,-9456.434915
72.882532,133.998066,114.855485,-9418.149754
72.883160,153.140646,133.998066,-9399.007173
72.883787,76.570323,172.283227,-9418.149754
72.884415,95.712904,95.712904,-9399.007173
72.885043,133.998066,114.855485,-9418.149754
72.885671,133.998066,133.998066,-9437.292334
72.886298,95.712904,95.712904,-9418.149754
72.886926,153.140646,133.998066,-9399.007173
72.887554,133.998066,114.855485,-9418.149754
72.888182,76.570323,114.855485,-9418.149754
72.888810,57.427742,95.712904,-9399.007173
72.889437,76.570323,114.855485,-9418.149754
72.890065,114.855485,248.853550,-9360.722011
72.890693,95.712904,114.855485,-9418.149754
72.891321,95.712904,191.425808,-9360.722011
72.891949,76.570323,153.140646,-9437.292334
72.892576,76.570323,114.855485,-9418.149754
72.893204,38.285162,153.140646,-9437.292334
72.893832,133.998066,172.283227,-9418.149754
72.894460,133.998066,114.855485,-9418.149754
72.895087,133.998066,114.855485,-9456.434915
72.895715,76.570323,153.140646,-9418.149754
72.896343,38.285162,114.855485,-9418.149754
72.896971,19.142581,172.283227,-9418.149754
72.897599,95.712904,114.855485,-9418.149754
72.898226,133.998066,114.855485,-9418.149754
72.898854,76.570323,114.855485,-9456.434915
72.899482,76.570323,114.855485,-9418.149754
72.900110,76.570323,172.283227,-9418.149754
72.900738,76.570323,114.855485,-9418.149754
72.901365,76.570323,114.855485,-9418.149754
72.901993,19.142581,114.855485,-9456.434915
72.902621,38.285162,210.568389,-9418.149754
72.903249,172.283227,153.140646,-9360.722011
72.903876,133.998066,114.855485,-9418.149754
72.904504,38.285162,114.855485,-9437.292334
72.905132,153.140646,133.998066,-9399.007173
72.905760,133.998066,210.568389,-9418.149754
72.906388,153.140646,133.998066,-9399.007173
72.907015,133.998066,114.855485,-9475.577496
72.907643,38.285162,172.283227,-9418.149754
72.908271,76.570323,114.855485,-9418.149754
72.908899,114.855485,133.998066,-9341.579430
72.909527,133.998066,114.855485,-9418.149754
72.910154,133.998066,114.855485,-9360.722011
72.910782,95.712904,114.855485,-9418.149754
72.911410,133.998066,172.283227,-9418.149754
72.912038,133.998066,114.855485,-9418.149754
72.912665,76.570323,133.998066,-9360.722011
72.913293,38.285162,114.855485,-9456.434915
72.913921,95.712904,114.855485,-9418.149754
72.914549,95.712904,153.140646,-9437.292334
72.915177,76.570323,114.855485,-9437.292334
72.915804,38.285162,114.855485,-9456.434915
72.916432,38.285162,210.568389,-9418.149754
72.917060,95.712904,172.283227,-9437.292334
72.917688,133.998066,210.568389,-9418.149754
72.918316,76.570323,114.855485,-9437.292334
72.918943,76.570323,114.855485,-9475.577496
72.919571,95.712904,133.998066,-9418.149754
72.920199,133.998066,153.140646,-9456.434915
72.920827,76.570323,76.570323,-9399.007173
72.921454,133.998066,114.855485,-9418.149754
72.922082,95.712904,133.998066,-9360.722011
72.922709,76.570323,114.855485,-9418.149754
72.923335,76.570323,114.855485,-9418.149754
72.923962,76.570323,114.855485,-9456.434915
72.924589,76.570323,172.283227,-9437.292334
72.925215,76.570323,191.425808,-9437.292334
72.925842,133.998066,229.710970,-9456.434915
72.926469,95.712904,153.140646,-9360.722011
72.927095,133.998066,172.283227,-9456.434915
72.927722,76.570323,172.283227,-9418.149754
72.928348,133.998066,172.283227,-9418.149754
72.928975,95.712904,95.712904,-9399.007173
72.929602,133.998066,114.855485,-9456.434915
72.930228,133.998066,114.855485,-9456.434915
72.930855,210.568389,133.998066,-9494.720077
72.931481,38.285162,172.283227,-9418.149754
72.932108,133.998066,114.855485,-9456.434915
72.932735,133.998066,210.568389,-9456.434915
72.933361,76.570323,114.855485,-9418.149754
72.933988,114.855485,76.570323,-9418.149754
72.934614,133.998066,114.855485,-9418.149754
72.935241,76.570323,172.283227,-9418.149754
72.935868,76.570323,172.283227,-9437.292334
72.936494,76.570323,114.855485,-9475.577496
72.937121,133.998066,191.425808,-9475.577496
72.937748,133.998066,114.855485,-9418.149754
72.938374,133.998066,172.283227,-9418.149754
72.939001,38.285162,172.283227,-9437.292334
72.939627,114.855485,133.998066,-9360.722011
72.940254,133.998066,229.710970,-9418.149754
72.940881,76.570323,210.568389,-9437.292334
72.941507,76.570323,153.140646,-9418.149754
72.942134,76.570323,114.855485,-9456.434915
72.942760,133.998066,114.855485,-9418.149754
72.943387,153.140646,133.998066,-9399.007173
72.944014,133.998066,172.283227,-9399.007173
72.944640,76.570323,153.140646,-9456.434915
72.945267,76.570323,172.283227,-9456.434915
72.945893,38.285162,114.855485,-9418.149754
72.946520,133.998066,172.283227,-9475.577496
72.947147,76.570323,210.568389,-9418.149754
72.947773,133.998066,114.855485,-9437.292334
72.948400,133.998066,191.425808,-9399.007173
72.949027,95.712904,153.140646,-9360.722011
72.949653,76.570323,114.855485,-9418.149754
72.950280,114.855485,95.712904,-9399.007173
72.950906,172.283227,172.283227,-9379.864592
72.951533,153.140646,191.425808,-9494.720077
72.952160,153.140646,153.140646,-9513.862658
72.952786,76.570323,153.140646,-9456.434915
72.953413,153.140646,133.998066,-9399.007173
72.954039,38.285162,114.855485,-9418.149754
72.954666,172.283227,133.998066,-9418.149754
72.955293,153.140646,133.998066,-9399.007173
72.955919,38.285162,114.855485,-9475.577496
72.956546,133.998066,114.855485,-9456.434915
72.957172,133.998066,133.998066,-9456.434915
72.957799,133.998066,210.568389,-9418.149754
72.958426,76.570323,191.425808,-9360.722011
72.959052,95.712904,114.855485,-9418.149754
72.959679,95.712904,114.855485,-9456.434915
72.960306,76.570323,114.855485,-9418.149754
72.960932,95.712904,95.712904,-9399.007173
72.961559,133.998066,114.855485,-9418.149754
72.962185,172.283227,95.712904,-9399.007173
72.962812,76.570323,114.855485,-9418.149754
72.963439,133.998066,172.283227,-9437.292334
72.964065,153.140646,133.998066,-9399.007173
72.964692,76.570323,95.712904,-9399.007173
72.965318,133.998066,133.998066,-9456.434915
72.965945,172.283227,95.712904,-9399.007173
72.966572,114.855485,95.712904,-9437.292334
72.967198,153.140646,133.998066,-9437.292334
72.967825,114.855485,114.855485,-9379.864592
72.968451,153.140646,133.998066,-9399.007173
72.969078,133.998066,172.283227,-9456.434915
72.969705,76.570323,172.283227,-9418.149754
72.970331,133.998066,114.855485,-9418.149754
72.970958,153.140646,172.283227,-9399.007173
72.971585,133.998066,153.140646,-9437.292334
72.972211,95.712904,95.712904,-9456.434915
72.972838,76.570323,153.140646,-9418.149754
72.973464,76.570323,114.855485,-9418.149754
72.974091,153.140646,191.425808,-9399.007173
72.974718,95.712904,133.998066,-9360.722011
72.975344,133.998066,153.140646,-9475.577496
72.975971,133.998066,114.855485,-9456.434915
72.976597,133.998066,172.283227,-9456.434915
72.977224,76.570323,114.855485,-9475.577496
72.977851,133.998066,172.283227,-9494.720077
72.978477,153.140646,191.425808,-9399.007173
72.979104,153.140646,133.998066,-9456.434915
72.979730,210.568389,133.998066,-9437.292334
72.980357,133.998066,210.568389,-9437.292334
72.980984,133.998066,172.283227,-9399.007173
72.981610,133.998066,153.140646,-9437.292334
72.982237,133.998066,114.855485,-9437.292334
72.982864,114.855485,114.855485,-9379.864592
72.983490,76.570323,114.855485,-9418.149754
72.984117,76.570323,172.283227,-9418.149754
72.984743,133.998066,153.140646,-9437.292334
72.985370,76.570323,172.283227,-9418.149754
72.985997,76.570323,153.140646,-9475.577496
72.986623,133.998066,114.855485,-9475.577496
72.987250,133.998066,114.855485,-9475.577496
72.987876,133.998066,114.855485,-9456.434915
72.988503,38.285162,210.568389,-9418.149754
72.989130,76.570323,172.283227,-9418.149754
72.989756,76.570323,210.568389,-9418.149754
72.990383,133.998066,153.140646,-9456.434915
72.991009,76.570323,114.855485,-9418.149754
72.991636,57.427742,95.712904,-9399.007173
72.992263,153.140646,133.998066,-9399.007173
72.992889,153.140646,133.998066,-9399.007173
72.993516,114.855485,114.855485,-9399.007173
72.994143,153.140646,172.283227,-9456.434915
72.994769,76.570323,114.855485,-9418.149754
72.995396,114.855485,95.712904,-9399.007173
72.996022,38.285162,114.855485,-9418.149754
72.996649,133.998066,172.283227,-9399.007173
72.997276,133.998066,172.283227,-9418.149754
72.997902,133.998066,172.283227,-9456.434915
72.998529,95.712904,133.998066,-9360.722011
72.999155,133.998066,172.283227,-9418.149754
72.999782,76.570323,114.855485,-9437.292334
73.000409,133.998066,153.140646,-9418.149754
73.001035,133.998066,114.855485,-9456.434915
73.001662,114.855485,172.283227,-9379.864592
73.002288,133.998066,172.283227,-9418.149754
73.002915,153.140646,191.425808,-9399.007173
73.003542,133.998066,153.140646,-9437.292334
73.004168,133.998066,133.998066,-9437.292334
73.004795,76.570323,172.283227,-9418.149754
73.005422,133.998066,172.283227,-9418.149754
73.006048,153.140646,248.853550,-9437.292334
73.006675,76.570323,114.855485,-9418.149754
73.007301,38.285162,114.855485,-9418.149754
73.007928,95.712904,114.855485,-9399.007173
73.008555,76.570323,114.855485,-9418.149754
73.009181,133.998066,114.855485,-9494.720077
73.009808,38.285162,229.710970,-9418.149754
73.010434,76.570323,172.283227,-9418.149754
73.011061,95.712904,172.283227,-9437.292334
73.011688,38.285162,172.283227,-9418.149754
73.012314,153.140646,133.998066,-9399.007173
73.012941,133.998066,133.998066,-9399.007173
73.013567,133.998066,172.283227,-9475.577496
73.014194,133.998066,114.855485,-9418.149754
73.014821,38.285162,76.570323,-9399.007173
73.015447,76.570323,172.283227,-9418.149754
73.016074,38.285162,153.140646,-9418.149754
73.016701,76.570323,114.855485,-9437.292334
73.017327,95.712904,114.855485,-9437.292334
73.017954,76.570323,114.855485,-9437.292334
73.018580,76.570323,172.283227,-9418.149754
73.019207,133.998066,133.998066,-9399.007173
73.019834,76.570323,172.283227,-9456.434915
73.020460,76.570323,114.855485,-9418.149754
73.021087,172.283227,172.283227,-9379.864592
73.021713,133.998066,153.140646,-9418.149754
73.022340,76.570323,153.140646,-9437.292334
73.022967,76.570323,114.855485,-9418.149754
73.023593,76.570323,114.855485,-9418.149754
73.024220,133.998066,114.855485,-9418.149754
73.024846,133.998066,114.855485,-9437.292334
73.025473,153.140646,133.998066,-9399.007173
73.026100,133.998066,210.568389,-9418.149754
73.026726,76.570323,172.283227,-9456.434915
73.027353,133.998066,114.855485,-9418.149754
73.027980,95.712904,133.998066,-9418.149754
73.028607,133.998066,172.283227,-9437.292334
73.029235,133.998066,114.855485,-9418.149754
73.029862,76.570323,95.712904,-9399.007173
73.030489,133.998066,133.998066,-9437.292334
73.031116,76.570323,114.855485,-9418.149754
73.031743,133.998066,133.998066,-9399.007173
73.032371,76.570323,153.140646,-9437.292334
73.032998,57.427742,114.855485,-9418.149754
73.033625,114.855485,114.855485,-9399.007173
73.034252,133.998066,172.283227,-9399.007173
73.034879,95.712904,95.712904,-9437.292334
73.035507,76.570323,172.283227,-9418.149754
73.036134,133.998066,114.855485,-9475.577496
73.036761,133.998066,172.283227,-9418.149754
73.037388,133.998066,114.855485,-9418.149754
73.038015,133.998066,114.855485,-9418.149754
73.038643,114.855485,95.712904,-9437.292334
73.039270,76.570323,114.855485,-9418.149754
73.039897,133.998066,114.855485,-9418.149754
73.040524,57.427742,153.140646,-9418.149754
73.041152,57.427742,114.855485,-9399.007173
73.041779,95.712904,191.425808,-9360.722011
73.042406,76.570323,153.140646,-9418.149754
73.043033,38.285162,114.855485,-9418.149754
73.043660,114.855485,133.998066,-9360.722011
73.044288,57.427742,95.712904,-9399.007173
73.044915,95.712904,114.855485,-9437.292334
73.045542,38.285162,114.855485,-9418.149754
73.046169,172.283227,153.140646,-9379.864592
73.046796,133.998066,114.855485,-9418.149754
73.047424,133.998066,114.855485,-9456.434915
73.048051,76.570323,114.855485,-9418.149754
73.048678,133.998066,114.855485,-9399.007173
73.049305,114.855485,114.855485,-9399.007173
73.049932,133.998066,172.283227,-9418.149754
73.050560,133.998066,114.855485,-9418.149754
73.051187,76.570323,114.855485,-9418.149754
73.051814,172.283227,133.998066,-9437.292334
73.052441,153.140646,133.998066,-9399.007173
73.053069,133.998066,153.140646,-9437.292334
73.053696,38.285162,153.140646,-9456.434915
73.054323,133.998066,172.283227,-9456.434915
73.054950,76.570323,248.853550,-9360.722011
73.055577,133.998066,114.855485,-9418.149754
73.056205,133.998066,114.855485,-9418.149754
73.056832,114.855485,95.712904,-9456.434915
73.057459,133.998066,172.283227,-9418.149754
73.058086,114.855485,114.855485,-9399.007173
73.058713,133.998066,114.855485,-9418.149754
73.059341,76.570323,114.855485,-9418.149754
73.059968,76.570323,114.855485,-9418.149754
73.060595,76.570323,229.710970,-9418.149754
73.061222,76.570323,153.140646,-9437.292334
73.061849,133.998066,114.855485,-9418.149754
73.062477,76.570323,114.855485,-9437.292334
73.063104,133.998066,153.140646,-9418.149754
73.063731,114.855485,95.712904,-9399.007173
73.064358,95.712904,95.712904,-9437.292334
73.064986,114.855485,95.712904,-9494.720077
73.065613,76.570323,153.140646,-9437.292334
73.066240,133.998066,172.283227,-9418.149754
73.066867,133.998066,114.855485,-9437.292334
73.067494,133.998066,114.855485,-9418.149754
73.068122,153.140646,133.998066,-9399.007173
73.068749,133.998066,172.283227,-9418.149754
73.069376,76.570323,172.283227,-9360.722011
73.070003,76.570323,114.855485,-9437.292334
73.070630,76.570323,114.855485,-9418.149754
73.071258,133.998066,114.855485,-9437.292334
73.071885,76.570323,114.855485,-9475.577496
73.072512,133.998066,114.855485,-9456.434915
73.073139,153.140646,210.568389,-9456.434915
73.073766,95.712904,210.568389,-9418.149754
73.074394,133.998066,153.140646,-9456.434915
73.075021,38.285162,114.855485,-9456.434915
73.075648,38.285162,114.855485,-9418.149754
73.076275,133.998066,153.140646,-9360.722011
73.076903,133.998066,153.140646,-9418.149754
73.077530,76.570323,153.140646,-9475.577496
73.078157,133.998066,114.855485,-9475.577496
73.078784,0.000000,133.998066,-9475.577496
73.079411,76.570323,210.568389,-9475.577496
73.080039,57.427742,133.998066,-9360.722011
73.080666,57.427742,114.855485,-9418.149754
73.081293,133.998066,114.855485,-9437.292334
73.081920,76.570323,153.140646,-9418.149754
73.082547,133.998066,114.855485,-9418.149754
73.083175,133.998066,114.855485,-9418.149754
73.083802,38.285162,114.855485,-9418.149754
73.084429,38.285162,153.140646,-9418.149754
73.085056,133.998066,172.283227,-9418.149754
73.085683,133.998066,153.140646,-9418.149754
73.086311,133.998066,133.998066,-9399.007173
73.086938,95.712904,114.855485,-9399.007173
73.087565,76.570323,114.855485,-9475.577496
73.088192,133.998066,191.425808,-9418.149754
73.088820,76.570323,114.855485,-9418.149754
73.089447,76.570323,172.283227,-9418.149754
73.090074,133.998066,114.855485,-9418.149754
73.090701,133.998066,133.998066,-9399.007173
73.091328,95.712904,95.712904,-9456.434915
73.091956,38.285162,114.855485,-9418.149754
73.092583,114.855485,133.998066,-9475.577496
73.093210,76.570323,114.855485,-9475.577496
73.093837,76.570323,114.855485,-9456.434915
73.094464,133.998066,114.855485,-9494.720077
73.095092,172.283227,76.570323,-9475.577496
73.095719,76.570323,114.855485,-9418.149754
73.096346,57.427742,172.283227,-9456.434915
73.096973,133.998066,114.855485,-9418.149754
73.097600,38.285162,114.855485,-9437.292334
73.098228,95.712904,114.855485,-9418.149754
73.098855,76.570323,114.855485,-9418.149754
73.099482,114.855485,133.998066,-9360.722011
73.100109,172.283227,210.568389,-9360.722011
73.100737,153.140646,133.998066,-9456.434915
73.101364,76.570323,153.140646,-9418.149754
73.101991,76.570323,153.140646,-9418.149754
73.102618,95.712904,153.140646,-9475.577496
73.103245,76.570323,210.568389,-9418.149754
73.103873,133.998066,172.283227,-9456.434915
73.104500,114.855485,210.568389,-9418.149754
73.105127,133.998066,229.710970,-9418.149754
73.105754,153.140646,133.998066,-9399.007173
73.106381,95.712904,114.855485,-9399.007173
73.107009,76.570323,114.855485,-9437.292334
73.107636,95.712904,210.568389,-9418.149754
73.108263,153.140646,133.998066,-9399.007173
73.108890,38.285162,172.283227,-9418.149754
73.109517,57.427742,191.425808,-9360.722011
73.110145,76.570323,114.855485,-9418.149754
73.110772,76.570323,114.855485,-9437.292334
73.111399,76.570323,153.140646,-9437.292334
73.112026,76.570323,153.140646,-9418.149754
73.112654,76.570323,114.855485,-9456.434915
73.113281,133.998066,172.283227,-9418.149754
73.113908,114.855485,153.140646,-9379.864592
73.114535,76.570323,114.855485,-9475.577496
73.115162,76.570323,114.855485,-9418.149754
73.115790,76.570323,114.855485,-9418.149754
73.116417,38.285162,114.855485,-9494.720077
73.117044,38.285162,114.855485,-9456.434915
73.117671,76.570323,114.855485,-9456.434915
73.118298,114.855485,133.998066,-9437.292334
73.118926,38.285162,114.855485,-9418.149754
73.119553,76.570323,172.283227,-9418.149754
73.120180,133.998066,210.568389,-9418.149754
73.120807,133.998066,114.855485,-9437.292334
73.121434,153.140646,153.140646,-9456.434915
73.122062,114.855485,95.712904,-9437.292334
73.122689,76.570323,114.855485,-9437.292334
73.123316,133.998066,172.283227,-9418.149754
73.123943,76.570323,153.140646,-9437.292334
73.124571,76.570323,153.140646,-9418.149754
73.125198,95.712904,95.712904,-9399.007173
73.125825,76.570323,114.855485,-9456.434915
73.126452,95.712904,95.712904,-9399.007173
73.127079,133.998066,133.998066,-9456.434915
73.127707,133.998066,114.855485,-9418.149754
73.128333,95.712904,114.855485,-9418.149754
73.128960,114.855485,114.855485,-9379.864592
73.129587,95.712904,95.712904,-9399.007173
73.130214,76.570323,153.140646,-9418.149754
73.130841,19.142581,133.998066,-9399.007173
73.131468,76.570323,210.568389,-9418.149754
73.132095,76.570323,172.283227,-9418.149754
73.132722,133.998066,153.140646,-9418.149754
73.133349,95.712904,133.998066,-9360.722011
73.133976,76.570323,114.855485,-9418.149754
73.134603,95.712904,133.998066,-9360.722011
73.135230,76.570323,172.283227,-9418.149754
73.135857,76.570323,114.855485,-9437.292334
73.136484,133.998066,210.568389,-9437.292334
73.137110,76.570323,114.855485,-9494.720077
73.137737,133.998066,153.140646,-9418.149754
73.138364,76.570323,153.140646,-9456.434915
73.138991,114.855485,210.568389,-9437.292334
73.139618,133.998066,172.283227,-9418.149754
73.140245,76.570323,114.855485,-9418.149754
73.140872,153.140646,210.568389,-9418.149754
73.141499,133.998066,114.855485,-9437.292334
73.142126,133.998066,114.855485,-9418.149754
73.142753,76.570323,114.855485,-9475.577496
73.143380,76.570323,172.283227,-9418.149754
73.144007,95.712904,95.712904,-9437.292334
73.144634,76.570323,114.855485,-9418.149754
73.145261,95.712904,114.855485,-9418.149754
73.145887,114.855485,153.140646,-9360.722011
73.146514,95.712904,229.710970,-9418.149754
73.147141,133.998066,172.283227,-9494.720077
73.147768,114.855485,95.712904,-9494.720077
73.148395,76.570323,114.855485,-9418.149754
73.149022,133.998066,172.283227,-9418.149754
73.149649,95.712904,114.855485,-9418.149754
73.150276,133.998066,210.568389,-9418.149754
73.150903,19.142581,114.855485,-9360.722011
73.151530,57.427742,153.140646,-9360.722011
73.152157,133.998066,172.283227,-9360.722011
73.152784,133.998066,153.140646,-9437.292334
73.153411,76.570323,153.140646,-9418.149754
73.154038,76.570323,153.140646,-9418.149754
73.154664,76.570323,229.710970,-9418.149754
73.155291,76.570323,172.283227,-9418.149754
73.155918,76.570323,191.425808,-9418.149754
73.156545,133.998066,153.140646,-9456.434915
73.157172,133.998066,172.283227,-9418.149754
73.157799,133.998066,210.568389,-9456.434915
73.158426,95.712904,172.283227,-9418.149754
73.159053,76.570323,114.855485,-9437.292334
73.159680,76.570323,153.140646,-9437.292334
73.160307,114.855485,95.712904,-9399.007173
73.160934,153.140646,133.998066,-9437.292334
73.161561,153.140646,172.283227,-9513.862658
73.162188,133.998066,172.283227,-9456.434915
73.162815,133.998066,172.283227,-9399.007173
73.163441,95.712904,114.855485,-9437.292334
73.164068,76.570323,153.140646,-9456.434915
73.164695,133.998066,210.568389,-9437.292334
73.165322,95.712904,95.712904,-9494.720077
73.165949,19.142581,114.855485,-9418.149754
73.166576,76.570323,114.855485,-9418.149754
73.167203,38.285162,114.855485,-9533.005238
73.167830,133.998066,114.855485,-9418.149754
73.168457,76.570323,210.568389,-9456.434915
73.169084,114.855485,172.283227,-9360.722011
73.169711,95.712904,95.712904,-9399.007173
73.170338,76.570323,114.855485,-9418.149754
73.170965,38.285162,153.140646,-9475.577496
73.171592,76.570323,114.855485,-9533.005238
73.172218,133.998066,210.568389,-9418.149754
73.172845,133.998066,114.855485,-9418.149754
73.173472,133.998066,133.998066,-9437.292334
73.174099,95.712904,153.140646,-9360.722011
73.174726,76.570323,114.855485,-9456.434915
73.175353,133.998066,114.855485,-9437.292334
73.175980,133.998066,133.998066,-9399.007173
73.176607,114.855485,133.998066,-9360.722011
73.177234,95.712904,172.283227,-9418.149754
73.177861,153.140646,210.568389,-9418.149754
73.178488,76.570323,114.855485,-9456.434915
73.179115,95.712904,210.568389,-9437.292334
73.179742,95.712904,133.998066,-9360.722011
73.180369,133.998066,114.855485,-9418.149754
73.180995,95.712904,114.855485,-9399.007173
73.181622,95.712904,95.712904,-9399.007173
73.182249,153.140646,133.998066,-9399.007173
73.182876,133.998066,114.855485,-9418.149754
73.183503,76.570323,172.283227,-9418.149754
73.184130,133.998066,172.283227,-9456.434915
73.184757,114.855485,76.570323,-9456.434915
73.185384,76.570323,153.140646,-9456.434915
73.186011,133.998066,114.855485,-9456.434915
73.186638,133.998066,114.855485,-9418.149754
73.187265,38.285162,114.855485,-9437.292334
73.187892,133.998066,76.570323,-9379.864592
73.188519,133.998066,114.855485,-9418.149754
73.189146,153.140646,153.140646,-9437.292334
73.189773,133.998066,133.998066,-9399.007173
73.190399,38.285162,153.140646,-9437.292334
73.191026,133.998066,153.140646,-9456.434915
73.191653,38.285162,114.855485,-9456.434915
73.192280,76.570323,172.283227,-9418.149754
73.192907,133.998066,153.140646,-9418.149754
73.193534,133.998066,114.855485,-9418.149754
73.194161,76.570323,114.855485,-9418.149754
73.194788,38.285162,153.140646,-9418.149754
73.195415,76.570323,210.568389,-9418.149754
73.196042,95.712904,114.855485,-9418.149754
73.196669,133.998066,114.855485,-9475.577496
73.197296,38.285162,114.855485,-9418.149754
73.197923,95.712904,95.712904,-9399.007173
73.198550,76.570323,114.855485,-9437.292334
73.199176,76.570323,114.855485,-9418.149754
73.199803,133.998066,191.425808,-9456.434915
73.200430,95.712904,153.140646,-9418.149754
73.201057,133.998066,153.140646,-9418.149754
73.201684,95.712904,153.140646,-9418.149754
73.202311,133.998066,114.855485,-9437.292334
73.202938,76.570323,153.140646,-9418.149754
73.203565,76.570323,114.855485,-9418.149754
73.204192,133.998066,191.425808,-9456.434915
73.204819,133.998066,114.855485,-9418.149754
73.205446,133.998066,133.998066,-9437.292334
73.206073,76.570323,114.855485,-9418.149754
73.206700,76.570323,114.855485,-9418.149754
73.207327,133.998066,153.140646,-9418.149754
73.207953,133.998066,114.855485,-9418.149754
73.208580,38.285162,153.140646,-9437.292334
73.209207,153.140646,172.283227,-9399.007173
73.209834,114.855485,114.855485,-9456.434915
73.210461,95.712904,95.712904,-9456.434915
73.211088,76.570323,114.855485,-9418.149754
73.211715,114.855485,114.855485,-9399.007173
73.212342,76.570323,210.568389,-9437.292334
73.212969,153.140646,133.998066,-9456.434915
73.213596,95.712904,172.283227,-9418.149754
73.214223,133.998066,133.998066,-9399.007173
73.214850,133.998066,114.855485,-9418.149754
73.215477,133.998066,210.568389,-9418.149754
73.216104,133.998066,114.855485,-9418.149754
73.216730,133.998066,114.855485,-9418.149754
73.217357,153.140646,76.570323,-9437.292334
73.217984,76.570323,114.855485,-9533.005238
73.218611,38.285162,114.855485,-9418.149754
73.219238,133.998066,133.998066,-9399.007173
73.219865,133.998066,133.998066,-9399.007173
73.220492,76.570323,191.425808,-9437.292334
73.221119,38.285162,114.855485,-9437.292334
73.221746,76.570323,153.140646,-9456.434915
73.222373,153.140646,133.998066,-9399.007173
73.223000,133.998066,172.283227,-9475.577496
73.223627,133.998066,133.998066,-9437.292334
73.224254,133.998066,153.140646,-9399.007173
73.224881,38.285162,153.140646,-9437.292334
73.225507,133.998066,114.855485,-9418.149754
73.226134,133.998066,191.425808,-9418.149754
73.226761,133.998066,114.855485,-9418.149754
73.227388,133.998066,153.140646,-9456.434915
73.228015,133.998066,248.853550,-9456.434915
73.228642,133.998066,153.140646,-9418.149754
73.229269,133.998066,210.568389,-9418.149754
73.229896,133.998066,172.283227,-9418.149754
73.230523,133.998066,210.568389,-9418.149754
73.231150,133.998066,114.855485,-9418.149754
73.231777,76.570323,210.568389,-9418.149754
73.232404,133.998066,114.855485,-9456.434915
73.233031,153.140646,133.998066,-9399.007173
73.233658,76.570323,153.140646,-9456.434915
73.234285,133.998066,153.140646,-9418.149754
73.234912,76.570323,172.283227,-9437.292334
73.235538,133.998066,153.140646,-9475.577496
73.236165,153.140646,133.998066,-9456.434915
73.236792,76.570323,114.855485,-9418.149754
73.237419,133.998066,153.140646,-9418.149754
73.238046,133.998066,114.855485,-9437.292334
73.238673,76.570323,114.855485,-9437.292334
73.239300,76.570323,114.855485,-9418.149754
73.239927,133.998066,114.855485,-9418.149754
73.240554,114.855485,172.283227,-9360.722011
73.241181,133.998066,114.855485,-9418.149754
73.241808,38.285162,210.568389,-9456.434915
73.242435,57.427742,172.283227,-9360.722011
73.243062,76.570323,114.855485,-9418.149754
73.243689,76.570323,114.855485,-9418.149754
73.244316,114.855485,95.712904,-9399.007173
73.244943,95.712904,95.712904,-9399.007173
73.245570,153.140646,133.998066,-9399.007173
73.246197,76.570323,172.283227,-9418.149754
73.246823,76.570323,114.855485,-9456.434915
73.247450,95.712904,114.855485,-9418.149754
73.248077,133.998066,153.140646,-9475.577496
73.248704,133.998066,133.998066,-9475.577496
73.249331,153.140646,172.283227,-9399.007173
73.249958,153.140646,133.998066,-9437.292334
73.250585,133.998066,114.855485,-9456.434915
73.251212,153.140646,114.855485,-9456.434915
73.251839,153.140646,114.855485,-9418.149754
73.252466,76.570323,153.140646,-9418.149754
73.253093,76.570323,153.140646,-9418.149754
73.253720,95.712904,95.712904,-9399.007173
73.254347,153.140646,133.998066,-9494.720077
73.254974,76.570323,114.855485,-9418.149754
73.255601,76.570323,172.283227,-9418.149754
73.256228,76.570323,114.855485,-9437.292334
73.256855,76.570323,114.855485,-9418.149754
73.257482,133.998066,114.855485,-9418.149754
73.258108,153.140646,172.283227,-9456.434915
73.258735,76.570323,114.855485,-9437.292334
73.259362,133.998066,172.283227,-9418.149754
73.259989,153.140646,172.283227,-9437.292334
73.260616,38.285162,114.855485,-9418.149754
73.261243,76.570323,172.283227,-9437.292334
73.261870,38.285162,114.855485,-9418.149754
73.262497,133.998066,114.855485,-9418.149754
73.263124,76.570323,114.855485,-9437.292334
73.263751,153.140646,133.998066,-9399.007173
73.264378,153.140646,133.998066,-9456.434915
73.265005,172.283227,38.285162,-9418.149754
73.265632,114.855485,95.712904,-9399.007173
73.266259,38.285162,153.140646,-9418.149754
73.266886,38.285162,172.283227,-9456.434915
73.267513,95.712904,114.855485,-9418.149754
73.268140,95.712904,114.855485,-9418.149754
73.268767,133.998066,172.283227,-9418.149754
73.269393,76.570323,114.855485,-9418.149754
73.270020,95.712904,210.568389,-9456.434915
73.270647,133.998066,114.855485,-9437.292334
73.271274,114.855485,210.568389,-9418.149754
73.271901,95.712904,114.855485,-9437.292334
73.272528,133.998066,114.855485,-9418.149754
73.273155,57.427742,95.712904,-9437.292334
73.273782,76.570323,114.855485,-9456.434915
73.274409,95.712904,133.998066,-9360.722011
73.275036,133.998066,210.568389,-9418.149754
73.275663,133.998066,172.283227,-9494.720077
73.276290,114.855485,76.570323,-9475.577496
73.276917,76.570323,114.855485,-9437.292334
73.277544,95.712904,114.855485,-9475.577496
73.278171,133.998066,172.283227,-9456.434915
73.278798,133.998066,210.568389,-9437.292334
73.279425,153.140646,133.998066,-9437.292334
73.280052,133.998066,153.140646,-9418.149754
73.280678,95.712904,95.712904,-9399.007173
73.281305,95.712904,114.855485,-9418.149754
73.281932,95.712904,153.140646,-9437.292334
73.282559,172.283227,76.570323,-9418.149754
73.283186,114.855485,133.998066,-9360.722011
73.283813,133.998066,133.998066,-9399.007173
73.284440,114.855485,95.712904,-9475.577496
73.285067,133.998066,172.283227,-9437.292334
73.285694,133.998066,114.855485,-9418.149754
73.286321,76.570323,172.283227,-9418.149754
73.286948,153.140646,133.998066,-9399.007173
73.287575,133.998066,114.855485,-9418.149754
73.288202,153.140646,133.998066,-9456.434915
73.288829,38.285162,153.140646,-9418.149754
73.289456,172.283227,153.140646,-9360.722011
73.290083,76.570323,172.283227,-9437.292334
73.290710,133.998066,114.855485,-9418.149754
73.291337,133.998066,114.855485,-9418.149754
73.291963,133.998066,114.855485,-9418.149754
73.292590,133.998066,114.855485,-9418.149754
73.293217,114.855485,95.712904,-9399.007173
73.293844,133.998066,133.998066,-9399.007173
73.294471,57.427742,114.855485,-9399.007173
73.295098,57.427742,133.998066,-9418.149754
73.295725,114.855485,95.712904,-9437.292334
73.296352,114.855485,95.712904,-9399.007173
73.296979,133.998066,114.855485,-9418.149754
73.297606,57.427742,153.140646,-9360.722011
73.298233,133.998066,172.283227,-9437.292334
73.298860,114.855485,133.998066,-9360.722011
73.299487,76.570323,114.855485,-9437.292334
73.300114,133.998066,172.283227,-9437.292334
73.300741,76.570323,114.855485,-9418.149754
73.301368,76.570323,172.283227,-9418.149754
73.301995,57.427742,133.998066,-9360.722011
73.302622,38.285162,114.855485,-9418.149754
73.303248,76.570323,153.140646,-9418.149754
73.303875,57.427742,114.855485,-9399.007173
73.304502,38.285162,114.855485,-9418.149754
73.305129,133.998066,172.283227,-9475.577496
73.305756,153.140646,248.853550,-9399.007173
73.306383,172.283227,95.712904,-9437.292334
73.307010,76.570323,172.283227,-9418.149754
73.307637,133.998066,153.140646,-9418.149754
73.308264,133.998066,114.855485,-9437.292334
73.308891,95.712904,114.855485,-9437.292334
73.309518,95.712904,114.855485,-9399.007173
73.310145,38.285162,114.855485,-9494.720077
73.310772,153.140646,153.140646,-9437.292334
73.311399,76.570323,153.140646,-9437.292334
73.312026,76.570323,114.855485,-9418.149754
73.312653,133.998066,210.568389,-9418.149754
73.313280,38.285162,114.855485,-9418.149754
73.313907,76.570323,114.855485,-9437.292334
73.314533,76.570323,114.855485,-9418.149754
73.315160,133.998066,114.855485,-9418.149754
73.315787,133.998066,210.568389,-9418.149754
73.316414,133.998066,172.283227,-9418.149754
73.317041,76.570323,114.855485,-9437.292334
73.317668,19.142581,133.998066,-9494.720077
73.318295,133.998066,172.283227,-9418.149754
73.318922,38.285162,114.855485,-9418.149754
73.319549,76.570323,114.855485,-9418.149754
73.320176,76.570323,114.855485,-9494.720077
73.320803,133.998066,114.855485,-9437.292334
73.321430,38.285162,172.283227,-9418.149754
73.322057,76.570323,114.855485,-9475.577496
73.322684,133.998066,172.283227,-9494.720077
73.323311,57.427742,95.712904,-9437.292334
73.323938,133.998066,114.855485,-9437.292334
73.324565,95.712904,153.140646,-9456.434915
73.325191,133.998066,114.855485,-9418.149754
73.325818,76.570323,114.855485,-9418.149754
73.326445,38.285162,114.855485,-9418.149754
73.327072,133.998066,114.855485,-9418.149754
73.327699,57.427742,95.712904,-9456.434915
73.328326,95.712904,114.855485,-9418.149754
73.328953,76.570323,114.855485,-9418.149754
73.329580,76.570323,114.855485,-9418.149754
73.330207,153.140646,133.998066,-9456.434915
73.330834,114.855485,114.855485,-9379.864592
73.331461,76.570323,172.283227,-9437.292334
73.332089,95.712904,95.712904,-9399.007173
73.332716,76.570323,114.855485,-9418.149754
73.333343,95.712904,114.855485,-9418.149754
73.333970,133.998066,133.998066,-9456.434915
73.334597,133.998066,153.140646,-9456.434915
73.335224,133.998066,114.855485,-9418.149754
73.335851,95.712904,133.998066,-9418.149754
73.336478,133.998066,172.283227,-9399.007173
73.337105,95.712904,95.712904,-9399.007173
73.337732,76.570323,114.855485,-9418.149754
73.338359,133.998066,114.855485,-9437.292334
73.338986,153.140646,133.998066,-9437.292334
73.339613,76.570323,153.140646,-9456.434915
73.340240,133.998066,114.855485,-9418.149754
73.340867,133.998066,114.855485,-9418.149754
73.341494,76.570323,114.855485,-9418.149754
73.342121,114.855485,95.712904,-9456.434915
73.342748,133.998066,114.855485,-9418.149754
73.343376,95.712904,95.712904,-9399.007173
73.344003,114.855485,95.712904,-9399.007173
73.344630,76.570323,114.855485,-9418.149754
73.345257,76.570323,76.570323,-9379.864592
73.345884,38.285162,210.568389,-9418.149754
73.346511,76.570323,114.855485,-9418.149754
73.347138,133.998066,133.998066,-9399.007173
73.347765,76.570323,114.855485,-9418.149754
73.348392,114.855485,172.283227,-9360.722011
73.349019,133.998066,114.855485,-9418.149754
73.349646,172.283227,172.283227,-9399.007173
73.350273,133.998066,114.855485,-9418.149754
73.350900,114.855485,95.712904,-9437.292334
73.351527,133.998066,133.998066,-9399.007173
73.352154,95.712904,114.855485,-9418.149754
73.352781,76.570323,95.712904,-9494.720077
73.353408,133.998066,114.855485,-9437.292334
73.354035,133.998066,153.140646,-9418.149754
73.354663,114.855485,191.425808,-9360.722011
73.355290,95.712904,153.140646,-9418.149754
73.355917,95.712904,133.998066,-9360.722011
73.356544,153.140646,153.140646,-9456.434915
73.357171,38.285162,153.140646,-9418.149754
73.357798,133.998066,114.855485,-9456.434915
73.358425,76.570323,114.855485,-9418.149754
73.359052,57.427742,95.712904,-9437.292334
73.359679,95.712904,114.855485,-9475.577496
73.360306,38.285162,114.855485,-9418.149754
73.360933,133.998066,114.855485,-9494.720077
73.361560,38.285162,153.140646,-9418.149754
73.362187,133.998066,153.140646,-9399.007173
73.362814,133.998066,172.283227,-9418.149754
73.363441,153.140646,133.998066,-9399.007173
73.364068,133.998066,172.283227,-9418.149754
73.364695,153.140646,133.998066,-9399.007173
73.365322,191.425808,76.570323,-9418.149754
73.365950,133.998066,153.140646,-9399.007173
73.366577,76.570323,114.855485,-9418.149754
73.367204,76.570323,114.855485,-9418.149754
73.367831,153.140646,133.998066,-9399.007173
73.368458,153.140646,172.283227,-9437.292334
73.369085,38.285162,191.425808,-9418.149754
73.369712,133.998066,210.568389,-9418.149754
73.370339,76.570323,114.855485,-9456.434915
73.370966,133.998066,133.998066,-9399.007173
73.371593,133.998066,210.568389,-9418.149754
73.372220,153.140646,133.998066,-9399.007173
73.372847,76.570323,210.568389,-9456.434915
73.373474,95.712904,153.140646,-9418.149754
73.374101,76.570323,172.283227,-9437.292334
73.374728,133.998066,133.998066,-9399.007173
73.375355,133.998066,114.855485,-9437.292334
73.375982,133.998066,114.855485,-9418.149754
73.376609,133.998066,114.855485,-9418.149754
73.377237,76.570323,114.855485,-9418.149754
73.377864,114.855485,172.283227,-9360.722011
73.378491,133.998066,172.283227,-9399.007173
73.379118,114.855485,114.855485,-9494.720077
73.379745,76.570323,172.283227,-9418.149754
73.380372,76.570323,210.568389,-9418.149754
73.380999,76.570323,114.855485,-9418.149754
73.381626,38.285162,95.712904,-9437.292334
73.382253,114.855485,133.998066,-9418.149754
73.382880,133.998066,114.855485,-9456.434915
73.383507,133.998066,153.140646,-9418.149754
73.384134,114.855485,133.998066,-9360.722011
73.384761,133.998066,153.140646,-9418.149754
73.385388,133.998066,114.855485,-9418.149754
73.386015,172.283227,76.570323,-9418.149754
73.386642,76.570323,114.855485,-9418.149754
73.387269,95.712904,172.283227,-9418.149754
73.387896,76.570323,210.568389,-9418.149754
73.388524,133.998066,114.855485,-9418.149754
73.389151,114.855485,95.712904,-9437.292334
73.389778,76.570323,191.425808,-9418.149754
73.390405,133.998066,210.568389,-9456.434915
73.391032,133.998066,133.998066,-9399.007173
73.391659,133.998066,133.998066,-9437.292334
73.392286,76.570323,114.855485,-9418.149754
73.392913,76.570323,114.855485,-9437.292334
73.393540,76.570323,153.140646,-9437.292334
73.394167,133.998066,114.855485,-9418.149754
73.394794,133.998066,172.283227,-9418.149754
73.395421,114.855485,133.998066,-9360.722011
73.396048,133.998066,172.283227,-9437.292334
73.396675,38.285162,133.998066,-9533.005238
73.397302,38.285162,114.855485,-9418.149754
73.397929,76.570323,114.855485,-9418.149754
73.398556,76.570323,114.855485,-9456.434915
73.399183,76.570323,191.425808,-9456.434915
73.399810,114.855485,153.140646,-9379.864592
73.400438,114.855485,153.140646,-9360.722011
73.401065,114.855485,95.712904,-9456.434915
73.401692,76.570323,114.855485,-9494.720077
73.402319,133.998066,114.855485,-9456.434915
73.402946,95.712904,95.712904,-9437.292334
73.403573,133.998066,114.855485,-9418.149754
73.404200,95.712904,95.712904,-9399.007173
73.404827,57.427742,133.998066,-9360.722011
73.405454,57.427742,114.855485,-9418.149754
73.406081,38.285162,172.283227,-9475.577496
73.406708,133.998066,114.855485,-9437.292334
73.407335,76.570323,114.855485,-9456.434915
73.407962,76.570323,114.855485,-9418.149754
73.408589,76.570323,153.140646,-9418.149754
73.409216,114.855485,153.140646,-9379.864592
73.409843,95.712904,114.855485,-9418.149754
73.410470,95.712904,114.855485,-9399.007173
73.411097,95.712904,133.998066,-9379.864592
73.411725,76.570323,114.855485,-9418.149754
73.412352,133.998066,114.855485,-9418.149754
73.412979,76.570323,114.855485,-9418.149754
73.413606,38.285162,229.710970,-9418.149754
73.414233,76.570323,153.140646,-9456.434915
73.414860,38.285162,172.283227,-9418.149754
73.415487,153.140646,153.140646,-9418.149754
73.416114,153.140646,153.140646,-9399.007173
73.416741,76.570323,153.140646,-9418.149754
73.417368,95.712904,172.283227,-9360.722011
73.417995,76.570323,114.855485,-9418.149754
73.418622,133.998066,114.855485,-9418.149754
73.419249,133.998066,172.283227,-9456.434915
73.419876,19.142581,114.855485,-9418.149754
73.420503,133.998066,114.855485,-9418.149754
73.421130,210.568389,133.998066,-9399.007173
73.421757,95.712904,133.998066,-9360.722011
73.422384,95.712904,133.998066,-9360.722011
73.423012,114.855485,133.998066,-9418.149754
73.423639,76.570323,114.855485,-9437.292334
73.424266,114.855485,95.712904,-9399.007173
73.424893,133.998066,114.855485,-9437.292334
73.425520,38.285162,172.283227,-9418.149754
73.426147,133.998066,114.855485,-9437.292334
73.426774,38.285162,114.855485,-9418.149754
73.427401,95.712904,114.855485,-9399.007173
73.428028,95.712904,133.998066,-9360.722011
73.428655,133.998066,114.855485,-9418.149754
73.429282,76.570323,114.855485,-9437.292334
73.429910,57.427742,95.712904,-9437.292334
73.430537,133.998066,114.855485,-9418.149754
73.431164,76.570323,114.855485,-9418.149754
73.431791,76.570323,114.855485,-9456.434915
73.432419,133.998066,133.998066,-9437.292334
73.433046,114.855485,172.283227,-9360.722011
73.433673,76.570323,153.140646,-9418.149754
73.434300,76.570323,114.855485,-9456.434915
73.434928,153.140646,133.998066,-9437.292334
73.435555,95.712904,95.712904,-9399.007173
73.436182,38.285162,153.140646,-9418.149754
73.436809,95.712904,133.998066,-9360.722011
73.437437,76.570323,172.283227,-9494.720077
73.438064,133.998066,114.855485,-9418.149754
73.438691,210.568389,153.140646,-9399.007173
73.439318,133.998066,133.998066,-9399.007173
73.439946,76.570323,114.855485,-9418.149754
73.440573,133.998066,210.568389,-9418.149754
73.441200,95.712904,95.712904,-9456.434915
73.441827,114.855485,95.712904,-9399.007173
73.442455,76.570323,114.855485,-9437.292334
73.443082,57.427742,114.855485,-9418.149754
73.443709,76.570323,114.855485,-9418.149754
73.444337,76.570323,114.855485,-9418.149754
73.444964,133.998066,229.710970,-9418.149754
73.445591,133.998066,210.568389,-9418.149754
73.446218,172.283227,76.570323,-9475.577496
73.446846,114.855485,114.855485,-9437.292334
73.447473,153.140646,133.998066,-9399.007173
73.448100,38.285162,153.140646,-9418.149754
73.448727,76.570323,153.140646,-9418.149754
73.449355,76.570323,114.855485,-9437.292334
73.449982,114.855485,133.998066,-9418.149754
73.450609,133.998066,114.855485,-9437.292334
73.451236,153.140646,172.283227,-9399.007173
73.451864,133.998066,114.855485,-9418.149754
73.452491,133.998066,114.855485,-9418.149754
73.453118,76.570323,114.855485,-9418.149754
73.453745,76.570323,114.855485,-9456.434915
73.454373,76.570323,114.855485,-9456.434915
73.455000,76.570323,133.998066,-9418.149754
73.455627,76.570323,114.855485,-9418.149754
73.456254,38.285162,114.855485,-9437.292334
73.456882,133.998066,114.855485,-9456.434915
73.457509,133.998066,114.855485,-9475.577496
73.458136,76.570323,114.855485,-9418.149754
73.458764,133.998066,153.140646,-9456.434915
73.459391,133.998066,114.855485,-9475.577496
73.460018,153.140646,133.998066,-9399.007173
73.460645,114.855485,95.712904,-9456.434915
73.461273,76.570323,114.855485,-9418.149754
73.461900,133.998066,114.855485,-9437.292334
73.462527,76.570323,153.140646,-9418.149754
73.463154,114.855485,114.855485,-9437.292334
73.463782,153.140646,153.140646,-9456.434915
73.464409,114.855485,172.283227,-9360.722011
73.465036,76.570323,114.855485,-9418.149754
73.465663,133.998066,114.855485,-9418.149754
73.466291,114.855485,133.998066,-9360.722011
73.466918,76.570323,114.855485,-9456.434915
73.467545,76.570323,114.855485,-9418.149754
73.468172,76.570323,114.855485,-9437.292334
73.468800,133.998066,114.855485,-9418.149754
73.469427,76.570323,114.855485,-9456.434915
73.470054,114.855485,133.998066,-9360.722011
73.470681,153.140646,133.998066,-9399.007173
73.471309,133.998066,153.140646,-9437.292334
73.471936,133.998066,172.283227,-9418.149754
73.472563,133.998066,114.855485,-9437.292334
73.473190,95.712904,153.140646,-9437.292334
73.473818,76.570323,172.283227,-9418.149754
73.474445,76.570323,172.283227,-9418.149754
73.475072,76.570323,153.140646,-9437.292334
73.475700,38.285162,210.568389,-9418.149754
73.476327,133.998066,114.855485,-9418.149754
73.476954,38.285162,153.140646,-9360.722011
73.477581,76.570323,172.283227,-9475.577496
73.478209,76.570323,153.140646,-9418.149754
73.478836,133.998066,114.855485,-9456.434915
73.479463,76.570323,114.855485,-9456.434915
73.480090,133.998066,133.998066,-9456.434915
73.480718,153.140646,133.998066,-9456.434915
73.481345,114.855485,95.712904,-9399.007173
73.481972,133.998066,114.855485,-9418.149754
73.482599,153.140646,133.998066,-9456.434915
73.483227,133.998066,114.855485,-9437.292334
73.483854,133.998066,172.283227,-9475.577496
73.484481,76.570323,114.855485,-9418.149754
73.485108,76.570323,95.712904,-9494.720077
73.485736,133.998066,76.570323,-9379.864592
73.486363,153.140646,133.998066,-9437.292334
73.486990,76.570323,114.855485,-9418.149754
73.487617,76.570323,114.855485,-9437.292334
73.488245,38.285162,114.855485,-9437.292334
73.488872,133.998066,133.998066,-9475.577496
73.489499,153.140646,133.998066,-9399.007173
73.490127,76.570323,153.140646,-9418.149754
73.490754,172.283227,133.998066,-9418.149754
73.491381,153.140646,191.425808,-9437.292334
73.492008,133.998066,114.855485,-9456.434915
73.492636,76.570323,114.855485,-9418.149754
73.493263,153.140646,133.998066,-9399.007173
73.493890,95.712904,133.998066,-9418.149754
73.494517,38.285162,172.283227,-9418.149754
73.495145,76.570323,114.855485,-9418.149754
73.495772,76.570323,114.855485,-9418.149754
73.496399,76.570323,114.855485,-9360.722011
73.497026,76.570323,114.855485,-9418.149754
73.497654,133.998066,153.140646,-9418.149754
73.498281,38.285162,114.855485,-9418.149754
73.498908,95.712904,114.855485,-9399.007173
73.499535,76.570323,210.568389,-9437.292334
73.500163,133.998066,191.425808,-9399.007173
73.500790,114.855485,133.998066,-9360.722011
73.501417,133.998066,153.140646,-9399.007173
73.502044,95.712904,133.998066,-9418.149754
73.502672,76.570323,114.855485,-9437.292334
73.503299,38.285162,114.855485,-9418.149754
73.503926,133.998066,133.998066,-9399.007173
73.504553,133.998066,153.140646,-9418.149754
73.505181,95.712904,114.855485,-9399.007173
73.505808,133.998066,172.283227,-9418.149754
73.506435,57.427742,133.998066,-9379.864592
73.507063,153.140646,133.998066,-9456.434915
73.507690,76.570323,172.283227,-9418.149754
73.508317,133.998066,114.855485,-9418.149754
73.508944,133.998066,114.855485,-9494.720077
73.509572,95.712904,114.855485,-9360.722011
73.510199,133.998066,133.998066,-9456.434915
73.510826,114.855485,95.712904,-9437.292334
73.511453,153.140646,133.998066,-9399.007173
73.512081,133.998066,114.855485,-9418.149754
73.512708,133.998066,114.855485,-9418.149754
73.513335,76.570323,114.855485,-9437.292334
73.513962,114.855485,76.570323,-9437.292334
73.514590,95.712904,95.712904,-9437.292334
73.515217,133.998066,172.283227,-9418.149754
73.515844,57.427742,95.712904,-9456.434915
73.516471,76.570323,172.283227,-9437.292334
73.517099,76.570323,114.855485,-9418.149754
73.517726,76.570323,114.855485,-9437.292334
73.518353,76.570323,172.283227,-9437.292334
73.518980,57.427742,133.998066,-9360.722011
73.519608,95.712904,172.283227,-9360.722011
73.520235,133.998066,114.855485,-9437.292334
73.520862,76.570323,114.855485,-9437.292334
73.521489,76.570323,114.855485,-9418.149754
73.522117,133.998066,153.140646,-9418.149754
73.522744,133.998066,153.140646,-9418.149754
73.523371,76.570323,114.855485,-9418.149754
73.523999,76.570323,114.855485,-9437.292334
73.524626,133.998066,172.283227,-9456.434915
73.525253,133.998066,114.855485,-9418.149754
73.525880,210.568389,133.998066,-9456.434915
73.526508,76.570323,114.855485,-9418.149754
73.527135,133.998066,114.855485,-9418.149754
73.527762,38.285162,95.712904,-9399.007173
73.528389,38.285162,172.283227,-9418.149754
73.529017,76.570323,114.855485,-9418.149754
73.529644,38.285162,114.855485,-9418.149754
73.530271,133.998066,114.855485,-9418.149754
73.530899,133.998066,210.568389,-9418.149754
73.531526,76.570323,114.855485,-9418.149754
73.532154,153.140646,172.283227,-9513.862658
73.532781,76.570323,172.283227,-9475.577496
73.533408,133.998066,210.568389,-9437.292334
73.534036,133.998066,210.568389,-9437.292334
73.534663,95.712904,95.712904,-9456.434915
73.535290,133.998066,114.855485,-9475.577496
73.535918,95.712904,210.568389,-9418.149754
73.536545,76.570323,153.140646,-9437.292334
73.537173,133.998066,114.855485,-9456.434915
73.537800,76.570323,153.140646,-9418.149754
73.538427,153.140646,133.998066,-9399.007173
73.539055,95.712904,172.283227,-9475.577496
73.539682,133.998066,191.425808,-9399.007173
73.540309,133.998066,153.140646,-9418.149754
73.540937,95.712904,95.712904,-9456.434915
73.541564,38.285162,114.855485,-9418.149754
73.542192,133.998066,114.855485,-9418.149754
73.542819,76.570323,210.568389,-9456.434915
73.543446,133.998066,114.855485,-9437.292334
73.544074,95.712904,114.855485,-9418.149754
73.544701,133.998066,153.140646,-9418.149754
73.545328,38.285162,114.855485,-9437.292334
73.545956,133.998066,114.855485,-9418.149754
73.546583,153.140646,133.998066,-9399.007173
73.547211,133.998066,114.855485,-9456.434915
73.547838,153.140646,133.998066,-9456.434915
73.548465,76.570323,114.855485,-9437.292334
73.549093,76.570323,114.855485,-9456.434915
73.549720,57.427742,114.855485,-9322.436850
73.550347,57.427742,153.140646,-9360.722011
73.550975,38.285162,210.568389,-9418.149754
73.551602,76.570323,153.140646,-9437.292334
73.552230,76.570323,95.712904,-9399.007173
73.552857,95.712904,133.998066,-9418.149754
73.553484,76.570323,114.855485,-9456.434915
73.554112,76.570323,114.855485,-9418.149754
73.554739,114.855485,133.998066,-9418.149754
73.555366,76.570323,153.140646,-9437.292334
73.555994,114.855485,95.712904,-9456.434915
73.556621,76.570323,114.855485,-9418.149754
73.557249,95.712904,153.140646,-9475.577496
73.557876,76.570323,153.140646,-9418.149754
73.558503,153.140646,133.998066,-9399.007173
73.559131,76.570323,114.855485,-9418.149754
73.559758,76.570323,153.140646,-9456.434915
73.560385,76.570323,114.855485,-9418.149754
73.561013,133.998066,172.283227,-9418.149754
73.561640,76.570323,153.140646,-9494.720077
73.562268,133.998066,114.855485,-9418.149754
73.562895,133.998066,133.998066,-9494.720077
73.563522,76.570323,114.855485,-9418.149754
73.564150,95.712904,210.568389,-9418.149754
73.564777,76.570323,114.855485,-9437.292334
73.565405,38.285162,114.855485,-9437.292334
73.566032,19.142581,133.998066,-9399.007173
73.566659,133.998066,133.998066,-9399.007173
73.567287,133.998066,114.855485,-9437.292334
73.567914,38.285162,153.140646,-9418.149754
73.568541,76.570323,114.855485,-9475.577496
73.569169,95.712904,114.855485,-9418.149754
73.569796,76.570323,153.140646,-9418.149754
73.570424,76.570323,114.855485,-9456.434915
73.571051,133.998066,114.855485,-9533.005238
73.571678,76.570323,153.140646,-9418.149754
73.572306,76.570323,95.712904,-9437.292334
73.572933,114.855485,95.712904,-9437.292334
73.573560,133.998066,114.855485,-9437.292334
73.574188,133.998066,114.855485,-9418.149754
73.574815,133.998066,153.140646,-9418.149754
73.575443,38.285162,114.855485,-9418.149754
73.576070,38.285162,153.140646,-9418.149754
73.576697,133.998066,114.855485,-9456.434915
73.577325,133.998066,133.998066,-9399.007173
73.577952,95.712904,95.712904,-9399.007173
73.578579,38.285162,114.855485,-9418.149754
73.579207,95.712904,172.283227,-9418.149754
73.579834,133.998066,248.853550,-9456.434915
73.580462,76.570323,172.283227,-9437.292334
73.581089,95.712904,114.855485,-9418.149754
73.581716,95.712904,114.855485,-9456.434915
73.582344,153.140646,191.425808,-9456.434915
73.582971,76.570323,114.855485,-9533.005238
73.583598,133.998066,114.855485,-9475.577496
73.584226,133.998066,114.855485,-9456.434915
73.584853,133.998066,210.568389,-9418.149754
73.585481,133.998066,114.855485,-9456.434915
73.586108,133.998066,172.283227,-9475.577496
73.586735,76.570323,114.855485,-9418.149754
73.587363,133.998066,153.140646,-9418.149754
73.587990,76.570323,172.283227,-9418.149754
73.588617,57.427742,133.998066,-9360.722011
73.589245,133.998066,114.855485,-9418.149754
73.589872,76.570323,114.855485,-9418.149754
73.590500,38.285162,114.855485,-9418.149754
73.591127,133.998066,172.283227,-9437.292334
73.591754,38.285162,153.140646,-9456.434915
73.592382,38.285162,153.140646,-9456.434915
73.593009,76.570323,172.283227,-9437.292334
73.593636,76.570323,172.283227,-9494.720077
73.594264,38.285162,114.855485,-9475.577496
73.594891,133.998066,114.855485,-9418.149754
73.595519,133.998066,114.855485,-9418.149754
73.596146,133.998066,114.855485,-9418.149754
73.596773,114.855485,95.712904,-9456.434915
73.597401,153.140646,191.425808,-9399.007173
73.598028,76.570323,153.140646,-9456.434915
73.598655,95.712904,95.712904,-9513.862658
73.599283,95.712904,172.283227,-9475.577496
73.599910,38.285162,172.283227,-9437.292334
73.600538,76.570323,114.855485,-9418.149754
73.601165,76.570323,172.283227,-9418.149754
73.601792,76.570323,114.855485,-9418.149754
73.602420,133.998066,114.855485,-9360.722011
73.603047,95.712904,133.998066,-9360.722011
73.603674,57.427742,133.998066,-9360.722011
73.604302,76.570323,114.855485,-9475.577496
73.604929,76.570323,114.855485,-9437.292334
73.605557,76.570323,114.855485,-9456.434915
73.606184,38.285162,153.140646,-9475.577496
73.606811,95.712904,95.712904,-9399.007173
73.607439,133.998066,191.425808,-9437.292334
73.608066,133.998066,153.140646,-9456.434915
73.608693,76.570323,153.140646,-9399.007173
73.609321,57.427742,114.855485,-9399.007173
73.609948,133.998066,114.855485,-9418.149754
73.610576,95.712904,95.712904,-9399.007173
73.611203,38.285162,114.855485,-9475.577496
73.611830,133.998066,114.855485,-9437.292334
73.612458,38.285162,133.998066,-9418.149754
73.613085,95.712904,114.855485,-9399.007173
73.613712,133.998066,114.855485,-9418.149754
73.614340,153.140646,133.998066,-9437.292334
73.614967,76.570323,172.283227,-9418.149754
73.615595,76.570323,210.568389,-9418.149754
73.616222,95.712904,210.568389,-9418.149754
73.616849,76.570323,133.998066,-9418.149754
73.617477,76.570323,172.283227,-9418.149754
73.618104,76.570323,153.140646,-9418.149754
73.618732,76.570323,210.568389,-9418.149754
73.619359,133.998066,114.855485,-9418.149754
73.619986,133.998066,153.140646,-9418.149754
73.620614,133.998066,210.568389,-9418.149754
73.621241,76.570323,210.568389,-9418.149754
73.621868,76.570323,172.283227,-9418.149754
73.622496,133.998066,172.283227,-9418.149754
73.623123,38.285162,153.140646,-9418.149754
73.623751,95.712904,172.283227,-9418.149754
73.624378,133.998066,153.140646,-9418.149754
73.625005,133.998066,114.855485,-9418.149754
73.625633,133.998066,133.998066,-9399.007173
73.626260,95.712904,76.570323,-9418.149754
73.626887,114.855485,172.283227,-9360.722011
73.627515,57.427742,95.712904,-9456.434915
73.628142,114.855485,133.998066,-9360.722011
73.628770,95.712904,114.855485,-9418.149754
73.629397,76.570323,114.855485,-9456.434915
73.630024,76.570323,172.283227,-9437.292334
73.630651,133.998066,114.855485,-9437.292334
73.631279,38.285162,114.855485,-9418.149754
73.631906,76.570323,210.568389,-9456.434915
73.632533,133.998066,114.855485,-9418.149754
73.633160,76.570323,153.140646,-9456.434915
73.633787,76.570323,114.855485,-9418.149754
73.634415,76.570323,114.855485,-9418.149754
73.635042,95.712904,172.283227,-9418.149754
73.635669,114.855485,133.998066,-9360.722011
73.636296,76.570323,114.855485,-9418.149754
73.636924,38.285162,153.140646,-9360.722011
73.637551,38.285162,114.855485,-9437.292334
73.638178,133.998066,114.855485,-9418.149754
73.638805,133.998066,76.570323,-9379.864592
73.639432,133.998066,114.855485,-9437.292334
73.640060,95.712904,114.855485,-9437.292334
73.640687,76.570323,114.855485,-9418.149754
73.641314,76.570323,114.855485,-9456.434915
73.641941,95.712904,172.283227,-9437.292334
73.642569,133.998066,172.283227,-9399.007173
73.643196,76.570323,210.568389,-9418.149754
73.643823,133.998066,153.140646,-9475.577496
73.644450,38.285162,114.855485,-9437.292334
73.645078,133.998066,172.283227,-9437.292334
73.645705,38.285162,114.855485,-9437.292334
73.646332,76.570323,114.855485,-9399.007173
73.646959,133.998066,76.570323,-9399.007173
73.647586,76.570323,114.855485,-9418.149754
73.648214,133.998066,114.855485,-9418.149754
73.648841,76.570323,114.855485,-9418.149754
73.649468,76.570323,95.712904,-9399.007173
73.650095,57.427742,114.855485,-9418.149754
73.650723,76.570323,172.283227,-9475.577496
73.651350,133.998066,191.425808,-9494.720077
73.651977,76.570323,210.568389,-9418.149754
73.652604,38.285162,172.283227,-9456.434915
73.653231,153.140646,133.998066,-9437.292334
73.653859,76.570323,114.855485,-9418.149754
73.654486,57.427742,114.855485,-9399.007173
73.655113,76.570323,114.855485,-9418.149754
73.655740,114.855485,133.998066,-9360.722011
73.656368,76.570323,210.568389,-9418.149754
73.656995,133.998066,114.855485,-9494.720077
73.657622,133.998066,114.855485,-9418.149754
73.658249,76.570323,114.855485,-9456.434915
73.658876,95.712904,114.855485,-9418.149754
73.659504,95.712904,172.283227,-9418.149754
73.660131,38.285162,172.283227,-9418.149754
73.660758,76.570323,114.855485,-9475.577496
73.661385,38.285162,114.855485,-9418.149754
73.662013,133.998066,133.998066,-9475.577496
73.662640,76.570323,172.283227,-9533.005238
73.663267,95.712904,95.712904,-9437.292334
73.663894,76.570323,172.283227,-9456.434915
73.664521,38.285162,114.855485,-9418.149754
73.665149,133.998066,114.855485,-9437.292334
73.665776,133.998066,114.855485,-9456.434915
73.666403,76.570323,191.425808,-9360.722011
73.667030,114.855485,153.140646,-9360.722011
73.667658,95.712904,95.712904,-9379.864592
73.668285,133.998066,210.568389,-9418.149754
73.668912,153.140646,153.140646,-9437.292334
73.669539,76.570323,114.855485,-9418.149754
73.670166,38.285162,172.283227,-9418.149754
73.670794,95.712904,114.855485,-9437.292334
73.671421,114.855485,95.712904,-9456.434915
73.672048,114.855485,95.712904,-9399.007173
73.672675,76.570323,114.855485,-9418.149754
73.673303,76.570323,114.855485,-9418.149754
73.673930,133.998066,133.998066,-9456.434915
73.674557,95.712904,114.855485,-9437.292334
73.675184,133.998066,133.998066,-9456.434915
73.675811,133.998066,172.283227,-9418.149754
73.676439,38.285162,153.140646,-9437.292334
73.677066,133.998066,153.140646,-9475.577496
73.677693,76.570323,210.568389,-9418.149754
73.678320,38.285162,210.568389,-9437.292334
73.678948,133.998066,114.855485,-9456.434915
73.679575,0.000000,133.998066,-9341.579430
73.680202,153.140646,133.998066,-9399.007173
73.680829,76.570323,114.855485,-9418.149754
73.681457,76.570323,133.998066,-9399.007173
73.682084,38.285162,114.855485,-9418.149754
73.682711,114.855485,172.283227,-9360.722011
73.683338,114.855485,191.425808,-9360.722011
73.683965,133.998066,114.855485,-9418.149754
73.684593,76.570323,114.855485,-9418.149754
73.685220,133.998066,153.140646,-9418.149754
73.685847,133.998066,172.283227,-9418.149754
73.686474,95.712904,95.712904,-9399.007173
73.687102,153.140646,114.855485,-9437.292334
73.687729,76.570323,153.140646,-9418.149754
73.688356,133.998066,114.855485,-9418.149754
73.688983,133.998066,114.855485,-9418.149754
73.689610,114.855485,191.425808,-9341.579430
73.690238,133.998066,114.855485,-9418.149754
73.690865,76.570323,172.283227,-9360.722011
73.691492,57.427742,133.998066,-9360.722011
73.692119,38.285162,172.283227,-9437.292334
73.692747,38.285162,210.568389,-9437.292334
73.693374,133.998066,172.283227,-9418.149754
73.694001,133.998066,172.283227,-9437.292334
73.694628,133.998066,191.425808,-9399.007173
73.695255,133.998066,210.568389,-9418.149754
73.695883,133.998066,114.855485,-9418.149754
73.696510,133.998066,133.998066,-9399.007173
73.697137,95.712904,153.140646,-9360.722011
73.697764,114.855485,172.283227,-9360.722011
73.698392,38.285162,114.855485,-9437.292334
73.699019,76.570323,114.855485,-9418.149754
73.699646,76.570323,114.855485,-9418.149754
73.700273,153.140646,172.283227,-9399.007173
73.700900,133.998066,114.855485,-9418.149754
73.701528,133.998066,114.855485,-9437.292334
73.702155,133.998066,210.568389,-9456.434915
73.702782,114.855485,95.712904,-9399.007173
73.703409,114.855485,76.570323,-9418.149754
73.704037,114.855485,95.712904,-9399.007173
73.704664,76.570323,210.568389,-9475.577496
73.705291,76.570323,114.855485,-9418.149754
73.705918,76.570323,114.855485,-9418.149754
73.706545,76.570323,114.855485,-9418.149754
73.707173,76.570323,172.283227,-9437.292334
73.707800,76.570323,114.855485,-9418.149754
73.708427,57.427742,114.855485,-9418.149754
73.709054,76.570323,172.283227,-9494.720077
73.709682,133.998066,153.140646,-9437.292334
73.710309,76.570323,153.140646,-9418.149754
73.710936,76.570323,114.855485,-9475.577496
73.711563,76.570323,172.283227,-9456.434915
73.712190,133.998066,114.855485,-9437.292334
73.712818,133.998066,114.855485,-9418.149754
73.713445,133.998066,133.998066,-9399.007173
73.714072,133.998066,133.998066,-9399.007173
73.714699,95.712904,133.998066,-9418.149754
73.715327,95.712904,114.855485,-9418.149754
73.715954,76.570323,153.140646,-9418.149754
73.716581,76.570323,114.855485,-9437.292334
73.717208,57.427742,114.855485,-9456.434915
73.717835,76.570323,172.283227,-9437.292334
73.718463,76.570323,153.140646,-9418.149754
73.719090,76.570323,114.855485,-9418.149754
73.719717,133.998066,133.998066,-9399.007173
73.720344,38.285162,114.855485,-9418.149754
73.720972,76.570323,172.283227,-9456.434915
73.721599,76.570323,133.998066,-9360.722011
73.722226,133.998066,133.998066,-9399.007173
73.722853,153.140646,133.998066,-9437.292334
73.723481,133.998066,114.855485,-9456.434915
73.724108,133.998066,114.855485,-9418.149754
73.724735,38.285162,172.283227,-9437.292334
73.725362,153.140646,172.283227,-9418.149754
73.725989,133.998066,114.855485,-9418.149754
73.726617,38.285162,114.855485,-9456.434915
73.727244,38.285162,114.855485,-9418.149754
73.727871,76.570323,76.570323,-9379.864592
73.728498,95.712904,114.855485,-9418.149754
73.729126,76.570323,114.855485,-9456.434915
73.729753,38.285162,114.855485,-9437.292334
73.730380,95.712904,172.283227,-9475.577496
73.731007,133.998066,153.140646,-9437.292334
73.731634,133.998066,114.855485,-9418.149754
73.732261,153.140646,133.998066,-9399.007173
73.732889,114.855485,95.712904,-9399.007173
73.733516,95.712904,133.998066,-9360.722011
73.734143,133.998066,114.855485,-9418.149754
73.734770,133.998066,172.283227,-9418.149754
73.735397,133.998066,210.568389,-9418.149754
73.736025,95.712904,114.855485,-9418.149754
73.736652,133.998066,114.855485,-9418.149754
73.737279,172.283227,172.283227,-9379.864592
73.737906,133.998066,191.425808,-9437.292334
73.738533,133.998066,114.855485,-9475.577496
73.739161,76.570323,191.425808,-9437.292334
73.739788,133.998066,114.855485,-9456.434915
73.740415,76.570323,210.568389,-9418.149754
73.741042,133.998066,210.568389,-9475.577496
73.741669,38.285162,172.283227,-9418.149754
73.742296,57.427742,114.855485,-9456.434915
73.742924,38.285162,172.283227,-9418.149754
73.743551,76.570323,191.425808,-9456.434915
73.744178,38.285162,172.283227,-9418.149754
73.744805,38.285162,114.855485,-9418.149754
73.745432,76.570323,114.855485,-9418.149754
73.746060,114.855485,133.998066,-9360.722011
73.746687,133.998066,114.855485,-9418.149754
73.747314,76.570323,114.855485,-9475.577496
73.747941,76.570323,210.568389,-9418.149754
73.748568,133.998066,114.855485,-9418.149754
73.749195,76.570323,172.283227,-9456.434915
73.749823,133.998066,114.855485,-9418.149754
73.750450,38.285162,153.140646,-9418.149754
73.751077,95.712904,172.283227,-9418.149754
73.751704,133.998066,133.998066,-9399.007173
73.752331,133.998066,153.140646,-9475.577496
73.752959,76.570323,114.855485,-9418.149754
73.753586,76.570323,153.140646,-9494.720077
73.754213,57.427742,172.283227,-9418.149754
73.754840,133.998066,153.140646,-9437.292334
73.755467,38.285162,114.855485,-9418.149754
73.756094,133.998066,114.855485,-9437.292334
73.756722,38.285162,114.855485,-9418.149754
73.757349,57.427742,114.855485,-9418.149754
73.757976,133.998066,114.855485,-9437.292334
73.758603,76.570323,114.855485,-9418.149754
73.759230,76.570323,114.855485,-9418.149754
73.759858,38.285162,172.283227,-9418.149754
73.760485,153.140646,153.140646,-9418.149754
73.761112,133.998066,114.855485,-9418.149754
73.761739,133.998066,172.283227,-9418.149754
73.762366,76.570323,114.855485,-9418.149754
73.762994,153.140646,133.998066,-9399.007173
73.763621,114.855485,95.712904,-9399.007173
73.764248,133.998066,114.855485,-9418.149754
73.764875,38.285162,114.855485,-9456.434915
73.765502,133.998066,153.140646,-9399.007173
73.766129,76.570323,114.855485,-9418.149754
73.766757,95.712904,114.855485,-9418.149754
73.767384,95.712904,153.140646,-9418.149754
73.768011,172.283227,153.140646,-9379.864592
73.768638,114.855485,95.712904,-9456.434915
73.769265,76.570323,229.710970,-9456.434915
73.769893,76.570323,114.855485,-9418.149754
73.770520,133.998066,210.568389,-9418.149754
73.771147,95.712904,172.283227,-9418.149754
73.771774,133.998066,133.998066,-9456.434915
73.772401,133.998066,114.855485,-9418.149754
73.773028,95.712904,114.855485,-9399.007173
73.773656,133.998066,172.283227,-9418.149754
73.774283,114.855485,172.283227,-9360.722011
73.774910,133.998066,114.855485,-9418.149754
73.775537,76.570323,229.710970,-9437.292334
73.776164,133.998066,210.568389,-9475.577496
73.776792,76.570323,153.140646,-9418.149754
73.777419,76.570323,153.140646,-9418.149754
73.778046,114.855485,95.712904,-9437.292334
73.778673,76.570323,172.283227,-9456.434915
73.779300,133.998066,153.140646,-9437.292334
73.779927,76.570323,114.855485,-9418.149754
73.780555,76.570323,153.140646,-9418.149754
73.781182,133.998066,114.855485,-9418.149754
73.781809,76.570323,172.283227,-9418.149754
73.782436,133.998066,153.140646,-9418.149754
73.783063,153.140646,248.853550,-9494.720077
73.783691,133.998066,210.568389,-9418.149754
73.784318,133.998066,114.855485,-9456.434915
73.784945,153.140646,114.855485,-9418.149754
73.785572,133.998066,114.855485,-9418.149754
73.786199,114.855485,133.998066,-9360.722011
73.786827,153.140646,172.283227,-9399.007173
73.787454,133.998066,114.855485,-9418.149754
73.788081,76.570323,114.855485,-9418.149754
73.788708,57.427742,133.998066,-9360.722011
73.789335,133.998066,114.855485,-9418.149754
73.789962,114.855485,114.855485,-9399.007173
73.790590,133.998066,114.855485,-9456.434915
73.791217,133.998066,114.855485,-9437.292334
73.791844,153.140646,133.998066,-9399.007173
73.792471,133.998066,172.283227,-9456.434915
73.793098,76.570323,172.283227,-9418.149754
73.793726,133.998066,114.855485,-9418.149754
73.794353,133.998066,153.140646,-9418.149754
73.794980,76.570323,114.855485,-9475.577496
73.795607,133.998066,114.855485,-9437.292334
73.796234,38.285162,114.855485,-9418.149754
73.796861,38.285162,210.568389,-9456.434915
73.797489,133.998066,114.855485,-9418.149754
73.798116,76.570323,114.855485,-9456.434915
73.798743,133.998066,172.283227,-9475.577496
73.799370,133.998066,114.855485,-9475.577496
73.799997,153.140646,172.283227,-9494.720077
73.800625,153.140646,153.140646,-9418.149754
73.801252,153.140646,153.140646,-9456.434915
73.801879,133.998066,153.140646,-9456.434915
73.802506,133.998066,114.855485,-9437.292334
73.803133,76.570323,210.568389,-9418.149754
73.803760,133.998066,114.855485,-9437.292334
73.804388,76.570323,114.855485,-9418.149754
73.805015,95.712904,114.855485,-9418.149754
73.805642,114.855485,114.855485,-9494.720077
73.806269,76.570323,153.140646,-9418.149754
73.806896,133.998066,153.140646,-9437.292334
73.807524,133.998066,133.998066,-9437.292334
73.808151,133.998066,114.855485,-9418.149754
73.808778,95.712904,114.855485,-9437.292334
73.809405,76.570323,114.855485,-9437.292334
73.810032,38.285162,114.855485,-9418.149754
73.810660,133.998066,114.855485,-9418.149754
73.811287,114.855485,114.855485,-9399.007173
73.811914,76.570323,114.855485,-9456.434915
73.812541,76.570323,114.855485,-9437.292334
73.813168,114.855485,95.712904,-9399.007173
73.813795,114.855485,114.855485,-9399.007173
73.814423,76.570323,172.283227,-9475.577496
73.815050,133.998066,172.283227,-9456.434915
73.815677,95.712904,153.140646,-9456.434915
73.816304,133.998066,133.998066,-9437.292334
73.816931,38.285162,114.855485,-9437.292334
73.817559,76.570323,172.283227,-9437.292334
73.818186,114.855485,191.425808,-9360.722011
73.818813,76.570323,172.283227,-9437.292334
73.819440,133.998066,114.855485,-9418.149754
73.820067,133.998066,114.855485,-9475.577496
73.820694,76.570323,114.855485,-9418.149754
73.821322,133.998066,114.855485,-9418.149754
73.821949,95.712904,114.855485,-9418.149754
73.822576,133.998066,114.855485,-9475.577496
73.823203,153.140646,133.998066,-9399.007173
73.823830,172.283227,76.570323,-9475.577496
73.824458,133.998066,114.855485,-9418.149754
73.825085,76.570323,114.855485,-9418.149754
73.825712,133.998066,153.140646,-9437.292334
73.826339,133.998066,114.855485,-9418.149754
73.826966,76.570323,172.283227,-9418.149754
73.827593,133.998066,133.998066,-9399.007173
73.828221,76.570323,114.855485,-9360.722011
73.828848,76.570323,114.855485,-9418.149754
73.829475,95.712904,114.855485,-9418.149754
73.830102,95.712904,172.283227,-9418.149754
73.830730,133.998066,114.855485,-9475.577496
73.831357,38.285162,153.140646,-9475.577496
73.831985,76.570323,172.283227,-9475.577496
73.832612,76.570323,153.140646,-9437.292334
73.833239,133.998066,153.140646,-9533.005238
73.833867,210.568389,133.998066,-9399.007173
73.834494,76.570323,114.855485,-9418.149754
73.835122,76.570323,114.855485,-9418.149754
73.835749,133.998066,229.710970,-9418.149754
73.836377,95.712904,114.855485,-9437.292334
73.837004,38.285162,114.855485,-9418.149754
73.837632,133.998066,114.855485,-9456.434915
73.838259,76.570323,114.855485,-9418.149754
73.838887,57.427742,133.998066,-9360.722011
73.839514,76.570323,114.855485,-9418.149754
73.840141,76.570323,114.855485,-9456.434915
73.840769,76.570323,172.283227,-9418.149754
73.841396,76.570323,114.855485,-9418.149754
73.842024,95.712904,133.998066,-9418.149754
73.842651,133.998066,114.855485,-9475.577496
73.843279,133.998066,153.140646,-9418.149754
73.843906,133.998066,153.140646,-9456.434915
73.844534,133.998066,114.855485,-9418.149754
73.845161,76.570323,153.140646,-9418.149754
73.845788,133.998066,114.855485,-9418.149754
73.846416,153.140646,191.425808,-9494.720077
73.847043,57.427742,210.568389,-9418.149754
73.847671,133.998066,153.140646,-9437.292334
73.848298,38.285162,114.855485,-9418.149754
73.848926,95.712904,114.855485,-9418.149754
73.849553,133.998066,133.998066,-9437.292334
73.850181,76.570323,114.855485,-9456.434915
73.850808,95.712904,95.712904,-9399.007173
73.851436,76.570323,172.283227,-9418.149754
73.852063,133.998066,114.855485,-9437.292334
73.852690,38.285162,114.855485,-9437.292334
73.853318,133.998066,172.283227,-9475.577496
73.853945,76.570323,172.283227,-9456.434915
73.854573,133.998066,133.998066,-9399.007173
73.855200,133.998066,114.855485,-9418.149754
73.855828,133.998066,191.425808,-9399.007173
73.856455,133.998066,114.855485,-9418.149754
73.857083,133.998066,114.855485,-9418.149754
73.857710,133.998066,172.283227,-9437.292334
73.858337,76.570323,114.855485,-9418.149754
73.858965,153.140646,191.425808,-9399.007173
73.859592,95.712904,114.855485,-9418.149754
73.860220,133.998066,153.140646,-9418.149754
73.860847,133.998066,210.568389,-9437.292334
73.861475,76.570323,114.855485,-9437.292334
73.862102,76.570323,114.855485,-9437.292334
73.862730,95.712904,114.855485,-9437.292334
73.863357,133.998066,114.855485,-9456.434915
73.863985,153.140646,133.998066,-9399.007173
73.864612,76.570323,114.855485,-9437.292334
73.865239,76.570323,114.855485,-9418.149754
73.865867,76.570323,114.855485,-9437.292334
73.866494,76.570323,114.855485,-9475.577496
73.867122,76.570323,153.140646,-9533.005238
73.867749,76.570323,114.855485,-9456.434915
73.868377,95.712904,114.855485,-9418.149754
73.869004,153.140646,133.998066,-9399.007173
73.869632,76.570323,114.855485,-9475.577496
73.870259,95.712904,95.712904,-9456.434915
73.870886,76.570323,95.712904,-9456.434915
73.871514,133.998066,114.855485,-9456.434915
73.872141,76.570323,153.140646,-9437.292334
73.872769,38.285162,153.140646,-9456.434915
73.873396,133.998066,153.140646,-9418.149754
73.874024,95.712904,153.140646,-9418.149754
73.874651,38.285162,114.855485,-9437.292334
73.875279,76.570323,114.855485,-9418.149754
73.875906,133.998066,172.283227,-9418.149754
73.876533,133.998066,153.140646,-9494.720077
73.877161,133.998066,210.568389,-9418.149754
73.877788,133.998066,114.855485,-9475.577496
73.878416,95.712904,133.998066,-9360.722011
73.879043,38.285162,114.855485,-9418.149754
73.879671,210.568389,133.998066,-9399.007173
73.880298,153.140646,133.998066,-9399.007173
73.880926,210.568389,133.998066,-9399.007173
73.881553,153.140646,133.998066,-9399.007173
73.882181,133.998066,191.425808,-9399.007173
73.882808,133.998066,210.568389,-9418.149754
73.883435,133.998066,172.283227,-9456.434915
73.884063,38.285162,114.855485,-9418.149754
73.884690,76.570323,114.855485,-9475.577496
73.885318,133.998066,172.283227,-9399.007173
73.885945,153.140646,248.853550,-9399.007173
73.886573,133.998066,153.140646,-9418.149754
73.887200,133.998066,114.855485,-9418.149754
73.887828,133.998066,172.283227,-9418.149754
73.888455,76.570323,210.568389,-9418.149754
73.889082,114.855485,172.283227,-9475.577496
73.889710,76.570323,172.283227,-9456.434915
73.890337,153.140646,153.140646,-9399.007173
73.890965,133.998066,133.998066,-9399.007173
73.891592,95.712904,114.855485,-9475.577496
73.892220,153.140646,191.425808,-9399.007173
73.892847,114.855485,76.570323,-9418.149754
73.893475,76.570323,114.855485,-9418.149754
73.894102,114.855485,95.712904,-9437.292334
73.894730,114.855485,76.570323,-9437.292334
73.895357,76.570323,114.855485,-9437.292334
73.895984,133.998066,133.998066,-9399.007173
73.896612,76.570323,114.855485,-9456.434915
73.897239,76.570323,153.140646,-9418.149754
73.897867,95.712904,114.855485,-9418.149754
73.898494,114.855485,95.712904,-9399.007173
73.899122,114.855485,172.283227,-9399.007173
73.899749,95.712904,95.712904,-9399.007173
73.900377,76.570323,114.855485,-9437.292334
73.901004,114.855485,95.712904,-9399.007173
73.901631,38.285162,172.283227,-9437.292334
73.902259,133.998066,114.855485,-9418.149754
73.902886,133.998066,133.998066,-9456.434915
73.903514,76.570323,114.855485,-9437.292334
73.904141,76.570323,114.855485,-9418.149754
73.904769,76.570323,153.140646,-9418.149754
73.905396,133.998066,153.140646,-9418.149754
73.906024,76.570323,114.855485,-9418.149754
73.906651,133.998066,172.283227,-9456.434915
73.907279,38.285162,114.855485,-9418.149754
73.907906,133.998066,114.855485,-9418.149754
73.908533,133.998066,172.283227,-9418.149754
73.909161,133.998066,133.998066,-9399.007173
73.909788,76.570323,191.425808,-9456.434915
73.910416,38.285162,114.855485,-9418.149754
73.911043,133.998066,133.998066,-9475.577496
73.911671,76.570323,114.855485,-9475.577496
73.912298,38.285162,114.855485,-9456.434915
73.912926,38.285162,114.855485,-9418.149754
73.913553,114.855485,133.998066,-9360.722011
73.914180,38.285162,172.283227,-9418.149754
73.914808,95.712904,172.283227,-9360.722011
73.915435,95.712904,114.855485,-9456.434915
73.916063,133.998066,114.855485,-9437.292334
73.916690,133.998066,153.140646,-9418.149754
73.917318,95.712904,114.855485,-9456.434915
73.917945,153.140646,191.425808,-9456.434915
73.918573,153.140646,133.998066,-9456.434915
73.919200,172.283227,76.570323,-9418.149754
73.919828,153.140646,133.998066,-9399.007173
73.920455,133.998066,114.855485,-9456.434915
73.921082,133.998066,114.855485,-9456.434915
73.921710,133.998066,133.998066,-9494.720077
73.922337,57.427742,133.998066,-9533.005238
73.922965,133.998066,133.998066,-9399.007173
73.923592,95.712904,133.998066,-9418.149754
73.924220,76.570323,114.855485,-9418.149754
73.924847,57.427742,95.712904,-9399.007173
73.925475,76.570323,95.712904,-9399.007173
73.926102,95.712904,133.998066,-9360.722011
73.926729,114.855485,95.712904,-9399.007173
73.927357,76.570323,114.855485,-9418.149754
73.927984,38.285162,114.855485,-9418.149754
73.928612,76.570323,114.855485,-9418.149754
73.929239,153.140646,133.998066,-9399.007173
73.929867,95.712904,248.853550,-9360.722011
73.930494,38.285162,114.855485,-9418.149754
73.931122,95.712904,95.712904,-9513.862658
73.931750,76.570323,172.283227,-9418.149754
73.932377,133.998066,153.140646,-9456.434915
73.933005,76.570323,153.140646,-9418.149754
73.933633,133.998066,114.855485,-9418.149754
73.934260,76.570323,76.570323,-9379.864592
73.934888,76.570323,114.855485,-9437.292334
73.935516,133.998066,114.855485,-9418.149754
73.936143,95.712904,153.140646,-9360.722011
73.936771,76.570323,172.283227,-9418.149754
73.937399,76.570323,172.283227,-9418.149754
73.938026,76.570323,153.140646,-9437.292334
73.938654,38.285162,114.855485,-9456.434915
73.939282,76.570323,114.855485,-9418.149754
73.939909,133.998066,172.283227,-9418.149754
73.940537,38.285162,76.570323,-9399.007173
73.941165,76.570323,114.855485,-9418.149754
73.941792,133.998066,114.855485,-9418.149754
73.942420,133.998066,114.855485,-9418.149754
73.943048,95.712904,153.140646,-9418.149754
73.943675,95.712904,153.140646,-9418.149754
73.944303,114.855485,114.855485,-9379.864592
73.944931,153.140646,133.998066,-9437.292334
73.945559,76.570323,172.283227,-9418.149754
73.946186,76.570323,210.568389,-9418.149754
73.946814,76.570323,114.855485,-9418.149754
73.947442,76.570323,114.855485,-9418.149754
73.948069,57.427742,114.855485,-9456.434915
73.948697,95.712904,210.568389,-9437.292334
73.949325,38.285162,114.855485,-9418.149754
73.949952,95.712904,153.140646,-9418.149754
73.950580,153.140646,133.998066,-9399.007173
73.951208,191.425808,76.570323,-9418.149754
73.951835,133.998066,172.283227,-9475.577496
73.952463,133.998066,153.140646,-9437.292334
73.953091,153.140646,133.998066,-9399.007173
73.953718,133.998066,114.855485,-9475.577496
73.954346,133.998066,172.283227,-9418.149754
73.954974,95.712904,133.998066,-9360.722011
73.955601,95.712904,133.998066,-9360.722011
73.956229,76.570323,114.855485,-9437.292334
73.956857,133.998066,114.855485,-9418.149754
73.957485,95.712904,114.855485,-9437.292334
73.958112,133.998066,172.283227,-9418.149754
73.958740,133.998066,114.855485,-9437.292334
73.959368,191.425808,76.570323,-9456.434915
73.959995,114.855485,95.712904,-9399.007173
73.960623,95.712904,153.140646,-9360.722011
73.961251,133.998066,153.140646,-9418.149754
73.961878,133.998066,114.855485,-9456.434915
73.962506,153.140646,133.998066,-9399.007173
73.963134,133.998066,153.140646,-9418.149754
73.963761,133.998066,153.140646,-9418.149754
73.964389,153.140646,133.998066,-9399.007173
73.965017,133.998066,114.855485,-9437.292334
73.965644,133.998066,114.855485,-9475.577496
73.966272,133.998066,210.568389,-9494.720077
73.966900,133.998066,153.140646,-9456.434915
73.967527,153.140646,133.998066,-9399.007173
73.968155,57.427742,133.998066,-9360.722011
73.968783,76.570323,114.855485,-9418.149754
73.969410,76.570323,114.855485,-9418.149754
73.970038,133.998066,114.855485,-9418.149754
73.970666,38.285162,210.568389,-9456.434915
73.971294,38.285162,114.855485,-9418.149754
73.971921,153.140646,133.998066,-9456.434915
73.972549,153.140646,133.998066,-9456.434915
73.973177,133.998066,210.568389,-9475.577496
73.973804,38.285162,114.855485,-9494.720077
73.974432,133.998066,114.855485,-9418.149754
73.975060,114.855485,133.998066,-9360.722011
73.975687,114.855485,133.998066,-9360.722011
73.976315,76.570323,153.140646,-9494.720077
73.976943,133.998066,114.855485,-9494.720077
73.977570,133.998066,114.855485,-9418.149754
73.978198,76.570323,172.283227,-9437.292334
73.978826,38.285162,153.140646,-9418.149754
73.979453,76.570323,114.855485,-9418.149754
73.980081,38.285162,114.855485,-9418.149754
73.980709,133.998066,210.568389,-9418.149754
73.981336,95.712904,229.710970,-9418.149754
73.981964,114.855485,95.712904,-9399.007173
73.982592,57.427742,95.712904,-9399.007173
73.983219,76.570323,153.140646,-9399.007173
73.983847,76.570323,114.855485,-9437.292334
73.984475,133.998066,133.998066,-9437.292334
73.985103,133.998066,114.855485,-9475.577496
73.985730,95.712904,114.855485,-9437.292334
73.986358,95.712904,95.712904,-9456.434915
73.986986,133.998066,114.855485,-9418.149754
73.987613,76.570323,114.855485,-9475.577496
73.988241,133.998066,172.283227,-9418.149754
73.988869,133.998066,114.855485,-9418.149754
73.989496,76.570323,114.855485,-9437.292334
73.990124,95.712904,114.855485,-9456.434915
73.990752,76.570323,172.283227,-9475.577496
73.991379,76.570323,210.568389,-9418.149754
73.992007,133.998066,114.855485,-9456.434915
73.992635,133.998066,114.855485,-9437.292334
73.993262,95.712904,114.855485,-9456.434915
73.993890,133.998066,153.140646,-9418.149754
73.994518,76.570323,114.855485,-9475.577496
73.995145,133.998066,172.283227,-9456.434915
73.995773,133.998066,114.855485,-9418.149754
73.996401,57.427742,133.998066,-9360.722011
73.997029,76.570323,76.570323,-9456.434915
73.997656,95.712904,172.283227,-9418.149754
73.998284,114.855485,95.712904,-9399.007173
73.998912,133.998066,114.855485,-9418.149754
73.999539,133.998066,114.855485,-9418.149754
74.000167,133.998066,153.140646,-9418.149754
74.000795,76.570323,95.712904,-9399.007173
74.001422,76.570323,133.998066,-9360.722011
74.002050,114.855485,95.712904,-9399.007173
74.002678,133.998066,153.140646,-9456.434915
74.003305,133.998066,114.855485,-9418.149754
74.003933,133.998066,114.855485,-9456.434915
74.004561,133.998066,172.283227,-9418.149754
74.005188,133.998066,114.855485,-9475.577496
74.005816,133.998066,153.140646,-9399.007173
74.006444,76.570323,210.568389,-9456.434915
74.007071,133.998066,153.140646,-9494.720077
74.007699,76.570323,172.283227,-9437.292334
74.008327,76.570323,114.855485,-9456.434915
74.008954,114.855485,133.998066,-9360.722011
74.009582,76.570323,114.855485,-9418.149754
74.010210,38.285162,153.140646,-9437.292334
74.010838,76.570323,114.855485,-9437.292334
74.011465,76.570323,95.712904,-9399.007173
74.012093,76.570323,114.855485,-9418.149754
74.012721,133.998066,114.855485,-9437.292334
74.013348,76.570323,153.140646,-9456.434915
74.013976,76.570323,114.855485,-9418.149754
74.014604,95.712904,95.712904,-9456.434915
74.015231,133.998066,153.140646,-9437.292334
74.015859,153.140646,153.140646,-9513.862658
74.016487,76.570323,229.710970,-9475.577496
74.017114,76.570323,114.855485,-9418.149754
74.017742,133.998066,153.140646,-9418.149754
74.018370,76.570323,114.855485,-9418.149754
74.018997,38.285162,114.855485,-9437.292334
74.019625,95.712904,95.712904,-9379.864592
74.020253,76.570323,114.855485,-9418.149754
74.020880,76.570323,114.855485,-9418.149754
74.021508,114.855485,95.712904,-9399.007173
74.022136,114.855485,95.712904,-9437.292334
74.022764,76.570323,114.855485,-9475.577496
74.023391,133.998066,172.283227,-9437.292334
74.024019,76.570323,153.140646,-9437.292334
74.024647,19.142581,153.140646,-9418.149754
74.025274,57.427742,95.712904,-9399.007173
74.025902,76.570323,210.568389,-9418.149754
74.026530,57.427742,133.998066,-9360.722011
74.027157,57.427742,210.568389,-9418.149754
74.027785,95.712904,95.712904,-9399.007173
74.028413,133.998066,133.998066,-9475.577496
74.029040,95.712904,114.855485,-9475.577496
74.029668,76.570323,114.855485,-9494.720077
74.030296,153.140646,172.283227,-9437.292334
74.030923,133.998066,114.855485,-9418.149754
74.031551,76.570323,172.283227,-9475.577496
74.032179,133.998066,153.140646,-9475.577496
74.032806,76.570323,114.855485,-9456.434915
74.033434,38.285162,172.283227,-9418.149754
74.034061,114.855485,133.998066,-9360.722011
74.034689,133.998066,172.283227,-9437.292334
74.035317,133.998066,114.855485,-9494.720077
74.035944,95.712904,172.283227,-9360.722011
74.036572,38.285162,114.855485,-9418.149754
74.037199,38.285162,172.283227,-9418.149754
74.037827,95.712904,114.855485,-9418.149754
74.038455,153.140646,133.998066,-9399.007173
74.039082,133.998066,114.855485,-9418.149754
74.039710,76.570323,133.998066,-9360.722011
74.040337,133.998066,114.855485,-9475.577496
74.040965,76.570323,153.140646,-9456.434915
74.041593,114.855485,95.712904,-9437.292334
74.042220,95.712904,95.712904,-9399.007173
74.042848,133.998066,114.855485,-9418.149754
74.043475,153.140646,153.140646,-9456.434915
74.044103,76.570323,114.855485,-9418.149754
74.044731,76.570323,114.855485,-9437.292334
74.045358,133.998066,153.140646,-9360.722011
74.045986,114.855485,133.998066,-9360.722011
74.046613,76.570323,114.855485,-9437.292334
74.047241,133.998066,114.855485,-9437.292334
74.047869,133.998066,191.425808,-9456.434915
74.048496,76.570323,172.283227,-9418.149754
74.049124,95.712904,153.140646,-9418.149754
74.049751,133.998066,172.283227,-9418.149754
74.050379,153.140646,133.998066,-9399.007173
74.051007,133.998066,114.855485,-9418.149754
74.051634,76.570323,153.140646,-9418.149754
74.052262,133.998066,133.998066,-9399.007173
74.052889,133.998066,153.140646,-9456.434915
74.053517,114.855485,172.283227,-9360.722011
74.054145,133.998066,172.283227,-9418.149754
74.054772,133.998066,172.283227,-9437.292334
74.055400,153.140646,133.998066,-9437.292334
74.056027,95.712904,95.712904,-9437.292334
74.056655,133.998066,210.568389,-9418.149754
74.057283,153.140646,210.568389,-9418.149754
74.057910,114.855485,133.998066,-9475.577496
74.058538,133.998066,133.998066,-9456.434915
74.059165,133.998066,114.855485,-9418.149754
74.059793,133.998066,114.855485,-9533.005238
74.060421,38.285162,114.855485,-9418.149754
74.061048,76.570323,153.140646,-9418.149754
74.061676,133.998066,114.855485,-9418.149754
74.062303,153.140646,133.998066,-9437.292334
74.062931,133.998066,133.998066,-9456.434915
74.063559,172.283227,114.855485,-9399.007173
74.064186,114.855485,95.712904,-9399.007173
74.064814,133.998066,114.855485,-9418.149754
74.065441,95.712904,153.140646,-9437.292334
74.066069,133.998066,133.998066,-9399.007173
74.066697,57.427742,133.998066,-9360.722011
74.067324,133.998066,114.855485,-9418.149754
74.067952,153.140646,133.998066,-9399.007173
74.068579,76.570323,114.855485,-9418.149754
74.069207,76.570323,153.140646,-9533.005238
74.069835,76.570323,114.855485,-9437.292334
74.070462,76.570323,114.855485,-9437.292334
74.071090,133.998066,114.855485,-9475.577496
74.071718,172.283227,76.570323,-9456.434915
74.072345,153.140646,133.998066,-9399.007173
74.072973,133.998066,114.855485,-9418.149754
74.073600,76.570323,114.855485,-9418.149754
74.074228,133.998066,114.855485,-9418.149754
74.074856,133.998066,114.855485,-9418.149754
74.075483,133.998066,114.855485,-9341.579430
74.076111,76.570323,114.855485,-9418.149754
74.076738,133.998066,153.140646,-9418.149754
74.077366,95.712904,95.712904,-9399.007173
74.077994,95.712904,153.140646,-9360.722011
74.078621,133.998066,114.855485,-9418.149754
74.079249,133.998066,133.998066,-9399.007173
74.079876,76.570323,172.283227,-9418.149754
74.080504,38.285162,153.140646,-9418.149754
74.081132,95.712904,114.855485,-9437.292334
74.081759,133.998066,172.283227,-9456.434915
74.082387,133.998066,114.855485,-9418.149754
74.083014,133.998066,114.855485,-9418.149754
74.083642,133.998066,133.998066,-9399.007173
74.084270,57.427742,95.712904,-9456.434915
74.084897,114.855485,133.998066,-9418.149754
74.085525,95.712904,95.712904,-9437.292334
74.086152,95.712904,114.855485,-9475.577496
74.086780,153.140646,114.855485,-9418.149754
74.087408,133.998066,172.283227,-9399.007173
74.088035,153.140646,172.283227,-9399.007173
74.088663,76.570323,114.855485,-9418.149754
74.089290,76.570323,153.140646,-9418.149754
74.089918,76.570323,114.855485,-9418.149754
74.090546,76.570323,153.140646,-9418.149754
74.091173,133.998066,114.855485,-9418.149754
74.091801,133.998066,210.568389,-9456.434915
74.092428,153.140646,153.140646,-9437.292334
74.093056,95.712904,153.140646,-9418.149754
74.093684,114.855485,114.855485,-9379.864592
74.094311,133.998066,172.283227,-9418.149754
74.094939,172.283227,114.855485,-9379.864592
74.095566,133.998066,114.855485,-9418.149754
74.096194,133.998066,114.855485,-9456.434915
74.096822,76.570323,153.140646,-9437.292334
74.097449,153.140646,133.998066,-9456.434915
74.098077,133.998066,133.998066,-9399.007173
74.098704,133.998066,153.140646,-9418.149754
74.099332,76.570323,191.425808,-9437.292334
74.099960,133.998066,114.855485,-9437.292334
74.100587,114.855485,95.712904,-9437.292334
74.101215,95.712904,95.712904,-9456.434915
74.101842,133.998066,210.568389,-9437.292334
74.102470,95.712904,172.283227,-9418.149754
74.103098,133.998066,114.855485,-9418.149754
74.103725,133.998066,172.283227,-9437.292334
74.104353,133.998066,153.140646,-9418.149754
74.104980,95.712904,172.283227,-9437.292334
74.105608,76.570323,114.855485,-9456.434915
74.106236,133.998066,172.283227,-9418.149754
74.106863,95.712904,133.998066,-9360.722011
74.107491,76.570323,114.855485,-9418.149754
74.108118,95.712904,95.712904,-9399.007173
74.108746,133.998066,114.855485,-9437.292334
74.109374,153.140646,133.998066,-9399.007173
74.110001,133.998066,114.855485,-9418.149754
74.110629,114.855485,95.712904,-9399.007173
74.111256,38.285162,114.855485,-9418.149754
74.111884,95.712904,114.855485,-9456.434915
74.112512,133.998066,133.998066,-9456.434915
74.113139,133.998066,133.998066,-9437.292334
74.113767,95.712904,114.855485,-9399.007173
74.114394,153.140646,133.998066,-9456.434915
74.115022,95.712904,210.568389,-9437.292334
74.115650,38.285162,153.140646,-9418.149754
74.116277,172.283227,153.140646,-9379.864592
74.116905,76.570323,210.568389,-9418.149754
74.117532,38.285162,114.855485,-9418.149754
74.118160,38.285162,114.855485,-9437.292334
74.118788,114.855485,172.283227,-9360.722011
74.119415,76.570323,114.855485,-9418.149754
74.120043,133.998066,153.140646,-9418.149754
74.120670,76.570323,114.855485,-9456.434915
74.121298,57.427742,95.712904,-9399.007173
74.121926,76.570323,114.855485,-9418.149754
74.122553,76.570323,114.855485,-9418.149754
74.123181,76.570323,114.855485,-9418.149754
74.123808,76.570323,172.283227,-9360.722011
74.124436,153.140646,191.425808,-9399.007173
74.125064,95.712904,114.855485,-9456.434915
74.125691,133.998066,172.283227,-9475.577496
74.126319,172.283227,76.570323,-9456.434915
74.126946,76.570323,114.855485,-9475.577496
74.127574,133.998066,153.140646,-9418.149754
74.128202,133.998066,114.855485,-9494.720077
74.128829,95.712904,133.998066,-9360.722011
74.129457,133.998066,153.140646,-9418.149754
74.130084,133.998066,172.283227,-9437.292334
74.130712,76.570323,210.568389,-9494.720077
74.131340,76.570323,153.140646,-9418.149754
74.131967,76.570323,114.855485,-9418.149754
74.132595,95.712904,133.998066,-9360.722011
74.133223,76.570323,210.568389,-9418.149754
74.133851,133.998066,114.855485,-9418.149754
74.134478,76.570323,114.855485,-9456.434915
74.135106,38.285162,114.855485,-9418.149754
74.135734,133.998066,172.283227,-9456.434915
74.136361,133.998066,114.855485,-9418.149754
74.136989,133.998066,172.283227,-9418.149754
74.137617,57.427742,114.855485,-9418.149754
74.138245,133.998066,114.855485,-9437.292334
74.138872,95.712904,114.855485,-9456.434915
74.139500,76.570323,153.140646,-9418.149754
74.140128,76.570323,191.425808,-9456.434915
74.140755,19.142581,172.283227,-9475.577496
74.141383,76.570323,172.283227,-9456.434915
74.142011,95.712904,153.140646,-9456.434915
74.142639,76.570323,114.855485,-9418.149754
74.143266,133.998066,153.140646,-9418.149754
74.143894,133.998066,172.283227,-9418.149754
74.144522,133.998066,114.855485,-9418.149754
74.145149,76.570323,76.570323,-9322.436850
74.145777,38.285162,172.283227,-9456.434915
74.146405,38.285162,172.283227,-9456.434915
74.147032,76.570323,210.568389,-9494.720077
74.147660,76.570323,114.855485,-9456.434915
74.148288,133.998066,114.855485,-9418.149754
74.148916,76.570323,114.855485,-9418.149754
74.149543,172.283227,76.570323,-9437.292334
74.150171,153.140646,133.998066,-9399.007173
74.150799,133.998066,114.855485,-9437.292334
74.151426,133.998066,133.998066,-9456.434915
74.152054,133.998066,114.855485,-9437.292334
74.152682,133.998066,114.855485,-9418.149754
74.153310,114.855485,95.712904,-9399.007173
74.153937,191.425808,76.570323,-9418.149754
74.154565,95.712904,95.712904,-9399.007173
74.155193,38.285162,114.855485,-9533.005238
74.155820,95.712904,172.283227,-9418.149754
74.156448,38.285162,114.855485,-9456.434915
74.157076,76.570323,172.283227,-9418.149754
74.157704,114.855485,95.712904,-9399.007173
74.158331,133.998066,114.855485,-9437.292334
74.158959,95.712904,95.712904,-9399.007173
74.159587,76.570323,114.855485,-9418.149754
74.160214,133.998066,153.140646,-9456.434915
74.160842,95.712904,95.712904,-9399.007173
74.161470,38.285162,153.140646,-9437.292334
74.162098,76.570323,172.283227,-9418.149754
74.162725,153.140646,133.998066,-9399.007173
74.163353,114.855485,133.998066,-9322.436850
74.163981,191.425808,114.855485,-9379.864592
74.164608,133.998066,172.283227,-9456.434915
74.165236,76.570323,153.140646,-9418.149754
74.165864,133.998066,133.998066,-9399.007173
74.166492,95.712904,114.855485,-9437.292334
74.167119,38.285162,153.140646,-9418.149754
74.167747,133.998066,114.855485,-9418.149754
74.168375,133.998066,133.998066,-9456.434915
74.169002,133.998066,114.855485,-9418.149754
74.169630,95.712904,95.712904,-9437.292334
74.170258,76.570323,114.855485,-9456.434915
74.170886,153.140646,133.998066,-9399.007173
74.171513,133.998066,133.998066,-9399.007173
74.172141,133.998066,172.283227,-9418.149754
74.172769,153.140646,153.140646,-9399.007173
74.173396,133.998066,114.855485,-9456.434915
74.174024,76.570323,153.140646,-9418.149754
74.174652,76.570323,153.140646,-9418.149754
74.175280,114.855485,114.855485,-9379.864592
74.175907,76.570323,114.855485,-9418.149754
74.176535,76.570323,229.710970,-9456.434915
74.177163,76.570323,114.855485,-9418.149754
74.177790,153.140646,172.283227,-9399.007173
74.178418,76.570323,114.855485,-9475.577496
74.179046,76.570323,95.712904,-9399.007173
74.179674,114.855485,95.712904,-9399.007173
74.180301,57.427742,95.712904,-9399.007173
74.180929,76.570323,114.855485,-9418.149754
74.181557,0.000000,95.712904,-9456.434915
74.182184,76.570323,172.283227,-9418.149754
74.182812,153.140646,172.283227,-9456.434915
74.183440,95.712904,95.712904,-9399.007173
74.184068,95.712904,114.855485,-9475.577496
74.184695,133.998066,114.855485,-9456.434915
74.185323,133.998066,153.140646,-9456.434915
74.185951,76.570323,114.855485,-9418.149754
74.186578,133.998066,172.283227,-9437.292334
74.187206,76.570323,114.855485,-9456.434915
74.187834,95.712904,172.283227,-9418.149754
74.188462,76.570323,114.855485,-9437.292334
74.189089,133.998066,114.855485,-9437.292334
74.189717,95.712904,172.283227,-9437.292334
74.190345,133.998066,114.855485,-9456.434915
74.190972,76.570323,114.855485,-9418.149754
74.191600,172.283227,76.570323,-9437.292334
74.192228,133.998066,114.855485,-9418.149754
74.192856,153.140646,133.998066,-9399.007173
74.193483,172.283227,95.712904,-9456.434915
74.194111,133.998066,172.283227,-9456.434915
74.194739,153.140646,133.998066,-9399.007173
74.195366,76.570323,114.855485,-9418.149754
74.195994,76.570323,153.140646,-9418.149754
74.196622,133.998066,210.568389,-9418.149754
74.197249,133.998066,114.855485,-9418.149754
74.197877,38.285162,191.425808,-9418.149754
74.198505,76.570323,114.855485,-9456.434915
74.199133,133.998066,153.140646,-9418.149754
74.199760,133.998066,114.855485,-9418.149754
74.200388,95.712904,133.998066,-9552.147819
74.201016,76.570323,114.855485,-9418.149754
74.201643,76.570323,210.568389,-9418.149754
74.202271,153.140646,133.998066,-9399.007173
74.202899,19.142581,114.855485,-9418.149754
74.203527,76.570323,114.855485,-9437.292334
74.204154,133.998066,133.998066,-9399.007173
74.204782,76.570323,114.855485,-9418.149754
74.205410,76.570323,172.283227,-9418.149754
74.206037,114.855485,76.570323,-9418.149754
74.206665,76.570323,153.140646,-9418.149754
74.207293,95.712904,114.855485,-9437.292334
74.207921,95.712904,153.140646,-9418.149754
74.208548,76.570323,191.425808,-9533.005238
74.209176,133.998066,133.998066,-9399.007173
74.209804,76.570323,114.855485,-9418.149754
74.210431,76.570323,114.855485,-9437.292334
74.211059,38.285162,114.855485,-9418.149754
74.211687,76.570323,95.712904,-9399.007173
74.212315,76.570323,114.855485,-9418.149754
74.212942,76.570323,172.283227,-9437.292334
74.213570,133.998066,114.855485,-9456.434915
74.214198,133.998066,114.855485,-9418.149754
74.214825,38.285162,172.283227,-9437.292334
74.215453,57.427742,114.855485,-9418.149754
74.216081,38.285162,210.568389,-9418.149754
74.216709,57.427742,133.998066,-9360.722011
74.217336,57.427742,114.855485,-9418.149754
74.217964,95.712904,172.283227,-9360.722011
74.218592,76.570323,172.283227,-9418.149754
74.219219,76.570323,114.855485,-9418.149754
74.219847,0.000000,133.998066,-9341.579430
74.220475,133.998066,114.855485,-9418.149754
74.221103,153.140646,133.998066,-9456.434915
74.221730,172.283227,76.570323,-9418.149754
74.222358,133.998066,210.568389,-9399.007173
74.222986,95.712904,133.998066,-9418.149754
74.223613,38.285162,114.855485,-9475.577496
74.224241,76.570323,114.855485,-9418.149754
74.224869,95.712904,95.712904,-9456.434915
74.225497,76.570323,172.283227,-9418.149754
74.226124,153.140646,133.998066,-9399.007173
74.226752,95.712904,95.712904,-9494.720077
74.227380,133.998066,114.855485,-9418.149754
74.228007,114.855485,114.855485,-9379.864592
74.228635,76.570323,153.140646,-9418.149754
74.229263,76.570323,95.712904,-9456.434915
74.229891,76.570323,114.855485,-9418.149754
74.230518,95.712904,133.998066,-9360.722011
74.231146,76.570323,114.855485,-9418.149754
74.231774,38.285162,114.855485,-9456.434915
74.232401,133.998066,172.283227,-9437.292334
74.233029,133.998066,153.140646,-9437.292334
74.233656,172.283227,76.570323,-9418.149754
74.234283,76.570323,114.855485,-9418.149754
74.234911,76.570323,153.140646,-9418.149754
74.235538,76.570323,114.855485,-9418.149754
74.236166,95.712904,114.855485,-9418.149754
74.236793,133.998066,153.140646,-9418.149754
74.237421,76.570323,114.855485,-9418.149754
74.238048,114.855485,114.855485,-9399.007173
74.238675,76.570323,172.283227,-9418.149754
74.239303,38.285162,172.283227,-9418.149754
74.239930,76.570323,172.283227,-9418.149754
74.240558,114.855485,133.998066,-9360.722011
74.241185,153.140646,191.425808,-9399.007173
74.241813,95.712904,172.283227,-9360.722011
74.242440,133.998066,153.140646,-9456.434915
74.243068,133.998066,114.855485,-9456.434915
74.243695,95.712904,114.855485,-9418.149754
74.244322,133.998066,172.283227,-9418.149754
74.244950,114.855485,95.712904,-9399.007173
74.245577,76.570323,153.140646,-9437.292334
74.246205,38.285162,210.568389,-9418.149754
74.246832,38.285162,172.283227,-9533.005238
74.247460,153.140646,133.998066,-9437.292334
74.248087,133.998066,114.855485,-9418.149754
74.248714,133.998066,133.998066,-9399.007173
74.249342,76.570323,114.855485,-9437.292334
74.249969,76.570323,114.855485,-9418.149754
74.250597,133.998066,191.425808,-9418.149754
74.251224,114.855485,114.855485,-9379.864592
74.251852,133.998066,114.855485,-9418.149754
74.252479,38.285162,114.855485,-9456.434915
74.253107,95.712904,95.712904,-9494.720077
74.253734,133.998066,114.855485,-9418.149754
74.254361,76.570323,114.855485,-9418.149754
74.254989,114.855485,95.712904,-9399.007173
74.255616,133.998066,114.855485,-9418.149754
74.256244,95.712904,114.855485,-9418.149754
74.256871,95.712904,95.712904,-9456.434915
74.257499,133.998066,114.855485,-9494.720077
74.258126,153.140646,210.568389,-9399.007173
74.258753,153.140646,133.998066,-9399.007173
74.259381,76.570323,114.855485,-9418.149754
74.260008,76.570323,133.998066,-9475.577496
74.260636,76.570323,114.855485,-9418.149754
74.261263,153.140646,114.855485,-9437.292334
74.261891,76.570323,114.855485,-9456.434915
74.262518,133.998066,114.855485,-9418.149754
74.263145,76.570323,114.855485,-9456.434915
74.263773,133.998066,114.855485,-9418.149754
74.264400,76.570323,114.855485,-9418.149754
74.265028,133.998066,114.855485,-9418.149754
74.265655,38.285162,114.855485,-9418.149754
74.266283,95.712904,114.855485,-9475.577496
74.266910,133.998066,114.855485,-9418.149754
74.267538,133.998066,114.855485,-9418.149754
74.268165,95.712904,95.712904,-9399.007173
74.268792,133.998066,114.855485,-9418.149754
74.269420,95.712904,95.712904,-9437.292334
74.270047,95.712904,95.712904,-9456.434915
74.270675,76.570323,114.855485,-9494.720077
74.271302,133.998066,76.570323,-9399.007173
74.271930,76.570323,172.283227,-9418.149754
74.272557,133.998066,114.855485,-9437.292334
74.273184,114.855485,95.712904,-9399.007173
74.273812,38.285162,114.855485,-9418.149754
74.274439,76.570323,114.855485,-9418.149754
74.275067,95.712904,153.140646,-9418.149754
74.275694,210.568389,172.283227,-9379.864592
74.276322,76.570323,114.855485,-9418.149754
74.276949,57.427742,133.998066,-9360.722011
74.277577,133.998066,114.855485,-9418.149754
74.278204,76.570323,114.855485,-9418.149754
74.278831,76.570323,114.855485,-9418.149754
74.279459,133.998066,210.568389,-9456.434915
74.280086,133.998066,114.855485,-9437.292334
74.280714,114.855485,114.855485,-9494.720077
74.281341,76.570323,114.855485,-9418.149754
74.281969,153.140646,191.425808,-9399.007173
74.282596,133.998066,114.855485,-9418.149754
74.283223,133.998066,172.283227,-9418.149754
74.283851,133.998066,114.855485,-9437.292334
74.284478,133.998066,114.855485,-9418.149754
74.285106,38.285162,172.283227,-9418.149754
74.285733,76.570323,172.283227,-9437.292334
74.286361,133.998066,114.855485,-9418.149754
74.286988,172.283227,133.998066,-9418.149754
74.287615,133.998066,114.855485,-9418.149754
74.288243,153.140646,153.140646,-9399.007173
74.288870,76.570323,114.855485,-9418.149754
74.289498,76.570323,114.855485,-9475.577496
74.290125,133.998066,133.998066,-9494.720077
74.290753,153.140646,133.998066,-9399.007173
74.291380,133.998066,172.283227,-9399.007173
74.292008,95.712904,95.712904,-9494.720077
74.292635,95.712904,114.855485,-9399.007173
74.293262,114.855485,133.998066,-9360.722011
74.293890,133.998066,114.855485,-9418.149754
74.294517,76.570323,210.568389,-9418.149754
74.295145,38.285162,114.855485,-9418.149754
74.295772,38.285162,114.855485,-9418.149754
74.296400,95.712904,114.855485,-9418.149754
74.297027,133.998066,153.140646,-9418.149754
74.297654,133.998066,114.855485,-9418.149754
74.298282,153.140646,114.855485,-9418.149754
74.298909,95.712904,114.855485,-9456.434915
74.299537,76.570323,114.855485,-9456.434915
74.300164,133.998066,172.283227,-9456.434915
74.300792,76.570323,114.855485,-9456.434915
74.301419,133.998066,172.283227,-9418.149754
74.302047,133.998066,114.855485,-9437.292334
74.302674,76.570323,114.855485,-9494.720077
74.303301,133.998066,133.998066,-9456.434915
74.303929,95.712904,172.283227,-9418.149754
74.304556,38.285162,153.140646,-9456.434915
74.305184,76.570323,153.140646,-9437.292334
74.305811,114.855485,95.712904,-9399.007173
74.306439,57.427742,114.855485,-9418.149754
74.307066,95.712904,153.140646,-9360.722011
74.307693,95.712904,172.283227,-9418.149754
74.308321,76.570323,114.855485,-9360.722011
74.308948,133.998066,114.855485,-9418.149754
74.309576,153.140646,133.998066,-9494.720077
74.310203,95.712904,95.712904,-9437.292334
74.310831,95.712904,172.283227,-9418.149754
74.311458,76.570323,114.855485,-9418.149754
74.312085,114.855485,95.712904,-9399.007173
74.312713,95.712904,114.855485,-9418.149754
74.313340,38.285162,114.855485,-9418.149754
74.313968,95.712904,114.855485,-9418.149754
74.314595,114.855485,114.855485,-9379.864592
74.315223,95.712904,133.998066,-9360.722011
74.315850,76.570323,114.855485,-9494.720077
74.316478,76.570323,210.568389,-9418.149754
74.317105,76.570323,114.855485,-9456.434915
74.317732,95.712904,95.712904,-9399.007173
74.318360,133.998066,114.855485,-9418.149754
74.318987,76.570323,153.140646,-9475.577496
74.319615,76.570323,114.855485,-9418.149754
74.320242,19.142581,114.855485,-9418.149754
74.320870,76.570323,114.855485,-9456.434915
74.321497,95.712904,95.712904,-9437.292334
74.322124,76.570323,114.855485,-9418.149754
74.322752,133.998066,114.855485,-9418.149754
74.323379,133.998066,114.855485,-9418.149754
74.324007,76.570323,114.855485,-9456.434915
74.324634,38.285162,114.855485,-9418.149754
74.325262,57.427742,114.855485,-9456.434915
74.325889,76.570323,114.855485,-9437.292334
74.326517,76.570323,114.855485,-9437.292334
74.327144,133.998066,114.855485,-9494.720077
74.327771,76.570323,229.710970,-9418.149754
74.328399,133.998066,153.140646,-9456.434915
74.329026,76.570323,172.283227,-9494.720077
74.329654,153.140646,153.140646,-9456.434915
74.330281,133.998066,114.855485,-9418.149754
74.330909,114.855485,95.712904,-9437.292334
74.331536,95.712904,114.855485,-9475.577496
74.332163,133.998066,114.855485,-9456.434915
74.332791,95.712904,133.998066,-9418.149754
74.333418,153.140646,153.140646,-9513.862658
74.334046,76.570323,114.855485,-9437.292334
74.334673,76.570323,114.855485,-9475.577496
74.335300,114.855485,76.570323,-9437.292334
74.335928,57.427742,95.712904,-9437.292334
74.336555,133.998066,114.855485,-9418.149754
74.337182,133.998066,133.998066,-9399.007173
74.337810,133.998066,133.998066,-9475.577496
74.338437,114.855485,76.570323,-9418.149754
74.339064,95.712904,114.855485,-9475.577496
74.339692,153.140646,114.855485,-9418.149754
74.340319,153.140646,133.998066,-9494.720077
74.340946,133.998066,153.140646,-9418.149754
74.341574,133.998066,172.283227,-9418.149754
74.342201,57.427742,114.855485,-9418.149754
74.342829,76.570323,114.855485,-9418.149754
74.343456,19.142581,114.855485,-9418.149754
74.344083,76.570323,114.855485,-9418.149754
74.344711,76.570323,114.855485,-9418.149754
74.345338,76.570323,114.855485,-9418.149754
74.345965,153.140646,153.140646,-9399.007173
74.346593,38.285162,172.283227,-9418.149754
74.347220,95.712904,172.283227,-9533.005238
74.347847,38.285162,114.855485,-9418.149754
74.348475,133.998066,114.855485,-9418.149754
74.349102,114.855485,172.283227,-9360.722011
74.349729,76.570323,114.855485,-9475.577496
74.350357,38.285162,114.855485,-9456.434915
74.350984,95.712904,210.568389,-9360.722011
74.351612,133.998066,114.855485,-9475.577496
74.352239,172.283227,76.570323,-9456.434915
74.352866,114.855485,133.998066,-9418.149754
74.353494,76.570323,229.710970,-9437.292334
74.354121,133.998066,114.855485,-9418.149754
74.354748,76.570323,114.855485,-9475.577496
74.355376,76.570323,114.855485,-9475.577496
74.356003,133.998066,133.998066,-9456.434915
74.356630,76.570323,114.855485,-9418.149754
74.357258,76.570323,114.855485,-9418.149754
74.357885,153.140646,172.283227,-9456.434915
74.358512,133.998066,76.570323,-9379.864592
74.359140,153.140646,133.998066,-9399.007173
74.359767,133.998066,114.855485,-9475.577496
74.360395,95.712904,153.140646,-9456.434915
74.361022,76.570323,114.855485,-9418.149754
74.361649,95.712904,95.712904,-9399.007173
74.362277,76.570323,114.855485,-9418.149754
74.362904,153.140646,133.998066,-9399.007173
74.363531,133.998066,114.855485,-9475.577496
74.364159,133.998066,191.425808,-9418.149754
74.364786,114.855485,153.140646,-9379.864592
74.365413,76.570323,153.140646,-9437.292334
74.366041,76.570323,114.855485,-9418.149754
74.366668,133.998066,114.855485,-9418.149754
74.367295,76.570323,114.855485,-9418.149754
74.367923,133.998066,114.855485,-9418.149754
74.368550,76.570323,114.855485,-9418.149754
74.369178,38.285162,153.140646,-9437.292334
74.369805,95.712904,114.855485,-9418.149754
74.370432,38.285162,172.283227,-9456.434915
74.371060,76.570323,172.283227,-9418.149754
74.371687,76.570323,210.568389,-9418.149754
74.372314,133.998066,114.855485,-9418.149754
74.372942,76.570323,95.712904,-9456.434915
74.373569,95.712904,95.712904,-9456.434915
74.374196,76.570323,172.283227,-9456.434915
74.374824,153.140646,133.998066,-9456.434915
74.375451,133.998066,153.140646,-9456.434915
74.376078,0.000000,95.712904,-9399.007173
74.376706,38.285162,114.855485,-9533.005238
74.377333,133.998066,114.855485,-9456.434915
74.377961,57.427742,114.855485,-9418.149754
74.378588,153.140646,133.998066,-9399.007173
74.379215,133.998066,76.570323,-9379.864592
74.379843,76.570323,114.855485,-9437.292334
74.380470,95.712904,153.140646,-9418.149754
74.381097,114.855485,133.998066,-9360.722011
74.381725,114.855485,95.712904,-9399.007173
74.382352,76.570323,172.283227,-9418.149754
74.382979,133.998066,210.568389,-9418.149754
74.383607,76.570323,153.140646,-9456.434915
74.384234,76.570323,95.712904,-9399.007173
74.384861,133.998066,114.855485,-9418.149754
74.385489,153.140646,210.568389,-9418.149754
74.386116,133.998066,114.855485,-9418.149754
74.386744,76.570323,172.283227,-9418.149754
74.387371,38.285162,114.855485,-9437.292334
74.387998,38.285162,114.855485,-9418.149754
74.388626,133.998066,114.855485,-9437.292334
74.389253,133.998066,114.855485,-9418.149754
74.389880,114.855485,95.712904,-9456.434915
74.390508,133.998066,133.998066,-9379.864592
74.391135,76.570323,114.855485,-9418.149754
74.391762,114.855485,95.712904,-9399.007173
74.392390,76.570323,172.283227,-9475.577496
74.393017,153.140646,133.998066,-9399.007173
74.393644,133.998066,114.855485,-9418.149754
74.394272,76.570323,114.855485,-9418.149754
74.394899,38.285162,114.855485,-9418.149754
74.395527,133.998066,114.855485,-9418.149754
74.396154,133.998066,172.283227,-9418.149754
74.396781,38.285162,114.855485,-9418.149754
74.397409,76.570323,114.855485,-9418.149754
74.398036,95.712904,133.998066,-9360.722011
74.398663,76.570323,114.855485,-9418.149754
74.399291,76.570323,153.140646,-9437.292334
74.399918,153.140646,114.855485,-9456.434915
74.400545,95.712904,114.855485,-9418.149754
74.401173,38.285162,153.140646,-9418.149754
74.401800,133.998066,191.425808,-9418.149754
74.402428,133.998066,172.283227,-9418.149754
74.403055,76.570323,191.425808,-9475.577496
74.403682,153.140646,153.140646,-9437.292334
74.404310,38.285162,172.283227,-9437.292334
74.404937,76.570323,114.855485,-9456.434915
74.405564,76.570323,153.140646,-9418.149754
74.406192,153.140646,172.283227,-9399.007173
74.406819,76.570323,153.140646,-9418.149754
74.407446,57.427742,153.140646,-9360.722011
74.408074,76.570323,114.855485,-9418.149754
74.408701,38.285162,153.140646,-9475.577496
74.409328,38.285162,114.855485,-9456.434915
74.409956,133.998066,114.855485,-9533.005238
74.410583,133.998066,114.855485,-9533.005238
74.411211,38.285162,114.855485,-9437.292334
74.411838,38.285162,114.855485,-9418.149754
74.412465,95.712904,95.712904,-9399.007173
74.413093,95.712904,95.712904,-9475.577496
74.413720,95.712904,95.712904,-9399.007173
74.414347,76.570323,114.855485,-9418.149754
74.414975,76.570323,172.283227,-9418.149754
74.415602,133.998066,114.855485,-9456.434915
74.416229,114.855485,95.712904,-9456.434915
74.416857,95.712904,153.140646,-9475.577496
74.417484,95.712904,114.855485,-9399.007173
74.418111,133.998066,153.140646,-9418.149754
74.418739,133.998066,114.855485,-9418.149754
74.419366,133.998066,153.140646,-9456.434915
74.419994,95.712904,133.998066,-9360.722011
74.420621,95.712904,172.283227,-9456.434915
74.421248,95.712904,114.855485,-9418.149754
74.421876,133.998066,153.140646,-9399.007173
74.422503,76.570323,114.855485,-9418.149754
74.423130,95.712904,95.712904,-9456.434915
74.423758,76.570323,114.855485,-9418.149754
74.424385,76.570323,114.855485,-9456.434915
74.425012,133.998066,153.140646,-9418.149754
74.425640,76.570323,114.855485,-9437.292334
74.426267,38.285162,114.855485,-9418.149754
74.426894,133.998066,172.283227,-9418.149754
74.427522,114.855485,153.140646,-9360.722011
74.428149,76.570323,114.855485,-9418.149754
74.428777,76.570323,114.855485,-9456.434915
74.429404,38.285162,114.855485,-9418.149754
74.430031,114.855485,95.712904,-9456.434915
74.430659,153.140646,133.998066,-9399.007173
74.431286,153.140646,133.998066,-9399.007173
74.431913,133.998066,114.855485,-9418.149754
74.432541,76.570323,172.283227,-9475.577496
74.433168,133.998066,172.283227,-9418.149754
74.433795,153.140646,133.998066,-9456.434915
74.434423,153.140646,133.998066,-9399.007173
74.435050,76.570323,114.855485,-9418.149754
74.435677,133.998066,172.283227,-9418.149754
74.436305,133.998066,153.140646,-9418.149754
74.436932,38.285162,172.283227,-9418.149754
74.437559,133.998066,114.855485,-9418.149754
74.438187,114.855485,133.998066,-9360.722011
74.438814,133.998066,114.855485,-9456.434915
74.439441,76.570323,153.140646,-9418.149754
74.440069,133.998066,114.855485,-9418.149754
74.440696,133.998066,114.855485,-9418.149754
74.441323,38.285162,95.712904,-9399.007173
74.441950,38.285162,114.855485,-9418.149754
74.442578,133.998066,172.283227,-9418.149754
74.443205,76.570323,114.855485,-9418.149754
74.443832,76.570323,114.855485,-9418.149754
74.444460,133.998066,114.855485,-9437.292334
74.445087,38.285162,114.855485,-9494.720077
74.445714,133.998066,114.855485,-9418.149754
74.446342,95.712904,114.855485,-9437.292334
74.446969,133.998066,114.855485,-9456.434915
74.447596,133.998066,172.283227,-9399.007173
74.448224,38.285162,172.283227,-9418.149754
74.448851,76.570323,114.855485,-9418.149754
74.449478,114.855485,95.712904,-9399.007173
74.450106,133.998066,191.425808,-9399.007173
74.450733,114.855485,95.712904,-9475.577496
74.451360,133.998066,191.425808,-9456.434915
74.451988,95.712904,95.712904,-9456.434915
74.452615,57.427742,95.712904,-9399.007173
74.453242,133.998066,153.140646,-9456.434915
74.453870,76.570323,114.855485,-9360.722011
74.454497,76.570323,153.140646,-9418.149754
74.455124,95.712904,114.855485,-9456.434915
74.455751,133.998066,114.855485,-9418.149754
74.456379,38.285162,114.855485,-9418.149754
74.457006,114.855485,172.283227,-9360.722011
74.457633,95.712904,133.998066,-9360.722011
74.458261,133.998066,114.855485,-9437.292334
74.458888,38.285162,210.568389,-9418.149754
74.459515,38.285162,114.855485,-9475.577496
74.460143,133.998066,191.425808,-9418.149754
74.460770,76.570323,191.425808,-9418.149754
74.461397,76.570323,153.140646,-9418.149754
74.462025,153.140646,133.998066,-9399.007173
74.462652,210.568389,153.140646,-9399.007173
74.463279,133.998066,153.140646,-9399.007173
