#time,accel_x,accel_y,accel_z
107.556927,133.998066,114.855485,-9475.577496
107.557556,133.998066,153.140646,-9475.577496
107.558185,114.855485,172.283227,-9418.149754
107.558814,76.570323,210.568389,-9456.434915
107.559443,133.998066,114.855485,-9418.149754
107.560071,76.570323,114.855485,-9418.149754
107.560700,133.998066,153.140646,-9418.149754
107.561329,133.998066,153.140646,-9418.149754
107.561958,133.998066,114.855485,-9418.149754
107.562587,76.570323,172.283227,-9418.149754
107.563216,133.998066,114.855485,-9418.149754
107.563845,133.998066,114.855485,-9418.149754
107.564474,133.998066,114.855485,-9437.292334
107.565103,114.855485,95.712904,-9399.007173
107.565732,57.427742,153.140646,-9456.434915
107.566361,133.998066,114.855485,-9418.149754
107.566989,114.855485,76.570323,-9418.149754
107.567618,153.140646,133.998066,-9399.007173
107.568247,153.140646,114.855485,-9418.149754
107.568876,153.140646,153.140646,-9418.149754
107.569505,153.140646,133.998066,-9399.007173
107.570134,133.998066,153.140646,-9418.149754
107.570763,133.998066,114.855485,-9437.292334
107.571392,95.712904,95.712904,-9494.720077
107.572021,38.285162,114.855485,-9418.149754
107.572650,95.712904,191.425808,-9418.149754
107.573279,76.570323,172.283227,-9418.149754
107.573907,133.998066,114.855485,-9418.149754
107.574536,153.140646,114.855485,-9456.434915
107.575165,76.570323,114.855485,-9437.292334
107.575794,76.570323,114.855485,-9418.149754
107.576423,95.712904,114.855485,-9399.007173
107.577052,38.285162,114.855485,-9494.720077
107.577681,38.285162,114.855485,-9456.434915
107.578310,95.712904,95.712904,-9456.434915
107.578939,133.998066,114.855485,-9418.149754
107.579568,38.285162,114.855485,-9418.149754
107.580196,38.285162,114.855485,-9418.149754
107.580825,38.285162,229.710970,-9437.292334
107.581454,133.998066,133.998066,-9399.007173
107.582083,133.998066,114.855485,-9418.149754
107.582712,114.855485,153.140646,-9360.722011
107.583341,76.570323,114.855485,-9533.005238
107.583970,153.140646,114.855485,-9437.292334
107.584599,133.998066,114.855485,-9418.149754
107.585228,38.285162,114.855485,-9360.722011
107.585857,76.570323,114.855485,-9418.149754
107.586486,95.712904,95.712904,-9399.007173
107.587114,95.712904,95.712904,-9399.007173
107.587743,133.998066,114.855485,-9418.149754
107.588372,95.712904,95.712904,-9399.007173
107.589001,95.712904,114.855485,-9418.149754
107.589630,133.998066,133.998066,-9399.007173
107.590259,76.570323,114.855485,-9456.434915
107.590888,133.998066,114.855485,-9418.149754
107.591517,95.712904,114.855485,-9418.149754
107.592146,57.427742,114.855485,-9437.292334
107.592775,38.285162,114.855485,-9437.292334
107.593404,38.285162,172.283227,-9418.149754
107.594032,153.140646,153.140646,-9399.007173
107.594661,57.427742,95.712904,-9399.007173
107.595290,76.570323,114.855485,-9456.434915
107.595919,76.570323,114.855485,-9437.292334
107.596548,114.855485,95.712904,-9456.434915
107.597177,133.998066,172.283227,-9437.292334
107.597806,133.998066,153.140646,-9418.149754
107.598435,114.855485,172.283227,-9360.722011
107.599064,76.570323,172.283227,-9437.292334
107.599693,95.712904,172.283227,-9456.434915
107.600321,133.998066,172.283227,-9456.434915
107.600950,133.998066,172.283227,-9418.149754
107.601579,133.998066,133.998066,-9456.434915
107.602208,133.998066,114.855485,-9475.577496
107.602837,76.570323,114.855485,-9494.720077
107.603466,95.712904,95.712904,-9456.434915
107.604095,76.570323,114.855485,-9437.292334
107.604724,19.142581,153.140646,-9418.149754
107.605353,76.570323,133.998066,-9360.722011
107.605982,133.998066,153.140646,-9418.149754
107.606611,95.712904,172.283227,-9418.149754
107.607239,76.570323,95.712904,-9494.720077
107.607868,133.998066,133.998066,-9399.007173
107.608497,133.998066,114.855485,-9418.149754
107.609126,76.570323,114.855485,-9437.292334
107.609755,210.568389,133.998066,-9437.292334
107.610384,153.140646,133.998066,-9437.292334
107.611013,114.855485,95.712904,-9399.007173
107.611642,133.998066,114.855485,-9437.292334
107.612271,76.570323,153.140646,-9418.149754
107.612900,76.570323,114.855485,-9418.149754
107.613528,133.998066,114.855485,-9437.292334
107.614157,133.998066,133.998066,-9399.007173
107.614786,95.712904,114.855485,-9456.434915
107.615415,133.998066,114.855485,-9437.292334
107.616044,76.570323,114.855485,-9418.149754
107.616672,133.998066,153.140646,-9456.434915
107.617301,133.998066,172.283227,-9456.434915
107.617929,114.855485,95.712904,-9437.292334
107.618558,95.712904,133.998066,-9360.722011
107.619186,133.998066,191.425808,-9418.149754
107.619815,76.570323,153.140646,-9418.149754
107.620443,133.998066,114.855485,-9418.149754
107.621072,76.570323,114.855485,-9456.434915
107.621700,76.570323,114.855485,-9437.292334
107.622328,76.570323,114.855485,-9418.149754
107.622957,95.712904,95.712904,-9399.007173
107.623585,114.855485,95.712904,-9379.864592
107.624214,76.570323,172.283227,-9418.149754
107.624842,76.570323,153.140646,-9418.149754
107.625471,95.712904,133.998066,-9360.722011
107.626099,133.998066,114.855485,-9418.149754
107.626728,172.283227,114.855485,-9379.864592
107.627356,153.140646,133.998066,-9456.434915
107.627985,114.855485,95.712904,-9437.292334
107.628613,57.427742,114.855485,-9418.149754
107.629242,114.855485,172.283227,-9360.722011
107.629870,76.570323,114.855485,-9456.434915
107.630499,76.570323,76.570323,-9379.864592
107.631127,95.712904,114.855485,-9494.720077
107.631756,76.570323,114.855485,-9418.149754
107.632384,76.570323,153.140646,-9418.149754
107.633013,76.570323,172.283227,-9456.434915
107.633641,76.570323,172.283227,-9494.720077
107.634270,133.998066,172.283227,-9418.149754
107.634898,76.570323,172.283227,-9418.149754
107.635527,133.998066,114.855485,-9418.149754
107.636155,133.998066,76.570323,-9341.579430
107.636783,133.998066,114.855485,-9418.149754
107.637412,133.998066,114.855485,-9437.292334
107.638040,133.998066,172.283227,-9418.149754
107.638669,153.140646,133.998066,-9399.007173
107.639297,95.712904,95.712904,-9437.292334
107.639926,76.570323,76.570323,-9379.864592
107.640554,114.855485,76.570323,-9456.434915
107.641183,76.570323,153.140646,-9418.149754
107.641811,133.998066,114.855485,-9418.149754
107.642440,76.570323,114.855485,-9418.149754
107.643068,133.998066,114.855485,-9418.149754
107.643697,114.855485,95.712904,-9399.007173
107.644325,38.285162,153.140646,-9456.434915
107.644954,76.570323,114.855485,-9418.149754
107.645582,95.712904,95.712904,-9399.007173
107.646211,57.427742,95.712904,-9456.434915
107.646839,133.998066,114.855485,-9418.149754
107.647468,95.712904,95.712904,-9399.007173
107.648096,153.140646,133.998066,-9399.007173
107.648725,133.998066,153.140646,-9475.577496
107.649353,153.140646,153.140646,-9399.007173
107.649981,95.712904,172.283227,-9418.149754
107.650610,76.570323,114.855485,-9437.292334
107.651238,76.570323,172.283227,-9437.292334
107.651867,172.283227,76.570323,-9418.149754
107.652495,76.570323,114.855485,-9418.149754
107.653124,76.570323,153.140646,-9418.149754
107.653752,38.285162,153.140646,-9418.149754
107.654381,38.285162,114.855485,-9418.149754
107.655009,95.712904,153.140646,-9456.434915
107.655638,76.570323,114.855485,-9418.149754
107.656266,76.570323,153.140646,-9418.149754
107.656895,133.998066,114.855485,-9456.434915
107.657523,133.998066,114.855485,-9418.149754
107.658152,133.998066,172.283227,-9418.149754
107.658780,133.998066,153.140646,-9418.149754
107.659409,114.855485,114.855485,-9379.864592
107.660037,76.570323,114.855485,-9418.149754
107.660666,95.712904,95.712904,-9399.007173
107.661294,76.570323,114.855485,-9360.722011
107.661923,133.998066,114.855485,-9456.434915
107.662551,153.140646,191.425808,-9475.577496
107.663180,95.712904,95.712904,-9456.434915
107.663808,133.998066,114.855485,-9475.577496
107.664436,153.140646,153.140646,-9513.862658
107.665065,76.570323,210.568389,-9437.292334
107.665693,76.570323,114.855485,-9494.720077
107.666322,76.570323,153.140646,-9475.577496
107.666950,95.712904,114.855485,-9418.149754
107.667579,133.998066,114.855485,-9418.149754
107.668207,95.712904,95.712904,-9456.434915
107.668836,133.998066,114.855485,-9437.292334
107.669464,133.998066,133.998066,-9494.720077
107.670093,133.998066,114.855485,-9437.292334
107.670721,133.998066,114.855485,-9418.149754
107.671350,133.998066,172.283227,-9418.149754
107.671978,76.570323,114.855485,-9494.720077
107.672607,153.140646,172.283227,-9418.149754
107.673235,153.140646,153.140646,-9418.149754
107.673864,114.855485,95.712904,-9399.007173
107.674492,133.998066,153.140646,-9418.149754
107.675121,76.570323,114.855485,-9418.149754
107.675749,76.570323,114.855485,-9437.292334
107.676378,95.712904,172.283227,-9360.722011
107.677006,38.285162,172.283227,-9418.149754
107.677634,38.285162,153.140646,-9437.292334
107.678263,133.998066,114.855485,-9418.149754
107.678891,133.998066,114.855485,-9437.292334
107.679520,133.998066,114.855485,-9418.149754
107.680148,133.998066,172.283227,-9437.292334
107.680777,76.570323,153.140646,-9418.149754
107.681405,76.570323,114.855485,-9418.149754
107.682034,114.855485,133.998066,-9360.722011
107.682662,114.855485,133.998066,-9360.722011
107.683291,95.712904,57.427742,-9399.007173
107.683919,114.855485,76.570323,-9437.292334
107.684548,76.570323,153.140646,-9437.292334
107.685176,76.570323,114.855485,-9494.720077
107.685805,76.570323,114.855485,-9418.149754
107.686433,191.425808,133.998066,-9399.007173
107.687062,133.998066,153.140646,-9418.149754
107.687690,153.140646,191.425808,-9399.007173
107.688319,76.570323,114.855485,-9437.292334
107.688947,114.855485,95.712904,-9399.007173
107.689576,133.998066,133.998066,-9437.292334
107.690204,133.998066,172.283227,-9475.577496
107.690833,95.712904,133.998066,-9418.149754
107.691461,133.998066,114.855485,-9418.149754
107.692089,114.855485,133.998066,-9360.722011
107.692718,133.998066,153.140646,-9399.007173
107.693346,95.712904,114.855485,-9418.149754
107.693975,153.140646,133.998066,-9399.007173
107.694603,172.283227,114.855485,-9379.864592
107.695232,57.427742,133.998066,-9360.722011
107.695860,76.570323,153.140646,-9418.149754
107.696489,95.712904,95.712904,-9399.007173
107.697117,133.998066,114.855485,-9418.149754
107.697746,133.998066,153.140646,-9418.149754
107.698374,133.998066,114.855485,-9475.577496
107.699003,133.998066,172.283227,-9437.292334
107.699631,153.140646,133.998066,-9399.007173
107.700260,76.570323,172.283227,-9418.149754
107.700888,38.285162,153.140646,-9437.292334
107.701517,153.140646,133.998066,-9399.007173
107.702145,133.998066,114.855485,-9437.292334
107.702774,133.998066,114.855485,-9437.292334
107.703402,95.712904,95.712904,-9475.577496
107.704031,38.285162,114.855485,-9437.292334
107.704659,133.998066,114.855485,-9456.434915
107.705288,76.570323,229.710970,-9437.292334
107.705916,133.998066,114.855485,-9418.149754
107.706544,133.998066,153.140646,-9437.292334
107.707173,95.712904,114.855485,-9418.149754
107.707801,95.712904,114.855485,-9456.434915
107.708430,76.570323,153.140646,-9418.149754
107.709058,153.140646,133.998066,-9399.007173
107.709687,76.570323,172.283227,-9418.149754
107.710315,38.285162,114.855485,-9418.149754
107.710944,76.570323,114.855485,-9475.577496
107.711572,95.712904,114.855485,-9437.292334
107.712201,133.998066,114.855485,-9533.005238
107.712829,76.570323,172.283227,-9418.149754
107.713458,133.998066,114.855485,-9418.149754
107.714086,76.570323,114.855485,-9418.149754
107.714715,114.855485,133.998066,-9360.722011
107.715343,153.140646,153.140646,-9437.292334
107.715972,133.998066,114.855485,-9437.292334
107.716599,95.712904,114.855485,-9456.434915
107.717226,133.998066,133.998066,-9399.007173
107.717853,76.570323,114.855485,-9456.434915
107.718480,38.285162,114.855485,-9418.149754
107.719107,95.712904,172.283227,-9494.720077
107.719734,76.570323,153.140646,-9418.149754
107.720361,95.712904,114.855485,-9494.720077
107.720988,133.998066,133.998066,-9437.292334
107.721615,133.998066,172.283227,-9418.149754
107.722242,95.712904,95.712904,-9399.007173
107.722869,76.570323,114.855485,-9418.149754
107.723496,76.570323,191.425808,-9475.577496
107.724123,153.140646,153.140646,-9399.007173
107.724750,133.998066,114.855485,-9456.434915
107.725377,76.570323,172.283227,-9418.149754
107.726004,133.998066,191.425808,-9399.007173
107.726631,133.998066,210.568389,-9418.149754
107.727258,133.998066,153.140646,-9418.149754
107.727885,172.283227,76.570323,-9418.149754
107.728512,133.998066,153.140646,-9418.149754
107.729139,133.998066,172.283227,-9399.007173
107.729766,95.712904,133.998066,-9360.722011
107.730393,76.570323,114.855485,-9418.149754
107.731020,19.142581,114.855485,-9418.149754
107.731647,0.000000,172.283227,-9360.722011
107.732274,76.570323,114.855485,-9418.149754
107.732901,95.712904,133.998066,-9360.722011
107.733528,153.140646,133.998066,-9456.434915
107.734155,76.570323,153.140646,-9418.149754
107.734782,133.998066,172.283227,-9418.149754
107.735409,114.855485,133.998066,-9360.722011
107.736036,38.285162,114.855485,-9418.149754
107.736663,57.427742,76.570323,-9379.864592
107.737290,153.140646,133.998066,-9456.434915
107.737917,76.570323,114.855485,-9418.149754
107.738544,38.285162,153.140646,-9533.005238
107.739171,133.998066,114.855485,-9418.149754
107.739798,153.140646,172.283227,-9418.149754
107.740425,76.570323,153.140646,-9418.149754
107.741052,153.140646,172.283227,-9399.007173
107.741679,133.998066,133.998066,-9456.434915
107.742306,133.998066,114.855485,-9418.149754
107.742933,76.570323,114.855485,-9418.149754
107.743560,114.855485,95.712904,-9399.007173
107.744187,114.855485,95.712904,-9399.007173
107.744814,76.570323,114.855485,-9418.149754
107.745441,38.285162,172.283227,-9418.149754
107.746068,76.570323,210.568389,-9475.577496
107.746695,133.998066,172.283227,-9418.149754
107.747322,38.285162,114.855485,-9456.434915
107.747949,133.998066,153.140646,-9418.149754
107.748576,153.140646,191.425808,-9437.292334
107.749203,133.998066,114.855485,-9418.149754
107.749830,95.712904,95.712904,-9494.720077
107.750457,133.998066,153.140646,-9399.007173
107.751084,133.998066,114.855485,-9418.149754
107.751711,76.570323,133.998066,-9418.149754
107.752338,76.570323,114.855485,-9437.292334
107.752965,76.570323,114.855485,-9418.149754
107.753592,76.570323,153.140646,-9418.149754
107.754219,76.570323,172.283227,-9533.005238
107.754846,133.998066,114.855485,-9418.149754
107.755473,114.855485,114.855485,-9399.007173
107.756100,133.998066,114.855485,-9456.434915
107.756727,133.998066,172.283227,-9437.292334
107.757354,153.140646,133.998066,-9456.434915
107.757981,76.570323,114.855485,-9475.577496
107.758608,76.570323,172.283227,-9456.434915
107.759235,172.283227,114.855485,-9379.864592
107.759862,76.570323,172.283227,-9418.149754
107.760489,95.712904,133.998066,-9360.722011
107.761116,76.570323,114.855485,-9418.149754
107.761743,76.570323,210.568389,-9418.149754
107.762370,133.998066,114.855485,-9418.149754
107.762997,38.285162,172.283227,-9418.149754
107.763624,38.285162,114.855485,-9418.149754
107.764251,76.570323,114.855485,-9418.149754
107.764878,76.570323,76.570323,-9399.007173
107.765505,133.998066,114.855485,-9437.292334
107.766132,153.140646,133.998066,-9399.007173
107.766759,76.570323,114.855485,-9475.577496
107.767386,95.712904,95.712904,-9437.292334
107.768013,133.998066,114.855485,-9456.434915
107.768640,153.140646,133.998066,-9399.007173
107.769267,133.998066,172.283227,-9418.149754
107.769894,95.712904,153.140646,-9533.005238
107.770521,76.570323,114.855485,-9418.149754
107.771148,38.285162,114.855485,-9418.149754
107.771775,133.998066,114.855485,-9418.149754
107.772402,153.140646,133.998066,-9399.007173
107.773029,133.998066,114.855485,-9418.149754
107.773656,114.855485,133.998066,-9437.292334
107.774283,153.140646,114.855485,-9418.149754
107.774910,76.570323,114.855485,-9437.292334
107.775537,57.427742,95.712904,-9399.007173
107.776164,19.142581,114.855485,-9418.149754
107.776791,76.570323,114.855485,-9418.149754
107.777418,133.998066,172.283227,-9418.149754
107.778045,153.140646,153.140646,-9399.007173
107.778672,133.998066,76.570323,-9379.864592
107.779299,76.570323,114.855485,-9437.292334
107.779926,76.570323,114.855485,-9494.720077
107.780553,133.998066,172.283227,-9475.577496
107.781180,133.998066,153.140646,-9456.434915
107.781807,76.570323,114.855485,-9418.149754
107.782434,133.998066,114.855485,-9456.434915
107.783061,133.998066,114.855485,-9456.434915
107.783688,153.140646,210.568389,-9456.434915
107.784315,76.570323,172.283227,-9437.292334
107.784942,133.998066,114.855485,-9418.149754
107.785569,114.855485,95.712904,-9456.434915
107.786196,76.570323,114.855485,-9418.149754
107.786823,133.998066,172.283227,-9437.292334
107.787450,76.570323,210.568389,-9437.292334
107.788077,95.712904,153.140646,-9418.149754
107.788704,172.283227,133.998066,-9418.149754
107.789331,153.140646,153.140646,-9399.007173
107.789958,114.855485,95.712904,-9399.007173
107.790585,76.570323,153.140646,-9437.292334
107.791212,76.570323,172.283227,-9437.292334
107.791839,95.712904,172.283227,-9437.292334
107.792466,76.570323,172.283227,-9418.149754
107.793093,153.140646,133.998066,-9399.007173
107.793720,114.855485,133.998066,-9360.722011
107.794347,114.855485,95.712904,-9399.007173
107.794974,76.570323,172.283227,-9475.577496
107.795601,38.285162,153.140646,-9418.149754
107.796228,76.570323,210.568389,-9418.149754
107.796855,38.285162,114.855485,-9418.149754
107.797482,76.570323,153.140646,-9437.292334
107.798109,133.998066,114.855485,-9437.292334
107.798736,133.998066,114.855485,-9494.720077
107.799363,95.712904,114.855485,-9418.149754
107.799990,133.998066,114.855485,-9494.720077
107.800617,76.570323,95.712904,-9399.007173
107.801244,76.570323,114.855485,-9475.577496
107.801871,76.570323,133.998066,-9418.149754
107.802498,57.427742,95.712904,-9399.007173
107.803125,153.140646,210.568389,-9456.434915
107.803752,133.998066,114.855485,-9437.292334
107.804379,133.998066,210.568389,-9475.577496
107.805006,114.855485,95.712904,-9456.434915
107.805633,76.570323,153.140646,-9437.292334
107.806260,95.712904,114.855485,-9437.292334
107.806887,133.998066,114.855485,-9456.434915
107.807514,76.570323,172.283227,-9437.292334
107.808141,133.998066,114.855485,-9418.149754
107.808768,133.998066,114.855485,-9418.149754
107.809395,133.998066,172.283227,-9418.149754
107.810022,38.285162,172.283227,-9418.149754
107.810649,76.570323,172.283227,-9418.149754
107.811276,153.140646,172.283227,-9475.577496
107.811903,76.570323,172.283227,-9533.005238
107.812530,76.570323,114.855485,-9437.292334
107.813157,76.570323,114.855485,-9418.149754
107.813784,76.570323,114.855485,-9437.292334
107.814411,38.285162,210.568389,-9456.434915
107.815038,38.285162,114.855485,-9418.149754
107.815665,76.570323,133.998066,-9418.149754
107.816292,76.570323,114.855485,-9437.292334
107.816920,133.998066,172.283227,-9437.292334
107.817547,76.570323,114.855485,-9418.149754
107.818174,114.855485,95.712904,-9399.007173
107.818802,153.140646,95.712904,-9360.722011
107.819429,76.570323,114.855485,-9418.149754
107.820057,133.998066,114.855485,-9418.149754
107.820684,133.998066,153.140646,-9418.149754
107.821312,38.285162,114.855485,-9418.149754
107.821939,133.998066,172.283227,-9399.007173
107.822567,133.998066,114.855485,-9456.434915
107.823194,133.998066,114.855485,-9475.577496
107.823822,133.998066,114.855485,-9418.149754
107.824449,76.570323,114.855485,-9418.149754
107.825076,76.570323,210.568389,-9418.149754
107.825704,133.998066,114.855485,-9456.434915
107.826331,114.855485,191.425808,-9360.722011
107.826959,153.140646,133.998066,-9456.434915
107.827586,153.140646,133.998066,-9456.434915
107.828214,133.998066,114.855485,-9456.434915
107.828841,133.998066,153.140646,-9456.434915
107.829469,95.712904,95.712904,-9379.864592
107.830096,133.998066,172.283227,-9418.149754
107.830724,76.570323,172.283227,-9437.292334
107.831351,76.570323,172.283227,-9418.149754
107.831979,153.140646,172.283227,-9456.434915
107.832606,95.712904,114.855485,-9399.007173
107.833233,76.570323,114.855485,-9456.434915
107.833861,114.855485,76.570323,-9437.292334
107.834488,133.998066,172.283227,-9437.292334
107.835116,133.998066,114.855485,-9418.149754
107.835743,133.998066,114.855485,-9418.149754
107.836371,76.570323,114.855485,-9418.149754
107.836998,133.998066,114.855485,-9494.720077
107.837626,133.998066,153.140646,-9399.007173
107.838253,133.998066,210.568389,-9418.149754
107.838881,76.570323,114.855485,-9418.149754
107.839508,38.285162,153.140646,-9456.434915
107.840135,76.570323,210.568389,-9437.292334
107.840763,76.570323,114.855485,-9418.149754
107.841390,95.712904,229.710970,-9437.292334
107.842018,76.570323,114.855485,-9418.149754
107.842645,76.570323,114.855485,-9456.434915
107.843273,133.998066,191.425808,-9399.007173
107.843900,133.998066,191.425808,-9437.292334
107.844528,95.712904,133.998066,-9418.149754
107.845155,76.570323,114.855485,-9418.149754
107.845783,76.570323,114.855485,-9437.292334
107.846410,57.427742,114.855485,-9437.292334
107.847038,133.998066,114.855485,-9437.292334
107.847665,133.998066,172.283227,-9399.007173
107.848292,76.570323,153.140646,-9456.434915
107.848920,76.570323,172.283227,-9418.149754
107.849547,38.285162,114.855485,-9456.434915
107.850175,38.285162,172.283227,-9418.149754
107.850802,19.142581,133.998066,-9456.434915
107.851430,19.142581,172.283227,-9437.292334
107.852057,133.998066,114.855485,-9437.292334
107.852685,38.285162,172.283227,-9456.434915
107.853312,38.285162,114.855485,-9418.149754
107.853940,172.283227,76.570323,-9494.720077
107.854567,76.570323,114.855485,-9418.149754
107.855194,76.570323,114.855485,-9418.149754
107.855822,76.570323,153.140646,-9475.577496
107.856449,76.570323,153.140646,-9418.149754
107.857077,38.285162,210.568389,-9418.149754
107.857704,38.285162,114.855485,-9418.149754
107.858332,95.712904,172.283227,-9418.149754
107.858959,133.998066,114.855485,-9418.149754
107.859587,153.140646,153.140646,-9399.007173
107.860214,133.998066,133.998066,-9437.292334
107.860842,133.998066,172.283227,-9418.149754
107.861469,76.570323,210.568389,-9418.149754
107.862096,133.998066,114.855485,-9437.292334
107.862724,76.570323,114.855485,-9418.149754
107.863351,133.998066,114.855485,-9418.149754
107.863979,38.285162,153.140646,-9418.149754
107.864606,76.570323,114.855485,-9437.292334
107.865234,76.570323,114.855485,-9418.149754
107.865861,76.570323,114.855485,-9418.149754
107.866489,133.998066,153.140646,-9418.149754
107.867116,76.570323,114.855485,-9475.577496
107.867744,95.712904,114.855485,-9456.434915
107.868371,76.570323,114.855485,-9418.149754
107.868999,114.855485,153.140646,-9475.577496
107.869626,76.570323,114.855485,-9418.149754
107.870253,153.140646,133.998066,-9456.434915
107.870881,133.998066,114.855485,-9418.149754
107.871508,133.998066,172.283227,-9418.149754
107.872136,57.427742,95.712904,-9399.007173
107.872763,133.998066,114.855485,-9418.149754
107.873391,133.998066,172.283227,-9437.292334
107.874018,76.570323,114.855485,-9418.149754
107.874646,76.570323,76.570323,-9379.864592
107.875273,38.285162,114.855485,-9418.149754
107.875901,133.998066,114.855485,-9437.292334
107.876528,133.998066,114.855485,-9456.434915
107.877155,114.855485,76.570323,-9456.434915
107.877783,38.285162,114.855485,-9437.292334
107.878410,76.570323,114.855485,-9456.434915
107.879038,210.568389,133.998066,-9399.007173
107.879665,95.712904,95.712904,-9399.007173
107.880293,76.570323,114.855485,-9418.149754
107.880920,38.285162,172.283227,-9418.149754
107.881548,76.570323,114.855485,-9418.149754
107.882175,38.285162,153.140646,-9418.149754
107.882803,191.425808,210.568389,-9379.864592
107.883430,133.998066,153.140646,-9418.149754
107.884058,153.140646,172.283227,-9399.007173
107.884685,76.570323,114.855485,-9418.149754
107.885312,133.998066,114.855485,-9418.149754
107.885940,133.998066,191.425808,-9418.149754
107.886567,76.570323,153.140646,-9418.149754
107.887195,76.570323,114.855485,-9360.722011
107.887822,95.712904,114.855485,-9456.434915
107.888450,133.998066,114.855485,-9494.720077
107.889077,133.998066,114.855485,-9418.149754
107.889705,133.998066,153.140646,-9418.149754
107.890332,95.712904,114.855485,-9399.007173
107.890960,76.570323,114.855485,-9418.149754
107.891587,133.998066,114.855485,-9437.292334
107.892214,133.998066,133.998066,-9399.007173
107.892842,76.570323,114.855485,-9418.149754
107.893469,76.570323,114.855485,-9418.149754
107.894097,38.285162,172.283227,-9418.149754
107.894724,76.570323,210.568389,-9418.149754
107.895352,114.855485,133.998066,-9360.722011
107.895979,133.998066,114.855485,-9475.577496
107.896607,38.285162,114.855485,-9418.149754
107.897234,133.998066,153.140646,-9418.149754
107.897862,95.712904,95.712904,-9399.007173
107.898489,114.855485,95.712904,-9399.007173
107.899117,76.570323,114.855485,-9418.149754
107.899744,38.285162,153.140646,-9475.577496
107.900371,57.427742,95.712904,-9475.577496
107.900999,76.570323,153.140646,-9418.149754
107.901626,133.998066,172.283227,-9418.149754
107.902254,153.140646,114.855485,-9418.149754
107.902881,153.140646,95.712904,-9360.722011
107.903509,153.140646,133.998066,-9456.434915
107.904136,38.285162,172.283227,-9437.292334
107.904764,153.140646,210.568389,-9437.292334
107.905391,153.140646,172.283227,-9399.007173
107.906019,133.998066,114.855485,-9437.292334
107.906646,114.855485,76.570323,-9437.292334
107.907273,38.285162,114.855485,-9418.149754
107.907901,19.142581,172.283227,-9437.292334
107.908528,38.285162,114.855485,-9437.292334
107.909156,76.570323,172.283227,-9418.149754
107.909783,76.570323,114.855485,-9418.149754
107.910411,133.998066,114.855485,-9456.434915
107.911038,133.998066,153.140646,-9437.292334
107.911666,76.570323,114.855485,-9418.149754
107.912293,133.998066,210.568389,-9418.149754
107.912921,133.998066,133.998066,-9437.292334
107.913548,38.285162,114.855485,-9456.434915
107.914176,133.998066,153.140646,-9418.149754
107.914803,133.998066,191.425808,-9418.149754
107.915430,133.998066,114.855485,-9418.149754
107.916058,95.712904,95.712904,-9456.434915
107.916685,133.998066,114.855485,-9418.149754
107.917313,76.570323,153.140646,-9418.149754
107.917940,133.998066,153.140646,-9456.434915
107.918567,76.570323,114.855485,-9418.149754
107.919194,133.998066,114.855485,-9418.149754
107.919821,133.998066,114.855485,-9418.149754
107.920449,76.570323,172.283227,-9418.149754
107.921076,133.998066,172.283227,-9418.149754
107.921703,153.140646,133.998066,-9494.720077
107.922330,133.998066,114.855485,-9418.149754
107.922958,95.712904,114.855485,-9399.007173
107.923585,38.285162,210.568389,-9475.577496
107.924212,133.998066,114.855485,-9437.292334
107.924839,95.712904,95.712904,-9437.292334
107.925466,95.712904,172.283227,-9418.149754
107.926094,76.570323,114.855485,-9418.149754
107.926721,114.855485,133.998066,-9418.149754
107.927348,76.570323,172.283227,-9418.149754
107.927975,133.998066,114.855485,-9418.149754
107.928603,38.285162,114.855485,-9437.292334
107.929230,133.998066,114.855485,-9418.149754
107.929857,76.570323,153.140646,-9418.149754
107.930484,114.855485,114.855485,-9437.292334
107.931111,172.283227,76.570323,-9456.434915
107.931739,133.998066,114.855485,-9437.292334
107.932366,133.998066,114.855485,-9475.577496
107.932993,95.712904,114.855485,-9418.149754
107.933620,133.998066,210.568389,-9437.292334
107.934248,133.998066,153.140646,-9494.720077
107.934875,153.140646,133.998066,-9456.434915
107.935502,153.140646,133.998066,-9399.007173
107.936129,57.427742,114.855485,-9437.292334
107.936756,38.285162,114.855485,-9418.149754
107.937384,172.283227,133.998066,-9437.292334
107.938011,133.998066,210.568389,-9437.292334
107.938638,76.570323,210.568389,-9456.434915
107.939265,76.570323,114.855485,-9418.149754
107.939893,76.570323,114.855485,-9418.149754
107.940520,95.712904,210.568389,-9418.149754
107.941147,153.140646,172.283227,-9399.007173
107.941774,76.570323,172.283227,-9418.149754
107.942401,76.570323,153.140646,-9437.292334
107.943029,76.570323,114.855485,-9475.577496
107.943656,57.427742,95.712904,-9399.007173
107.944283,133.998066,114.855485,-9437.292334
107.944910,153.140646,133.998066,-9399.007173
107.945538,114.855485,95.712904,-9456.434915
107.946165,133.998066,172.283227,-9475.577496
107.946792,133.998066,114.855485,-9418.149754
107.947419,133.998066,114.855485,-9418.149754
107.948046,153.140646,133.998066,-9399.007173
107.948674,153.140646,114.855485,-9418.149754
107.949301,133.998066,172.283227,-9437.292334
107.949928,133.998066,114.855485,-9418.149754
107.950555,133.998066,114.855485,-9475.577496
107.951183,114.855485,95.712904,-9456.434915
107.951810,76.570323,114.855485,-9533.005238
107.952437,76.570323,153.140646,-9437.292334
107.953064,133.998066,114.855485,-9418.149754
107.953691,76.570323,153.140646,-9456.434915
107.954319,133.998066,153.140646,-9418.149754
107.954946,57.427742,133.998066,-9360.722011
107.955573,76.570323,172.283227,-9418.149754
107.956200,38.285162,172.283227,-9437.292334
107.956828,133.998066,114.855485,-9437.292334
107.957455,38.285162,114.855485,-9418.149754
107.958082,76.570323,114.855485,-9418.149754
107.958709,57.427742,114.855485,-9456.434915
107.959336,76.570323,95.712904,-9494.720077
107.959964,95.712904,172.283227,-9475.577496
107.960591,38.285162,114.855485,-9437.292334
107.961218,76.570323,114.855485,-9456.434915
107.961845,114.855485,95.712904,-9399.007173
107.962473,133.998066,114.855485,-9418.149754
107.963100,57.427742,95.712904,-9399.007173
107.963727,76.570323,153.140646,-9418.149754
107.964354,76.570323,114.855485,-9437.292334
107.964981,133.998066,172.283227,-9418.149754
107.965609,114.855485,95.712904,-9399.007173
107.966236,153.140646,133.998066,-9399.007173
107.966863,76.570323,114.855485,-9456.434915
107.967490,76.570323,114.855485,-9418.149754
107.968118,133.998066,114.855485,-9418.149754
107.968745,95.712904,133.998066,-9360.722011
107.969372,76.570323,114.855485,-9418.149754
107.969999,95.712904,153.140646,-9418.149754
107.970627,153.140646,172.283227,-9399.007173
107.971254,114.855485,95.712904,-9456.434915
107.971881,153.140646,133.998066,-9399.007173
107.972508,38.285162,114.855485,-9418.149754
107.973135,95.712904,95.712904,-9399.007173
107.973763,133.998066,114.855485,-9418.149754
107.974390,114.855485,95.712904,-9399.007173
107.975017,76.570323,114.855485,-9437.292334
107.975644,133.998066,114.855485,-9494.720077
107.976272,76.570323,114.855485,-9418.149754
107.976899,133.998066,172.283227,-9418.149754
107.977526,133.998066,114.855485,-9418.149754
107.978153,76.570323,172.283227,-9418.149754
107.978780,153.140646,191.425808,-9456.434915
107.979408,95.712904,229.710970,-9456.434915
107.980035,95.712904,229.710970,-9418.149754
107.980662,95.712904,114.855485,-9418.149754
107.981289,133.998066,114.855485,-9418.149754
107.981917,133.998066,114.855485,-9418.149754
107.982544,76.570323,76.570323,-9399.007173
107.983171,76.570323,114.855485,-9437.292334
107.983798,95.712904,95.712904,-9399.007173
107.984425,172.283227,191.425808,-9513.862658
107.985053,133.998066,114.855485,-9418.149754
107.985680,133.998066,114.855485,-9418.149754
107.986307,76.570323,210.568389,-9418.149754
107.986934,38.285162,153.140646,-9418.149754
107.987562,133.998066,172.283227,-9418.149754
107.988189,133.998066,114.855485,-9437.292334
107.988816,153.140646,133.998066,-9399.007173
107.989443,133.998066,133.998066,-9399.007173
107.990070,114.855485,95.712904,-9456.434915
107.990698,76.570323,114.855485,-9533.005238
107.991325,133.998066,114.855485,-9475.577496
107.991952,38.285162,95.712904,-9399.007173
107.992579,76.570323,191.425808,-9494.720077
107.993207,76.570323,114.855485,-9418.149754
107.993834,133.998066,114.855485,-9418.149754
107.994461,95.712904,114.855485,-9418.149754
107.995088,95.712904,114.855485,-9437.292334
107.995715,114.855485,95.712904,-9399.007173
107.996343,133.998066,133.998066,-9494.720077
107.996970,114.855485,95.712904,-9456.434915
107.997597,133.998066,114.855485,-9475.577496
107.998224,95.712904,172.283227,-9418.149754
107.998852,38.285162,172.283227,-9437.292334
107.999479,133.998066,114.855485,-9456.434915
108.000106,95.712904,95.712904,-9456.434915
108.000733,76.570323,114.855485,-9437.292334
108.001360,95.712904,95.712904,-9399.007173
108.001988,133.998066,153.140646,-9456.434915
108.002615,133.998066,114.855485,-9418.149754
108.003242,76.570323,114.855485,-9418.149754
108.003869,76.570323,153.140646,-9494.720077
108.004497,133.998066,114.855485,-9418.149754
108.005124,133.998066,153.140646,-9475.577496
108.005751,76.570323,114.855485,-9418.149754
108.006378,114.855485,95.712904,-9399.007173
108.007005,76.570323,114.855485,-9437.292334
108.007633,38.285162,172.283227,-9456.434915
108.008260,153.140646,133.998066,-9475.577496
108.008887,95.712904,95.712904,-9437.292334
108.009514,133.998066,114.855485,-9437.292334
108.010142,133.998066,114.855485,-9456.434915
108.010769,76.570323,114.855485,-9437.292334
108.011396,95.712904,95.712904,-9456.434915
108.012023,76.570323,114.855485,-9418.149754
108.012650,38.285162,114.855485,-9418.149754
108.013278,38.285162,153.140646,-9418.149754
108.013905,153.140646,114.855485,-9418.149754
108.014532,76.570323,172.283227,-9437.292334
108.015159,76.570323,172.283227,-9418.149754
108.015787,0.000000,114.855485,-9456.434915
108.016414,133.998066,114.855485,-9456.434915
108.017041,153.140646,133.998066,-9456.434915
108.017668,76.570323,191.425808,-9360.722011
108.018295,76.570323,172.283227,-9418.149754
108.018922,95.712904,210.568389,-9418.149754
108.019549,38.285162,153.140646,-9418.149754
108.020176,76.570323,153.140646,-9437.292334
108.020803,133.998066,210.568389,-9456.434915
108.021430,133.998066,114.855485,-9418.149754
108.022057,153.140646,114.855485,-9437.292334
108.022684,76.570323,172.283227,-9475.577496
108.023311,76.570323,153.140646,-9437.292334
108.023938,133.998066,114.855485,-9418.149754
108.024565,76.570323,114.855485,-9360.722011
108.025192,76.570323,114.855485,-9437.292334
108.025819,133.998066,114.855485,-9437.292334
108.026446,76.570323,114.855485,-9437.292334
108.027073,133.998066,114.855485,-9475.577496
108.027700,172.283227,76.570323,-9437.292334
108.028327,133.998066,114.855485,-9475.577496
108.028954,114.855485,133.998066,-9475.577496
108.029581,76.570323,114.855485,-9437.292334
108.030208,76.570323,114.855485,-9418.149754
108.030835,133.998066,210.568389,-9418.149754
108.031462,76.570323,191.425808,-9418.149754
108.032089,95.712904,114.855485,-9418.149754
108.032716,76.570323,114.855485,-9418.149754
108.033343,153.140646,133.998066,-9399.007173
108.033970,153.140646,248.853550,-9399.007173
108.034597,76.570323,172.283227,-9437.292334
108.035224,76.570323,114.855485,-9456.434915
108.035851,114.855485,95.712904,-9456.434915
108.036478,133.998066,114.855485,-9418.149754
108.037105,114.855485,133.998066,-9360.722011
108.037732,76.570323,210.568389,-9418.149754
108.038359,95.712904,114.855485,-9437.292334
108.038986,76.570323,114.855485,-9418.149754
108.039613,133.998066,153.140646,-9456.434915
108.040240,76.570323,114.855485,-9418.149754
108.040867,76.570323,114.855485,-9418.149754
108.041494,133.998066,172.283227,-9418.149754
108.042121,76.570323,95.712904,-9494.720077
108.042748,76.570323,172.283227,-9418.149754
108.043375,76.570323,114.855485,-9456.434915
108.044002,133.998066,114.855485,-9418.149754
108.044629,133.998066,153.140646,-9437.292334
108.045256,76.570323,114.855485,-9418.149754
108.045883,38.285162,153.140646,-9418.149754
108.046510,76.570323,114.855485,-9418.149754
108.047137,76.570323,172.283227,-9418.149754
108.047764,76.570323,172.283227,-9475.577496
108.048391,76.570323,114.855485,-9456.434915
108.049018,76.570323,172.283227,-9437.292334
108.049645,133.998066,114.855485,-9418.149754
108.050272,114.855485,95.712904,-9399.007173
108.050899,95.712904,95.712904,-9399.007173
108.051526,133.998066,114.855485,-9418.149754
108.052153,95.712904,172.283227,-9360.722011
108.052780,133.998066,114.855485,-9437.292334
108.053407,76.570323,153.140646,-9456.434915
108.054034,76.570323,114.855485,-9399.007173
108.054661,38.285162,114.855485,-9418.149754
108.055288,133.998066,133.998066,-9437.292334
108.055915,133.998066,114.855485,-9437.292334
108.056542,76.570323,172.283227,-9533.005238
108.057169,76.570323,210.568389,-9475.577496
108.057796,76.570323,172.283227,-9418.149754
108.058423,133.998066,172.283227,-9418.149754
108.059050,76.570323,114.855485,-9418.149754
108.059677,133.998066,114.855485,-9418.149754
108.060304,76.570323,114.855485,-9418.149754
108.060931,153.140646,133.998066,-9437.292334
108.061558,133.998066,153.140646,-9418.149754
108.062185,210.568389,133.998066,-9399.007173
108.062812,95.712904,95.712904,-9399.007173
108.063439,133.998066,210.568389,-9399.007173
108.064066,76.570323,114.855485,-9475.577496
108.064693,38.285162,153.140646,-9418.149754
108.065320,38.285162,191.425808,-9437.292334
108.065947,133.998066,114.855485,-9437.292334
108.066574,133.998066,114.855485,-9360.722011
108.067201,114.855485,133.998066,-9322.436850
108.067828,133.998066,210.568389,-9494.720077
108.068455,38.285162,210.568389,-9437.292334
108.069082,133.998066,114.855485,-9418.149754
108.069709,153.140646,133.998066,-9437.292334
108.070336,95.712904,133.998066,-9360.722011
108.070963,172.283227,76.570323,-9437.292334
108.071590,95.712904,133.998066,-9418.149754
108.072217,133.998066,114.855485,-9418.149754
108.072844,76.570323,210.568389,-9456.434915
108.073471,76.570323,114.855485,-9418.149754
108.074098,19.142581,114.855485,-9437.292334
108.074725,133.998066,114.855485,-9418.149754
108.075352,38.285162,114.855485,-9437.292334
108.075979,76.570323,114.855485,-9360.722011
108.076606,114.855485,133.998066,-9418.149754
108.077233,76.570323,114.855485,-9418.149754
108.077860,76.570323,172.283227,-9475.577496
108.078487,153.140646,133.998066,-9399.007173
108.079114,76.570323,172.283227,-9418.149754
108.079741,76.570323,153.140646,-9418.149754
108.080368,133.998066,114.855485,-9475.577496
108.080995,76.570323,153.140646,-9418.149754
108.081622,95.712904,153.140646,-9437.292334
108.082249,76.570323,114.855485,-9418.149754
108.082876,76.570323,114.855485,-9418.149754
108.083503,133.998066,114.855485,-9437.292334
108.084130,76.570323,114.855485,-9437.292334
108.084757,38.285162,114.855485,-9418.149754
108.085384,95.712904,95.712904,-9399.007173
108.086011,95.712904,95.712904,-9456.434915
108.086638,133.998066,114.855485,-9456.434915
108.087265,76.570323,114.855485,-9437.292334
108.087892,76.570323,114.855485,-9418.149754
108.088519,133.998066,210.568389,-9418.149754
108.089146,153.140646,191.425808,-9399.007173
108.089773,133.998066,114.855485,-9418.149754
108.090400,133.998066,172.283227,-9456.434915
108.091027,153.140646,133.998066,-9399.007173
108.091654,153.140646,172.283227,-9399.007173
108.092281,133.998066,114.855485,-9418.149754
108.092908,38.285162,114.855485,-9437.292334
108.093535,57.427742,172.283227,-9437.292334
108.094162,76.570323,114.855485,-9437.292334
108.094789,76.570323,172.283227,-9456.434915
108.095416,38.285162,114.855485,-9418.149754
108.096043,114.855485,172.283227,-9360.722011
108.096670,19.142581,153.140646,-9418.149754
108.097297,95.712904,153.140646,-9437.292334
108.097924,76.570323,210.568389,-9418.149754
108.098551,133.998066,172.283227,-9418.149754
108.099178,153.140646,133.998066,-9399.007173
108.099805,114.855485,114.855485,-9399.007173
108.100432,76.570323,153.140646,-9437.292334
108.101059,133.998066,114.855485,-9456.434915
108.101686,57.427742,133.998066,-9360.722011
108.102313,133.998066,191.425808,-9418.149754
108.102940,133.998066,114.855485,-9437.292334
108.103568,133.998066,172.283227,-9418.149754
108.104195,114.855485,248.853550,-9360.722011
108.104822,133.998066,229.710970,-9418.149754
108.105449,133.998066,153.140646,-9456.434915
108.106076,76.570323,114.855485,-9533.005238
108.106703,133.998066,114.855485,-9456.434915
108.107330,76.570323,114.855485,-9475.577496
108.107957,133.998066,114.855485,-9418.149754
108.108584,133.998066,114.855485,-9418.149754
108.109211,76.570323,114.855485,-9418.149754
108.109838,133.998066,153.140646,-9418.149754
108.110465,76.570323,210.568389,-9456.434915
108.111092,133.998066,172.283227,-9418.149754
108.111719,38.285162,153.140646,-9456.434915
108.112346,76.570323,114.855485,-9437.292334
108.112973,76.570323,114.855485,-9418.149754
108.113600,76.570323,114.855485,-9418.149754
108.114227,38.285162,153.140646,-9456.434915
108.114854,38.285162,114.855485,-9456.434915
108.115481,76.570323,114.855485,-9418.149754
108.116108,133.998066,114.855485,-9456.434915
108.116735,76.570323,114.855485,-9418.149754
108.117362,133.998066,114.855485,-9360.722011
108.117989,76.570323,114.855485,-9418.149754
108.118616,133.998066,172.283227,-9494.720077
108.119244,133.998066,114.855485,-9456.434915
108.119871,133.998066,114.855485,-9475.577496
108.120498,133.998066,133.998066,-9437.292334
108.121125,76.570323,114.855485,-9418.149754
108.121753,38.285162,210.568389,-9475.577496
108.122380,153.140646,172.283227,-9456.434915
108.123007,76.570323,172.283227,-9437.292334
108.123635,76.570323,172.283227,-9456.434915
108.124262,38.285162,114.855485,-9437.292334
108.124889,133.998066,114.855485,-9437.292334
108.125517,133.998066,114.855485,-9456.434915
108.126144,133.998066,114.855485,-9437.292334
108.126771,153.140646,133.998066,-9437.292334
108.127398,153.140646,153.140646,-9418.149754
108.128026,76.570323,114.855485,-9437.292334
108.128653,38.285162,153.140646,-9456.434915
108.129280,76.570323,114.855485,-9418.149754
108.129908,95.712904,210.568389,-9418.149754
108.130535,133.998066,153.140646,-9437.292334
108.131162,57.427742,133.998066,-9360.722011
108.131790,114.855485,95.712904,-9456.434915
108.132417,133.998066,172.283227,-9475.577496
108.133044,133.998066,172.283227,-9399.007173
108.133672,95.712904,133.998066,-9360.722011
108.134299,76.570323,114.855485,-9418.149754
108.134926,133.998066,172.283227,-9399.007173
108.135553,95.712904,133.998066,-9360.722011
108.136181,133.998066,114.855485,-9418.149754
108.136808,76.570323,114.855485,-9533.005238
108.137435,76.570323,172.283227,-9418.149754
108.138063,133.998066,114.855485,-9418.149754
108.138690,133.998066,114.855485,-9418.149754
108.139317,172.283227,76.570323,-9418.149754
108.139945,133.998066,153.140646,-9437.292334
108.140572,76.570323,153.140646,-9418.149754
108.141199,76.570323,210.568389,-9418.149754
108.141826,76.570323,114.855485,-9456.434915
108.142454,76.570323,114.855485,-9418.149754
108.143081,38.285162,114.855485,-9456.434915
108.143708,76.570323,114.855485,-9418.149754
108.144336,153.140646,153.140646,-9494.720077
108.144963,153.140646,133.998066,-9456.434915
108.145590,114.855485,95.712904,-9456.434915
108.146218,38.285162,114.855485,-9437.292334
108.146845,76.570323,153.140646,-9418.149754
108.147472,114.855485,76.570323,-9418.149754
108.148100,38.285162,114.855485,-9475.577496
108.148727,114.855485,38.285162,-9399.007173
108.149354,133.998066,153.140646,-9418.149754
108.149981,114.855485,114.855485,-9379.864592
108.150609,76.570323,114.855485,-9418.149754
108.151236,38.285162,114.855485,-9418.149754
108.151863,76.570323,114.855485,-9418.149754
108.152491,76.570323,76.570323,-9399.007173
108.153118,95.712904,114.855485,-9456.434915
108.153745,133.998066,191.425808,-9418.149754
108.154373,114.855485,95.712904,-9494.720077
108.155000,95.712904,133.998066,-9360.722011
108.155627,76.570323,191.425808,-9418.149754
108.156255,153.140646,114.855485,-9437.292334
108.156882,76.570323,114.855485,-9418.149754
108.157509,76.570323,114.855485,-9418.149754
108.158136,133.998066,114.855485,-9418.149754
108.158764,153.140646,133.998066,-9456.434915
108.159391,76.570323,114.855485,-9418.149754
108.160018,57.427742,153.140646,-9418.149754
108.160646,38.285162,153.140646,-9418.149754
108.161273,95.712904,133.998066,-9360.722011
108.161900,76.570323,114.855485,-9418.149754
108.162528,133.998066,153.140646,-9360.722011
108.163155,38.285162,114.855485,-9475.577496
108.163782,76.570323,114.855485,-9418.149754
108.164409,133.998066,114.855485,-9437.292334
108.165037,210.568389,133.998066,-9437.292334
108.165664,133.998066,172.283227,-9418.149754
108.166291,76.570323,172.283227,-9437.292334
108.166919,38.285162,114.855485,-9418.149754
108.167546,114.855485,95.712904,-9399.007173
108.168173,133.998066,172.283227,-9418.149754
108.168801,76.570323,114.855485,-9456.434915
108.169428,153.140646,133.998066,-9399.007173
108.170055,95.712904,114.855485,-9418.149754
108.170683,95.712904,95.712904,-9399.007173
108.171310,38.285162,114.855485,-9456.434915
108.171937,76.570323,172.283227,-9437.292334
108.172564,38.285162,210.568389,-9418.149754
108.173192,76.570323,114.855485,-9418.149754
108.173819,76.570323,114.855485,-9437.292334
108.174446,76.570323,172.283227,-9437.292334
108.175074,76.570323,172.283227,-9475.577496
108.175701,133.998066,153.140646,-9437.292334
108.176328,133.998066,133.998066,-9456.434915
108.176956,76.570323,114.855485,-9456.434915
108.177583,133.998066,114.855485,-9418.149754
108.178210,114.855485,133.998066,-9360.722011
108.178838,95.712904,153.140646,-9418.149754
108.179465,76.570323,114.855485,-9456.434915
108.180092,133.998066,210.568389,-9456.434915
108.180719,133.998066,114.855485,-9456.434915
108.181347,76.570323,172.283227,-9418.149754
108.181974,38.285162,114.855485,-9475.577496
108.182601,133.998066,191.425808,-9399.007173
108.183229,95.712904,95.712904,-9399.007173
108.183856,133.998066,114.855485,-9456.434915
108.184483,95.712904,95.712904,-9399.007173
108.185111,38.285162,114.855485,-9418.149754
108.185738,38.285162,114.855485,-9418.149754
108.186365,153.140646,133.998066,-9399.007173
108.186992,114.855485,76.570323,-9418.149754
108.187620,133.998066,114.855485,-9437.292334
108.188247,76.570323,114.855485,-9494.720077
108.188874,95.712904,95.712904,-9399.007173
108.189502,76.570323,153.140646,-9418.149754
108.190129,153.140646,153.140646,-9399.007173
108.190756,172.283227,114.855485,-9379.864592
108.191384,153.140646,191.425808,-9494.720077
108.192011,153.140646,133.998066,-9456.434915
108.192638,133.998066,133.998066,-9399.007173
108.193266,133.998066,153.140646,-9418.149754
108.193893,76.570323,210.568389,-9418.149754
108.194520,76.570323,172.283227,-9418.149754
108.195147,172.283227,76.570323,-9437.292334
108.195775,76.570323,114.855485,-9418.149754
108.196402,133.998066,172.283227,-9456.434915
108.197029,133.998066,133.998066,-9399.007173
108.197657,57.427742,114.855485,-9418.149754
108.198284,76.570323,114.855485,-9475.577496
108.198911,133.998066,114.855485,-9418.149754
108.199539,133.998066,114.855485,-9418.149754
108.200166,76.570323,114.855485,-9418.149754
108.200793,133.998066,114.855485,-9456.434915
108.201421,95.712904,95.712904,-9399.007173
108.202048,76.570323,114.855485,-9418.149754
108.202675,133.998066,114.855485,-9418.149754
108.203302,114.855485,95.712904,-9437.292334
108.203930,133.998066,172.283227,-9456.434915
108.204557,76.570323,114.855485,-9418.149754
108.205184,38.285162,114.855485,-9418.149754
108.205812,38.285162,172.283227,-9418.149754
108.206439,76.570323,172.283227,-9360.722011
108.207066,133.998066,133.998066,-9399.007173
108.207694,95.712904,95.712904,-9399.007173
108.208321,114.855485,133.998066,-9533.005238
108.208948,76.570323,172.283227,-9456.434915
108.209575,38.285162,114.855485,-9456.434915
108.210203,133.998066,114.855485,-9437.292334
108.210830,133.998066,172.283227,-9418.149754
108.211457,133.998066,153.140646,-9437.292334
108.212085,114.855485,114.855485,-9475.577496
108.212712,76.570323,153.140646,-9437.292334
108.213339,133.998066,114.855485,-9418.149754
108.213967,133.998066,114.855485,-9418.149754
108.214594,76.570323,114.855485,-9437.292334
108.215221,76.570323,114.855485,-9456.434915
108.215849,95.712904,153.140646,-9475.577496
108.216476,76.570323,114.855485,-9418.149754
108.217103,133.998066,172.283227,-9456.434915
108.217730,133.998066,114.855485,-9437.292334
108.218358,114.855485,95.712904,-9456.434915
108.218986,38.285162,114.855485,-9418.149754
108.219613,0.000000,172.283227,-9360.722011
108.220241,38.285162,114.855485,-9418.149754
108.220869,95.712904,172.283227,-9418.149754
108.221496,76.570323,114.855485,-9418.149754
108.222124,114.855485,133.998066,-9360.722011
108.222752,114.855485,114.855485,-9456.434915
108.223379,38.285162,153.140646,-9418.149754
108.224007,57.427742,172.283227,-9360.722011
108.224634,38.285162,114.855485,-9437.292334
108.225262,38.285162,114.855485,-9475.577496
108.225890,133.998066,172.283227,-9418.149754
108.226517,153.140646,172.283227,-9437.292334
108.227145,133.998066,114.855485,-9418.149754
108.227773,76.570323,114.855485,-9418.149754
108.228400,76.570323,114.855485,-9418.149754
108.229028,76.570323,114.855485,-9418.149754
108.229655,38.285162,229.710970,-9418.149754
108.230283,76.570323,153.140646,-9418.149754
108.230911,57.427742,114.855485,-9399.007173
108.231538,133.998066,114.855485,-9437.292334
108.232166,57.427742,95.712904,-9399.007173
108.232794,76.570323,133.998066,-9360.722011
108.233421,133.998066,114.855485,-9437.292334
108.234049,153.140646,133.998066,-9475.577496
108.234676,76.570323,153.140646,-9456.434915
108.235304,95.712904,95.712904,-9399.007173
108.235932,76.570323,114.855485,-9418.149754
108.236559,76.570323,114.855485,-9418.149754
108.237187,76.570323,133.998066,-9418.149754
108.237815,153.140646,133.998066,-9456.434915
108.238442,76.570323,114.855485,-9418.149754
108.239070,76.570323,172.283227,-9418.149754
108.239698,153.140646,153.140646,-9399.007173
108.240325,76.570323,114.855485,-9456.434915
108.240953,76.570323,114.855485,-9418.149754
108.241580,76.570323,114.855485,-9418.149754
108.242208,153.140646,153.140646,-9399.007173
108.242836,57.427742,133.998066,-9418.149754
108.243463,153.140646,133.998066,-9456.434915
108.244091,76.570323,210.568389,-9475.577496
108.244719,133.998066,114.855485,-9418.149754
108.245346,153.140646,133.998066,-9475.577496
108.245974,95.712904,114.855485,-9399.007173
108.246601,133.998066,133.998066,-9399.007173
108.247229,57.427742,95.712904,-9399.007173
108.247857,133.998066,114.855485,-9418.149754
108.248484,38.285162,153.140646,-9418.149754
108.249112,76.570323,114.855485,-9437.292334
108.249740,133.998066,114.855485,-9494.720077
108.250367,76.570323,114.855485,-9475.577496
108.250995,133.998066,114.855485,-9494.720077
108.251623,133.998066,153.140646,-9456.434915
108.252250,76.570323,153.140646,-9475.577496
108.252878,76.570323,172.283227,-9418.149754
108.253505,57.427742,114.855485,-9494.720077
108.254133,76.570323,114.855485,-9360.722011
108.254761,133.998066,114.855485,-9418.149754
108.255388,133.998066,114.855485,-9418.149754
108.256016,57.427742,114.855485,-9437.292334
108.256644,95.712904,95.712904,-9399.007173
108.257271,76.570323,172.283227,-9418.149754
108.257899,38.285162,153.140646,-9418.149754
108.258526,76.570323,172.283227,-9418.149754
108.259154,114.855485,95.712904,-9399.007173
108.259782,133.998066,114.855485,-9437.292334
108.260409,153.140646,133.998066,-9456.434915
108.261037,76.570323,210.568389,-9418.149754
108.261665,133.998066,114.855485,-9437.292334
108.262292,76.570323,114.855485,-9456.434915
108.262920,95.712904,172.283227,-9456.434915
108.263548,153.140646,133.998066,-9456.434915
108.264175,153.140646,153.140646,-9456.434915
108.264803,76.570323,172.283227,-9475.577496
108.265430,38.285162,210.568389,-9456.434915
108.266058,38.285162,229.710970,-9418.149754
108.266686,133.998066,153.140646,-9418.149754
108.267313,95.712904,133.998066,-9341.579430
108.267941,133.998066,172.283227,-9418.149754
108.268569,133.998066,153.140646,-9418.149754
108.269196,76.570323,172.283227,-9437.292334
108.269824,76.570323,210.568389,-9418.149754
108.270451,133.998066,210.568389,-9418.149754
108.271079,133.998066,114.855485,-9418.149754
108.271707,76.570323,114.855485,-9418.149754
108.272334,57.427742,133.998066,-9360.722011
108.272962,133.998066,153.140646,-9475.577496
108.273590,153.140646,133.998066,-9437.292334
108.274217,76.570323,114.855485,-9418.149754
108.274845,153.140646,133.998066,-9437.292334
108.275472,76.570323,172.283227,-9418.149754
108.276100,114.855485,133.998066,-9360.722011
108.276728,76.570323,114.855485,-9418.149754
108.277355,133.998066,114.855485,-9475.577496
108.277983,76.570323,114.855485,-9418.149754
108.278611,133.998066,114.855485,-9418.149754
108.279238,76.570323,114.855485,-9418.149754
108.279866,153.140646,153.140646,-9399.007173
108.280494,76.570323,114.855485,-9418.149754
108.281121,57.427742,114.855485,-9399.007173
108.281749,114.855485,172.283227,-9360.722011
108.282376,133.998066,114.855485,-9418.149754
108.283004,133.998066,114.855485,-9418.149754
108.283632,38.285162,114.855485,-9418.149754
108.284259,133.998066,172.283227,-9437.292334
108.284887,153.140646,133.998066,-9399.007173
108.285515,133.998066,114.855485,-9418.149754
108.286142,133.998066,114.855485,-9418.149754
108.286770,133.998066,114.855485,-9418.149754
108.287397,210.568389,153.140646,-9399.007173
108.288025,95.712904,114.855485,-9418.149754
108.288653,76.570323,114.855485,-9494.720077
108.289280,76.570323,114.855485,-9418.149754
108.289908,76.570323,191.425808,-9418.149754
108.290536,153.140646,172.283227,-9494.720077
108.291163,95.712904,114.855485,-9418.149754
108.291791,153.140646,133.998066,-9399.007173
108.292419,133.998066,95.712904,-9418.149754
108.293046,38.285162,114.855485,-9418.149754
108.293674,57.427742,114.855485,-9456.434915
108.294301,95.712904,153.140646,-9456.434915
108.294929,76.570323,114.855485,-9418.149754
108.295557,38.285162,114.855485,-9418.149754
108.296184,76.570323,172.283227,-9418.149754
108.296812,133.998066,114.855485,-9418.149754
108.297440,76.570323,114.855485,-9418.149754
108.298067,76.570323,114.855485,-9418.149754
108.298695,172.283227,114.855485,-9379.864592
108.299322,153.140646,133.998066,-9456.434915
108.299950,114.855485,133.998066,-9360.722011
108.300578,95.712904,95.712904,-9399.007173
108.301205,114.855485,114.855485,-9379.864592
108.301833,133.998066,76.570323,-9379.864592
108.302461,95.712904,114.855485,-9437.292334
108.303088,38.285162,210.568389,-9418.149754
108.303716,133.998066,114.855485,-9456.434915
108.304344,133.998066,114.855485,-9418.149754
108.304971,95.712904,172.283227,-9360.722011
108.305599,76.570323,114.855485,-9437.292334
108.306226,76.570323,172.283227,-9418.149754
108.306854,76.570323,210.568389,-9437.292334
108.307482,114.855485,172.283227,-9360.722011
108.308109,76.570323,172.283227,-9418.149754
108.308737,95.712904,114.855485,-9418.149754
108.309365,76.570323,133.998066,-9418.149754
108.309992,76.570323,172.283227,-9418.149754
108.310620,95.712904,133.998066,-9360.722011
108.311247,95.712904,114.855485,-9418.149754
108.311875,114.855485,95.712904,-9399.007173
108.312503,133.998066,172.283227,-9418.149754
108.313130,133.998066,172.283227,-9418.149754
108.313758,133.998066,114.855485,-9418.149754
108.314386,133.998066,229.710970,-9456.434915
108.315013,153.140646,172.283227,-9456.434915
108.315641,57.427742,114.855485,-9475.577496
108.316269,95.712904,172.283227,-9418.149754
108.316896,133.998066,114.855485,-9418.149754
108.317524,95.712904,57.427742,-9456.434915
108.318151,153.140646,153.140646,-9456.434915
108.318779,76.570323,172.283227,-9437.292334
108.319406,153.140646,114.855485,-9418.149754
108.320034,153.140646,153.140646,-9437.292334
108.320661,133.998066,114.855485,-9418.149754
108.321289,76.570323,114.855485,-9456.434915
108.321916,76.570323,114.855485,-9418.149754
108.322543,76.570323,114.855485,-9418.149754
108.323171,153.140646,133.998066,-9399.007173
108.323798,114.855485,114.855485,-9399.007173
108.324426,133.998066,114.855485,-9418.149754
108.325053,76.570323,114.855485,-9418.149754
108.325681,133.998066,133.998066,-9399.007173
108.326308,38.285162,114.855485,-9456.434915
108.326936,133.998066,153.140646,-9418.149754
108.327563,95.712904,95.712904,-9399.007173
108.328190,76.570323,95.712904,-9399.007173
108.328818,76.570323,172.283227,-9418.149754
108.329445,133.998066,114.855485,-9418.149754
108.330073,76.570323,172.283227,-9418.149754
108.330700,76.570323,114.855485,-9418.149754
108.331328,172.283227,114.855485,-9379.864592
108.331955,38.285162,172.283227,-9418.149754
108.332582,76.570323,153.140646,-9456.434915
108.333210,57.427742,95.712904,-9399.007173
108.333837,76.570323,114.855485,-9418.149754
108.334465,76.570323,172.283227,-9418.149754
108.335092,133.998066,114.855485,-9418.149754
108.335720,133.998066,114.855485,-9418.149754
108.336347,114.855485,133.998066,-9360.722011
108.336975,95.712904,95.712904,-9456.434915
108.337602,153.140646,172.283227,-9456.434915
108.338229,95.712904,95.712904,-9399.007173
108.338857,133.998066,172.283227,-9418.149754
108.339484,133.998066,172.283227,-9418.149754
108.340112,133.998066,153.140646,-9418.149754
108.340739,133.998066,210.568389,-9418.149754
108.341367,153.140646,248.853550,-9399.007173
108.341994,95.712904,95.712904,-9399.007173
108.342622,133.998066,114.855485,-9418.149754
108.343249,76.570323,114.855485,-9418.149754
108.343876,38.285162,172.283227,-9360.722011
108.344504,95.712904,191.425808,-9418.149754
108.345131,133.998066,133.998066,-9399.007173
108.345759,95.712904,95.712904,-9437.292334
108.346386,95.712904,153.140646,-9418.149754
108.347014,95.712904,153.140646,-9360.722011
108.347641,76.570323,114.855485,-9418.149754
108.348268,153.140646,153.140646,-9456.434915
108.348896,191.425808,76.570323,-9437.292334
108.349523,133.998066,153.140646,-9418.149754
108.350151,114.855485,133.998066,-9360.722011
108.350778,76.570323,114.855485,-9437.292334
108.351406,76.570323,172.283227,-9418.149754
108.352033,95.712904,153.140646,-9418.149754
108.352661,133.998066,114.855485,-9437.292334
108.353288,114.855485,95.712904,-9437.292334
108.353915,153.140646,153.140646,-9399.007173
108.354543,153.140646,153.140646,-9456.434915
108.355170,114.855485,172.283227,-9360.722011
108.355798,133.998066,114.855485,-9437.292334
108.356425,95.712904,114.855485,-9456.434915
108.357053,153.140646,153.140646,-9437.292334
108.357680,76.570323,114.855485,-9418.149754
108.358307,95.712904,133.998066,-9360.722011
108.358935,133.998066,133.998066,-9399.007173
108.359562,76.570323,153.140646,-9418.149754
108.360190,38.285162,191.425808,-9418.149754
108.360817,133.998066,114.855485,-9437.292334
108.361445,114.855485,114.855485,-9456.434915
108.362072,133.998066,172.283227,-9456.434915
108.362700,38.285162,114.855485,-9418.149754
108.363327,114.855485,133.998066,-9418.149754
108.363954,76.570323,172.283227,-9456.434915
108.364582,38.285162,114.855485,-9418.149754
108.365209,38.285162,114.855485,-9418.149754
108.365837,19.142581,114.855485,-9418.149754
108.366464,76.570323,114.855485,-9456.434915
108.367092,76.570323,172.283227,-9418.149754
108.367719,133.998066,114.855485,-9418.149754
108.368346,114.855485,95.712904,-9456.434915
108.368974,114.855485,172.283227,-9360.722011
108.369601,133.998066,114.855485,-9418.149754
108.370229,133.998066,133.998066,-9379.864592
108.370856,153.140646,133.998066,-9437.292334
108.371484,95.712904,133.998066,-9360.722011
108.372111,76.570323,153.140646,-9418.149754
108.372739,114.855485,95.712904,-9399.007173
108.373366,133.998066,114.855485,-9418.149754
108.373993,76.570323,114.855485,-9418.149754
108.374621,114.855485,95.712904,-9456.434915
108.375248,95.712904,95.712904,-9399.007173
108.375876,57.427742,95.712904,-9399.007173
108.376503,133.998066,114.855485,-9437.292334
108.377131,95.712904,95.712904,-9437.292334
108.377758,76.570323,114.855485,-9456.434915
108.378386,133.998066,153.140646,-9418.149754
108.379013,133.998066,153.140646,-9437.292334
108.379640,114.855485,172.283227,-9399.007173
108.380268,95.712904,114.855485,-9418.149754
108.380895,76.570323,114.855485,-9456.434915
108.381523,76.570323,114.855485,-9437.292334
108.382150,76.570323,172.283227,-9456.434915
108.382778,76.570323,114.855485,-9418.149754
108.383405,38.285162,114.855485,-9418.149754
108.384032,114.855485,114.855485,-9399.007173
108.384660,76.570323,172.283227,-9456.434915
108.385287,133.998066,153.140646,-9418.149754
108.385915,38.285162,114.855485,-9456.434915
108.386542,133.998066,114.855485,-9418.149754
108.387170,76.570323,153.140646,-9418.149754
108.387797,76.570323,172.283227,-9418.149754
108.388425,133.998066,114.855485,-9418.149754
108.389052,114.855485,95.712904,-9399.007173
108.389679,76.570323,114.855485,-9437.292334
108.390307,95.712904,95.712904,-9437.292334
108.390934,76.570323,114.855485,-9437.292334
108.391562,95.712904,95.712904,-9399.007173
108.392189,114.855485,153.140646,-9360.722011
108.392817,76.570323,153.140646,-9418.149754
108.393444,76.570323,95.712904,-9437.292334
108.394071,133.998066,114.855485,-9418.149754
108.394699,76.570323,114.855485,-9418.149754
108.395326,133.998066,172.283227,-9456.434915
108.395954,76.570323,153.140646,-9437.292334
108.396581,153.140646,153.140646,-9456.434915
108.397209,76.570323,114.855485,-9494.720077
108.397836,133.998066,114.855485,-9475.577496
108.398464,153.140646,153.140646,-9399.007173
108.399091,38.285162,153.140646,-9437.292334
108.399718,76.570323,114.855485,-9418.149754
108.400346,114.855485,172.283227,-9360.722011
108.400973,133.998066,114.855485,-9494.720077
108.401601,133.998066,172.283227,-9418.149754
108.402228,95.712904,172.283227,-9418.149754
108.402856,133.998066,114.855485,-9418.149754
108.403483,114.855485,114.855485,-9418.149754
108.404111,95.712904,95.712904,-9437.292334
108.404738,38.285162,153.140646,-9437.292334
108.405365,38.285162,172.283227,-9418.149754
108.405993,38.285162,172.283227,-9437.292334
108.406620,76.570323,114.855485,-9418.149754
108.407248,133.998066,153.140646,-9437.292334
108.407875,133.998066,210.568389,-9418.149754
108.408503,76.570323,114.855485,-9418.149754
108.409130,38.285162,95.712904,-9379.864592
108.409757,76.570323,210.568389,-9418.149754
108.410385,133.998066,114.855485,-9418.149754
108.411012,172.283227,210.568389,-9399.007173
108.411640,114.855485,133.998066,-9360.722011
108.412267,76.570323,114.855485,-9418.149754
108.412895,133.998066,153.140646,-9418.149754
108.413522,114.855485,114.855485,-9379.864592
108.414150,76.570323,153.140646,-9456.434915
108.414777,133.998066,153.140646,-9418.149754
108.415404,133.998066,172.283227,-9456.434915
108.416032,133.998066,172.283227,-9513.862658
108.416659,76.570323,114.855485,-9437.292334
108.417287,133.998066,133.998066,-9494.720077
108.417914,76.570323,114.855485,-9456.434915
108.418542,38.285162,114.855485,-9418.149754
108.419169,76.570323,95.712904,-9456.434915
108.419797,76.570323,210.568389,-9437.292334
108.420424,76.570323,172.283227,-9456.434915
108.421052,76.570323,114.855485,-9475.577496
108.421679,38.285162,114.855485,-9418.149754
108.422307,76.570323,153.140646,-9418.149754
108.422934,76.570323,114.855485,-9418.149754
108.423562,153.140646,133.998066,-9456.434915
108.424189,133.998066,210.568389,-9360.722011
108.424817,38.285162,210.568389,-9418.149754
108.425444,57.427742,133.998066,-9360.722011
108.426072,133.998066,172.283227,-9418.149754
108.426699,133.998066,114.855485,-9418.149754
108.427327,133.998066,114.855485,-9456.434915
108.427954,133.998066,133.998066,-9399.007173
108.428582,95.712904,153.140646,-9418.149754
108.429209,133.998066,114.855485,-9475.577496
108.429836,76.570323,172.283227,-9533.005238
108.430464,133.998066,114.855485,-9456.434915
108.431091,76.570323,172.283227,-9418.149754
108.431719,133.998066,172.283227,-9456.434915
108.432346,114.855485,76.570323,-9418.149754
108.432974,133.998066,114.855485,-9418.149754
108.433601,95.712904,95.712904,-9437.292334
108.434229,38.285162,114.855485,-9475.577496
108.434856,38.285162,114.855485,-9418.149754
108.435484,133.998066,114.855485,-9437.292334
108.436111,76.570323,172.283227,-9456.434915
108.436739,38.285162,172.283227,-9418.149754
108.437366,95.712904,95.712904,-9399.007173
108.437994,38.285162,114.855485,-9437.292334
108.438621,133.998066,114.855485,-9418.149754
108.439249,76.570323,153.140646,-9418.149754
108.439876,133.998066,114.855485,-9418.149754
108.440504,38.285162,95.712904,-9418.149754
108.441131,76.570323,114.855485,-9475.577496
108.441759,38.285162,114.855485,-9418.149754
108.442386,114.855485,95.712904,-9513.862658
108.443014,114.855485,172.283227,-9475.577496
108.443641,133.998066,133.998066,-9456.434915
108.444269,133.998066,114.855485,-9456.434915
108.444896,38.285162,114.855485,-9418.149754
108.445524,76.570323,114.855485,-9418.149754
108.446151,133.998066,153.140646,-9399.007173
108.446779,133.998066,114.855485,-9456.434915
108.447406,133.998066,153.140646,-9399.007173
108.448034,76.570323,114.855485,-9418.149754
108.448661,133.998066,210.568389,-9456.434915
108.449289,95.712904,133.998066,-9418.149754
108.449916,153.140646,133.998066,-9399.007173
108.450544,76.570323,114.855485,-9456.434915
108.451171,133.998066,114.855485,-9418.149754
108.451799,133.998066,114.855485,-9418.149754
108.452426,95.712904,114.855485,-9418.149754
108.453054,38.285162,114.855485,-9437.292334
108.453681,76.570323,114.855485,-9418.149754
108.454309,95.712904,172.283227,-9418.149754
108.454936,153.140646,133.998066,-9399.007173
108.455564,95.712904,114.855485,-9437.292334
108.456191,133.998066,153.140646,-9418.149754
108.456819,114.855485,114.855485,-9399.007173
108.457446,76.570323,114.855485,-9418.149754
108.458074,153.140646,133.998066,-9399.007173
108.458701,114.855485,133.998066,-9418.149754
108.459329,133.998066,153.140646,-9456.434915
108.459956,114.855485,95.712904,-9456.434915
108.460584,95.712904,133.998066,-9360.722011
108.461211,133.998066,114.855485,-9418.149754
108.461839,153.140646,248.853550,-9437.292334
108.462466,76.570323,114.855485,-9456.434915
108.463094,38.285162,114.855485,-9437.292334
108.463721,133.998066,210.568389,-9456.434915
108.464349,114.855485,133.998066,-9418.149754
108.464976,153.140646,172.283227,-9418.149754
108.465604,95.712904,133.998066,-9418.149754
108.466231,76.570323,114.855485,-9418.149754
108.466859,133.998066,172.283227,-9418.149754
108.467486,95.712904,95.712904,-9456.434915
108.468114,57.427742,95.712904,-9456.434915
108.468741,95.712904,153.140646,-9437.292334
108.469369,133.998066,172.283227,-9475.577496
108.469996,133.998066,114.855485,-9437.292334
108.470624,95.712904,95.712904,-9437.292334
108.471251,114.855485,76.570323,-9456.434915
108.471879,133.998066,114.855485,-9418.149754
108.472506,38.285162,114.855485,-9533.005238
108.473134,95.712904,153.140646,-9475.577496
108.473761,76.570323,210.568389,-9533.005238
108.474389,133.998066,114.855485,-9456.434915
108.475016,95.712904,95.712904,-9494.720077
108.475644,95.712904,114.855485,-9475.577496
108.476271,76.570323,172.283227,-9418.149754
108.476899,153.140646,114.855485,-9437.292334
108.477526,153.140646,133.998066,-9399.007173
108.478154,76.570323,114.855485,-9418.149754
108.478781,76.570323,114.855485,-9418.149754
108.479409,133.998066,153.140646,-9418.149754
108.480036,95.712904,114.855485,-9418.149754
108.480664,76.570323,114.855485,-9418.149754
108.481291,76.570323,114.855485,-9418.149754
108.481919,76.570323,210.568389,-9437.292334
108.482546,114.855485,210.568389,-9418.149754
108.483174,133.998066,114.855485,-9418.149754
108.483801,76.570323,153.140646,-9418.149754
108.484429,76.570323,114.855485,-9418.149754
108.485056,38.285162,114.855485,-9437.292334
108.485684,133.998066,172.283227,-9437.292334
108.486311,133.998066,133.998066,-9456.434915
108.486938,95.712904,95.712904,-9399.007173
108.487566,76.570323,114.855485,-9418.149754
108.488193,76.570323,114.855485,-9437.292334
108.488821,95.712904,95.712904,-9399.007173
108.489448,133.998066,114.855485,-9437.292334
108.490076,76.570323,114.855485,-9437.292334
108.490703,38.285162,114.855485,-9418.149754
108.491331,133.998066,172.283227,-9418.149754
108.491958,76.570323,210.568389,-9456.434915
108.492586,153.140646,172.283227,-9437.292334
108.493213,76.570323,114.855485,-9418.149754
108.493841,133.998066,153.140646,-9418.149754
108.494468,95.712904,114.855485,-9418.149754
108.495096,133.998066,153.140646,-9437.292334
108.495723,38.285162,114.855485,-9437.292334
108.496351,114.855485,76.570323,-9437.292334
108.496978,95.712904,114.855485,-9418.149754
108.497606,133.998066,133.998066,-9399.007173
108.498233,95.712904,114.855485,-9399.007173
108.498861,133.998066,114.855485,-9418.149754
108.499488,172.283227,95.712904,-9399.007173
108.500116,76.570323,114.855485,-9456.434915
108.500743,76.570323,210.568389,-9437.292334
108.501371,133.998066,114.855485,-9437.292334
108.501998,76.570323,210.568389,-9475.577496
108.502626,76.570323,114.855485,-9437.292334
108.503253,133.998066,114.855485,-9456.434915
108.503881,95.712904,133.998066,-9360.722011
108.504508,133.998066,114.855485,-9475.577496
108.505136,95.712904,114.855485,-9456.434915
108.505763,133.998066,229.710970,-9456.434915
108.506391,76.570323,172.283227,-9418.149754
108.507018,133.998066,114.855485,-9418.149754
108.507646,153.140646,172.283227,-9399.007173
108.508273,172.283227,114.855485,-9379.864592
108.508901,153.140646,133.998066,-9379.864592
108.509528,76.570323,114.855485,-9418.149754
108.510156,76.570323,191.425808,-9437.292334
108.510783,76.570323,114.855485,-9475.577496
108.511411,76.570323,114.855485,-9418.149754
108.512038,76.570323,114.855485,-9437.292334
108.512666,114.855485,133.998066,-9360.722011
108.513293,133.998066,114.855485,-9437.292334
108.513921,172.283227,76.570323,-9418.149754
108.514548,114.855485,95.712904,-9456.434915
108.515176,95.712904,133.998066,-9418.149754
108.515803,57.427742,172.283227,-9418.149754
108.516431,76.570323,114.855485,-9437.292334
108.517058,76.570323,114.855485,-9456.434915
108.517686,57.427742,172.283227,-9418.149754
108.518313,76.570323,114.855485,-9418.149754
108.518941,95.712904,114.855485,-9437.292334
108.519568,76.570323,76.570323,-9399.007173
108.520196,38.285162,114.855485,-9418.149754
108.520823,133.998066,114.855485,-9437.292334
108.521451,76.570323,114.855485,-9533.005238
108.522078,38.285162,191.425808,-9360.722011
108.522706,57.427742,114.855485,-9418.149754
108.523333,95.712904,133.998066,-9360.722011
108.523961,114.855485,95.712904,-9494.720077
108.524588,76.570323,114.855485,-9456.434915
108.525215,153.140646,172.283227,-9437.292334
108.525843,133.998066,114.855485,-9456.434915
108.526470,133.998066,133.998066,-9399.007173
108.527097,76.570323,114.855485,-9437.292334
108.527724,133.998066,172.283227,-9418.149754
108.528352,133.998066,191.425808,-9418.149754
108.528979,133.998066,114.855485,-9418.149754
108.529606,95.712904,114.855485,-9418.149754
108.530234,76.570323,114.855485,-9475.577496
108.530861,76.570323,172.283227,-9418.149754
108.531488,76.570323,114.855485,-9475.577496
108.532115,76.570323,114.855485,-9456.434915
108.532743,133.998066,114.855485,-9418.149754
108.533370,38.285162,114.855485,-9418.149754
108.533997,114.855485,95.712904,-9399.007173
108.534625,133.998066,114.855485,-9437.292334
108.535252,38.285162,153.140646,-9418.149754
108.535879,76.570323,114.855485,-9418.149754
108.536507,76.570323,114.855485,-9418.149754
108.537134,76.570323,114.855485,-9418.149754
108.537761,76.570323,114.855485,-9418.149754
108.538388,114.855485,76.570323,-9418.149754
108.539016,76.570323,114.855485,-9418.149754
108.539643,114.855485,133.998066,-9360.722011
108.540270,38.285162,114.855485,-9418.149754
108.540898,133.998066,172.283227,-9475.577496
108.541525,76.570323,172.283227,-9456.434915
108.542152,172.283227,172.283227,-9437.292334
108.542780,153.140646,153.140646,-9399.007173
108.543407,38.285162,114.855485,-9418.149754
108.544034,133.998066,114.855485,-9418.149754
108.544661,153.140646,114.855485,-9399.007173
108.545289,153.140646,153.140646,-9399.007173
108.545916,133.998066,153.140646,-9418.149754
108.546543,133.998066,133.998066,-9399.007173
108.547171,133.998066,114.855485,-9418.149754
108.547798,95.712904,95.712904,-9399.007173
108.548425,76.570323,172.283227,-9418.149754
108.549052,76.570323,114.855485,-9418.149754
108.549680,133.998066,114.855485,-9418.149754
108.550307,114.855485,133.998066,-9475.577496
108.550934,76.570323,153.140646,-9418.149754
108.551562,95.712904,95.712904,-9399.007173
108.552189,76.570323,114.855485,-9437.292334
108.552816,114.855485,95.712904,-9456.434915
108.553444,114.855485,133.998066,-9360.722011
108.554071,153.140646,133.998066,-9456.434915
108.554698,133.998066,114.855485,-9456.434915
108.555325,172.283227,76.570323,-9418.149754
108.555953,38.285162,114.855485,-9437.292334
108.556580,38.285162,229.710970,-9418.149754
108.557207,114.855485,172.283227,-9360.722011
108.557835,76.570323,114.855485,-9475.577496
108.558462,153.140646,133.998066,-9475.577496
108.559089,38.285162,153.140646,-9418.149754
108.559716,172.283227,153.140646,-9418.149754
108.560344,76.570323,114.855485,-9437.292334
108.560971,114.855485,114.855485,-9494.720077
108.561598,38.285162,114.855485,-9456.434915
108.562226,76.570323,172.283227,-9437.292334
108.562853,76.570323,114.855485,-9418.149754
108.563480,38.285162,153.140646,-9418.149754
108.564108,133.998066,153.140646,-9418.149754
108.564735,133.998066,172.283227,-9475.577496
108.565362,133.998066,133.998066,-9456.434915
108.565989,76.570323,114.855485,-9418.149754
108.566617,133.998066,114.855485,-9418.149754
108.567244,76.570323,114.855485,-9418.149754
108.567871,133.998066,210.568389,-9418.149754
108.568499,133.998066,153.140646,-9456.434915
108.569126,76.570323,153.140646,-9456.434915
108.569753,153.140646,153.140646,-9418.149754
108.570380,153.140646,133.998066,-9456.434915
108.571008,76.570323,153.140646,-9456.434915
108.571635,133.998066,172.283227,-9494.720077
108.572262,114.855485,95.712904,-9456.434915
108.572890,133.998066,114.855485,-9418.149754
108.573517,76.570323,114.855485,-9418.149754
108.574144,38.285162,114.855485,-9437.292334
108.574772,76.570323,114.855485,-9456.434915
108.575399,76.570323,114.855485,-9437.292334
108.576026,76.570323,114.855485,-9456.434915
108.576653,114.855485,95.712904,-9437.292334
108.577281,133.998066,172.283227,-9399.007173
108.577908,76.570323,114.855485,-9418.149754
108.578535,153.140646,133.998066,-9399.007173
108.579163,133.998066,191.425808,-9399.007173
108.579790,133.998066,114.855485,-9418.149754
108.580417,95.712904,210.568389,-9475.577496
108.581044,133.998066,210.568389,-9456.434915
108.581672,133.998066,114.855485,-9418.149754
108.582299,172.283227,95.712904,-9399.007173
108.582926,153.140646,133.998066,-9399.007173
108.583554,76.570323,153.140646,-9418.149754
108.584181,76.570323,172.283227,-9418.149754
108.584808,153.140646,133.998066,-9437.292334
108.585436,95.712904,95.712904,-9399.007173
108.586063,76.570323,114.855485,-9456.434915
108.586690,114.855485,95.712904,-9437.292334
108.587317,133.998066,114.855485,-9456.434915
108.587945,95.712904,114.855485,-9418.149754
108.588572,133.998066,153.140646,-9456.434915
108.589199,133.998066,114.855485,-9418.149754
108.589827,172.283227,76.570323,-9437.292334
108.590454,38.285162,114.855485,-9456.434915
108.591081,133.998066,114.855485,-9437.292334
108.591708,133.998066,114.855485,-9456.434915
108.592336,153.140646,153.140646,-9399.007173
108.592963,38.285162,114.855485,-9456.434915
108.593590,38.285162,114.855485,-9456.434915
108.594218,95.712904,114.855485,-9437.292334
108.594845,76.570323,210.568389,-9418.149754
108.595472,153.140646,153.140646,-9399.007173
108.596100,76.570323,172.283227,-9418.149754
108.596727,38.285162,114.855485,-9418.149754
108.597354,133.998066,172.283227,-9456.434915
108.597981,76.570323,114.855485,-9475.577496
108.598609,76.570323,153.140646,-9418.149754
108.599236,133.998066,172.283227,-9418.149754
108.599863,76.570323,114.855485,-9437.292334
108.600491,76.570323,114.855485,-9437.292334
108.601118,76.570323,114.855485,-9475.577496
108.601745,76.570323,95.712904,-9399.007173
108.602372,153.140646,172.283227,-9456.434915
108.603000,172.283227,172.283227,-9379.864592
108.603627,133.998066,114.855485,-9418.149754
108.604254,95.712904,114.855485,-9418.149754
108.604882,95.712904,133.998066,-9341.579430
108.605509,95.712904,114.855485,-9418.149754
108.606136,57.427742,95.712904,-9456.434915
108.606764,153.140646,172.283227,-9399.007173
108.607391,95.712904,153.140646,-9418.149754
108.608018,57.427742,172.283227,-9360.722011
108.608645,95.712904,114.855485,-9418.149754
108.609273,76.570323,114.855485,-9418.149754
108.609900,76.570323,114.855485,-9418.149754
108.610527,133.998066,114.855485,-9418.149754
108.611155,76.570323,114.855485,-9418.149754
108.611782,133.998066,133.998066,-9399.007173
108.612409,133.998066,114.855485,-9456.434915
108.613036,114.855485,95.712904,-9456.434915
108.613664,133.998066,114.855485,-9418.149754
108.614291,114.855485,95.712904,-9399.007173
108.614918,76.570323,114.855485,-9418.149754
108.615546,38.285162,172.283227,-9437.292334
108.616173,38.285162,114.855485,-9456.434915
108.616800,76.570323,114.855485,-9418.149754
108.617428,133.998066,114.855485,-9418.149754
108.618055,76.570323,95.712904,-9437.292334
108.618682,95.712904,95.712904,-9399.007173
108.619309,114.855485,133.998066,-9360.722011
108.619937,133.998066,114.855485,-9418.149754
108.620565,133.998066,114.855485,-9437.292334
108.621192,133.998066,172.283227,-9418.149754
108.621820,76.570323,153.140646,-9418.149754
108.622448,133.998066,133.998066,-9456.434915
108.623075,76.570323,114.855485,-9418.149754
108.623703,172.283227,133.998066,-9494.720077
108.624331,76.570323,172.283227,-9418.149754
108.624958,76.570323,172.283227,-9418.149754
108.625586,76.570323,172.283227,-9418.149754
108.626214,153.140646,133.998066,-9399.007173
108.626841,133.998066,153.140646,-9437.292334
108.627469,172.283227,172.283227,-9379.864592
108.628096,133.998066,133.998066,-9399.007173
108.628724,133.998066,153.140646,-9418.149754
108.629352,133.998066,114.855485,-9418.149754
108.629979,114.855485,95.712904,-9399.007173
108.630607,133.998066,114.855485,-9418.149754
108.631235,133.998066,191.425808,-9456.434915
108.631862,153.140646,248.853550,-9456.434915
108.632490,153.140646,133.998066,-9456.434915
108.633118,57.427742,114.855485,-9418.149754
108.633745,133.998066,114.855485,-9418.149754
108.634373,38.285162,153.140646,-9456.434915
108.635001,76.570323,114.855485,-9456.434915
108.635628,114.855485,95.712904,-9399.007173
108.636256,76.570323,153.140646,-9418.149754
108.636883,76.570323,114.855485,-9456.434915
108.637511,76.570323,210.568389,-9418.149754
108.638139,76.570323,114.855485,-9456.434915
108.638766,133.998066,172.283227,-9399.007173
108.639394,76.570323,153.140646,-9437.292334
108.640022,133.998066,153.140646,-9475.577496
108.640649,95.712904,133.998066,-9360.722011
108.641277,76.570323,76.570323,-9379.864592
108.641905,95.712904,95.712904,-9399.007173
108.642532,153.140646,172.283227,-9399.007173
108.643160,133.998066,114.855485,-9437.292334
108.643788,133.998066,114.855485,-9418.149754
108.644415,38.285162,172.283227,-9437.292334
108.645043,114.855485,133.998066,-9360.722011
108.645670,38.285162,172.283227,-9418.149754
108.646298,38.285162,172.283227,-9456.434915
108.646926,38.285162,153.140646,-9418.149754
108.647553,133.998066,114.855485,-9533.005238
108.648181,76.570323,172.283227,-9456.434915
108.648809,133.998066,172.283227,-9418.149754
108.649436,76.570323,114.855485,-9437.292334
108.650064,133.998066,114.855485,-9418.149754
108.650692,114.855485,114.855485,-9418.149754
108.651319,38.285162,172.283227,-9418.149754
108.651947,133.998066,153.140646,-9456.434915
108.652575,38.285162,114.855485,-9418.149754
108.653202,76.570323,114.855485,-9456.434915
108.653830,19.142581,153.140646,-9494.720077
108.654457,76.570323,114.855485,-9418.149754
108.655085,76.570323,114.855485,-9418.149754
108.655713,172.283227,76.570323,-9418.149754
108.656340,76.570323,95.712904,-9456.434915
108.656968,133.998066,172.283227,-9418.149754
108.657596,76.570323,95.712904,-9494.720077
108.658223,76.570323,114.855485,-9437.292334
108.658851,38.285162,114.855485,-9418.149754
108.659479,95.712904,114.855485,-9437.292334
108.660106,133.998066,114.855485,-9437.292334
108.660734,76.570323,114.855485,-9475.577496
108.661362,38.285162,114.855485,-9475.577496
108.661989,95.712904,95.712904,-9475.577496
108.662617,133.998066,172.283227,-9456.434915
108.663244,133.998066,114.855485,-9418.149754
108.663872,57.427742,114.855485,-9399.007173
108.664500,114.855485,95.712904,-9399.007173
108.665127,133.998066,153.140646,-9399.007173
108.665755,133.998066,153.140646,-9399.007173
108.666383,95.712904,114.855485,-9437.292334
108.667010,38.285162,114.855485,-9533.005238
108.667638,38.285162,114.855485,-9418.149754
108.668266,38.285162,114.855485,-9418.149754
108.668893,76.570323,133.998066,-9284.151688
108.669521,133.998066,114.855485,-9418.149754
108.670149,76.570323,114.855485,-9418.149754
108.670776,76.570323,114.855485,-9418.149754
108.671404,76.570323,153.140646,-9360.722011
108.672031,76.570323,95.712904,-9437.292334
108.672659,133.998066,153.140646,-9418.149754
108.673287,133.998066,114.855485,-9437.292334
108.673914,114.855485,95.712904,-9399.007173
108.674542,114.855485,95.712904,-9399.007173
108.675170,76.570323,114.855485,-9437.292334
108.675797,133.998066,114.855485,-9494.720077
108.676425,76.570323,172.283227,-9456.434915
108.677053,76.570323,153.140646,-9418.149754
108.677680,76.570323,153.140646,-9418.149754
108.678308,76.570323,172.283227,-9418.149754
108.678936,76.570323,114.855485,-9418.149754
108.679563,133.998066,114.855485,-9418.149754
108.680191,114.855485,114.855485,-9399.007173
108.680818,133.998066,153.140646,-9437.292334
108.681446,133.998066,172.283227,-9533.005238
108.682074,95.712904,114.855485,-9456.434915
108.682701,76.570323,114.855485,-9418.149754
108.683329,133.998066,114.855485,-9418.149754
108.683957,133.998066,153.140646,-9494.720077
108.684584,95.712904,172.283227,-9418.149754
108.685212,133.998066,229.710970,-9360.722011
108.685840,133.998066,114.855485,-9418.149754
108.686467,76.570323,210.568389,-9418.149754
108.687095,133.998066,114.855485,-9475.577496
108.687723,114.855485,95.712904,-9456.434915
108.688350,76.570323,153.140646,-9418.149754
108.688978,133.998066,172.283227,-9418.149754
108.689605,133.998066,133.998066,-9456.434915
108.690233,133.998066,172.283227,-9418.149754
108.690861,38.285162,191.425808,-9418.149754
108.691488,133.998066,153.140646,-9437.292334
108.692116,133.998066,114.855485,-9456.434915
108.692744,57.427742,95.712904,-9494.720077
108.693371,76.570323,114.855485,-9456.434915
108.693999,133.998066,114.855485,-9437.292334
108.694627,133.998066,172.283227,-9533.005238
108.695254,76.570323,114.855485,-9437.292334
108.695882,133.998066,114.855485,-9418.149754
108.696510,153.140646,133.998066,-9456.434915
108.697137,133.998066,114.855485,-9456.434915
108.697765,153.140646,133.998066,-9399.007173
108.698392,76.570323,114.855485,-9418.149754
108.699020,172.283227,76.570323,-9418.149754
108.699648,133.998066,153.140646,-9418.149754
108.700275,76.570323,114.855485,-9437.292334
108.700903,153.140646,153.140646,-9399.007173
108.701531,76.570323,153.140646,-9418.149754
108.702158,76.570323,114.855485,-9418.149754
108.702786,172.283227,76.570323,-9437.292334
108.703414,153.140646,191.425808,-9399.007173
108.704041,133.998066,114.855485,-9418.149754
108.704669,153.140646,153.140646,-9399.007173
108.705297,133.998066,172.283227,-9456.434915
108.705924,133.998066,172.283227,-9418.149754
108.706552,133.998066,114.855485,-9494.720077
108.707179,153.140646,172.283227,-9456.434915
108.707807,153.140646,133.998066,-9399.007173
108.708435,133.998066,172.283227,-9456.434915
108.709062,76.570323,172.283227,-9418.149754
108.709690,95.712904,133.998066,-9360.722011
108.710318,38.285162,114.855485,-9437.292334
108.710945,133.998066,114.855485,-9437.292334
108.711573,76.570323,114.855485,-9475.577496
108.712201,133.998066,229.710970,-9418.149754
108.712828,133.998066,114.855485,-9418.149754
108.713456,133.998066,114.855485,-9418.149754
108.714084,153.140646,191.425808,-9399.007173
108.714711,95.712904,153.140646,-9418.149754
108.715339,95.712904,114.855485,-9418.149754
108.715967,76.570323,114.855485,-9418.149754
108.716594,38.285162,153.140646,-9418.149754
108.717222,153.140646,133.998066,-9437.292334
108.717849,114.855485,95.712904,-9437.292334
108.718477,172.283227,76.570323,-9418.149754
108.719105,76.570323,114.855485,-9418.149754
108.719732,133.998066,153.140646,-9418.149754
108.720360,133.998066,114.855485,-9418.149754
108.720987,133.998066,114.855485,-9418.149754
108.721615,191.425808,153.140646,-9379.864592
108.722243,133.998066,153.140646,-9418.149754
108.722870,153.140646,114.855485,-9418.149754
108.723498,133.998066,114.855485,-9418.149754
108.724125,153.140646,133.998066,-9494.720077
108.724753,76.570323,114.855485,-9437.292334
108.725380,133.998066,210.568389,-9475.577496
108.726008,114.855485,172.283227,-9533.005238
108.726635,133.998066,114.855485,-9418.149754
108.727263,95.712904,153.140646,-9494.720077
108.727890,133.998066,172.283227,-9418.149754
108.728518,114.855485,76.570323,-9418.149754
108.729146,76.570323,172.283227,-9418.149754
108.729773,38.285162,114.855485,-9456.434915
108.730401,133.998066,172.283227,-9456.434915
108.731028,76.570323,114.855485,-9418.149754
108.731656,133.998066,153.140646,-9418.149754
108.732283,76.570323,210.568389,-9418.149754
108.732911,95.712904,172.283227,-9418.149754
108.733538,76.570323,114.855485,-9418.149754
108.734166,133.998066,133.998066,-9456.434915
108.734794,153.140646,210.568389,-9494.720077
108.735421,210.568389,153.140646,-9399.007173
108.736049,133.998066,172.283227,-9418.149754
108.736676,76.570323,76.570323,-9379.864592
108.737304,133.998066,133.998066,-9399.007173
108.737931,76.570323,153.140646,-9475.577496
108.738559,153.140646,172.283227,-9456.434915
108.739186,114.855485,133.998066,-9360.722011
108.739814,133.998066,114.855485,-9456.434915
108.740441,153.140646,114.855485,-9418.149754
108.741069,153.140646,172.283227,-9399.007173
108.741697,133.998066,114.855485,-9418.149754
108.742324,153.140646,229.710970,-9418.149754
108.742952,95.712904,114.855485,-9437.292334
108.743579,76.570323,172.283227,-9418.149754
108.744207,133.998066,114.855485,-9418.149754
108.744834,133.998066,172.283227,-9418.149754
108.745462,76.570323,114.855485,-9418.149754
108.746089,76.570323,114.855485,-9418.149754
108.746717,114.855485,95.712904,-9399.007173
108.747344,76.570323,114.855485,-9418.149754
108.747972,95.712904,95.712904,-9399.007173
108.748600,38.285162,114.855485,-9418.149754
108.749227,133.998066,172.283227,-9418.149754
108.749855,133.998066,153.140646,-9418.149754
108.750482,76.570323,114.855485,-9437.292334
108.751110,76.570323,114.855485,-9494.720077
108.751737,57.427742,114.855485,-9399.007173
108.752365,76.570323,153.140646,-9456.434915
108.752992,76.570323,114.855485,-9418.149754
108.753620,38.285162,114.855485,-9456.434915
108.754248,76.570323,153.140646,-9552.147819
108.754875,76.570323,210.568389,-9418.149754
108.755503,133.998066,153.140646,-9418.149754
108.756130,76.570323,210.568389,-9456.434915
108.756758,114.855485,172.283227,-9418.149754
108.757385,133.998066,210.568389,-9437.292334
108.758013,76.570323,114.855485,-9456.434915
108.758640,76.570323,95.712904,-9399.007173
108.759268,76.570323,172.283227,-9418.149754
108.759895,95.712904,95.712904,-9399.007173
108.760523,95.712904,95.712904,-9437.292334
108.761151,76.570323,172.283227,-9418.149754
108.761778,95.712904,95.712904,-9456.434915
108.762406,38.285162,153.140646,-9418.149754
108.763033,76.570323,114.855485,-9418.149754
108.763661,133.998066,114.855485,-9418.149754
108.764288,76.570323,153.140646,-9418.149754
108.764916,38.285162,114.855485,-9437.292334
108.765543,95.712904,114.855485,-9456.434915
108.766171,76.570323,172.283227,-9418.149754
108.766798,133.998066,153.140646,-9456.434915
108.767426,38.285162,114.855485,-9418.149754
108.768054,133.998066,172.283227,-9475.577496
108.768681,133.998066,114.855485,-9418.149754
108.769309,133.998066,191.425808,-9399.007173
108.769936,76.570323,114.855485,-9418.149754
108.770564,57.427742,114.855485,-9399.007173
108.771191,76.570323,153.140646,-9418.149754
108.771819,38.285162,114.855485,-9418.149754
108.772446,19.142581,114.855485,-9418.149754
108.773074,95.712904,210.568389,-9456.434915
108.773702,133.998066,210.568389,-9418.149754
108.774329,95.712904,114.855485,-9456.434915
108.774957,38.285162,210.568389,-9418.149754
108.775584,153.140646,153.140646,-9399.007173
108.776212,133.998066,133.998066,-9399.007173
108.776839,76.570323,114.855485,-9418.149754
108.777467,38.285162,114.855485,-9418.149754
108.778094,153.140646,133.998066,-9399.007173
108.778722,133.998066,114.855485,-9418.149754
108.779349,133.998066,153.140646,-9418.149754
108.779977,76.570323,114.855485,-9418.149754
108.780605,38.285162,114.855485,-9418.149754
108.781232,57.427742,95.712904,-9399.007173
108.781860,76.570323,114.855485,-9494.720077
108.782487,133.998066,133.998066,-9399.007173
108.783115,76.570323,114.855485,-9437.292334
108.783742,76.570323,114.855485,-9418.149754
108.784370,76.570323,114.855485,-9418.149754
108.784997,76.570323,153.140646,-9418.149754
108.785625,95.712904,95.712904,-9399.007173
108.786252,133.998066,114.855485,-9437.292334
108.786880,133.998066,133.998066,-9494.720077
108.787508,76.570323,114.855485,-9418.149754
108.788135,133.998066,114.855485,-9418.149754
108.788763,114.855485,95.712904,-9399.007173
108.789390,153.140646,153.140646,-9437.292334
108.790018,133.998066,114.855485,-9437.292334
108.790645,133.998066,114.855485,-9437.292334
108.791273,76.570323,210.568389,-9418.149754
108.791900,153.140646,133.998066,-9494.720077
108.792528,133.998066,114.855485,-9418.149754
108.793156,95.712904,114.855485,-9418.149754
108.793783,38.285162,114.855485,-9418.149754
108.794411,133.998066,114.855485,-9418.149754
108.795038,76.570323,114.855485,-9418.149754
108.795666,133.998066,114.855485,-9418.149754
108.796293,76.570323,153.140646,-9418.149754
108.796921,57.427742,133.998066,-9360.722011
108.797548,38.285162,114.855485,-9418.149754
108.798176,76.570323,153.140646,-9437.292334
108.798803,76.570323,172.283227,-9418.149754
108.799431,133.998066,114.855485,-9418.149754
108.800059,133.998066,114.855485,-9475.577496
108.800686,153.140646,153.140646,-9399.007173
108.801314,133.998066,114.855485,-9418.149754
108.801941,153.140646,133.998066,-9399.007173
108.802569,38.285162,114.855485,-9418.149754
108.803196,95.712904,114.855485,-9475.577496
108.803824,133.998066,114.855485,-9418.149754
108.804451,76.570323,114.855485,-9418.149754
108.805079,114.855485,95.712904,-9399.007173
108.805706,133.998066,114.855485,-9418.149754
108.806334,76.570323,172.283227,-9437.292334
108.806962,95.712904,95.712904,-9379.864592
108.807589,95.712904,172.283227,-9456.434915
108.808217,38.285162,153.140646,-9437.292334
108.808844,133.998066,153.140646,-9437.292334
108.809472,38.285162,153.140646,-9437.292334
108.810099,76.570323,114.855485,-9437.292334
108.810727,76.570323,114.855485,-9475.577496
108.811354,76.570323,172.283227,-9456.434915
108.811982,76.570323,114.855485,-9418.149754
108.812610,133.998066,153.140646,-9418.149754
108.813237,38.285162,114.855485,-9437.292334
108.813865,76.570323,114.855485,-9418.149754
108.814492,133.998066,153.140646,-9360.722011
108.815120,57.427742,114.855485,-9418.149754
108.815747,133.998066,114.855485,-9418.149754
108.816375,133.998066,153.140646,-9456.434915
108.817002,95.712904,95.712904,-9399.007173
108.817630,133.998066,114.855485,-9456.434915
108.818257,76.570323,114.855485,-9418.149754
108.818885,133.998066,153.140646,-9456.434915
108.819513,76.570323,172.283227,-9418.149754
108.820140,133.998066,114.855485,-9418.149754
108.820768,76.570323,114.855485,-9418.149754
108.821395,38.285162,114.855485,-9418.149754
108.822022,114.855485,133.998066,-9360.722011
108.822650,76.570323,114.855485,-9418.149754
108.823277,114.855485,114.855485,-9399.007173
108.823905,38.285162,114.855485,-9418.149754
108.824532,133.998066,133.998066,-9456.434915
108.825159,57.427742,95.712904,-9456.434915
108.825787,76.570323,172.283227,-9437.292334
108.826414,38.285162,114.855485,-9456.434915
108.827042,57.427742,95.712904,-9399.007173
108.827669,153.140646,133.998066,-9456.434915
108.828296,76.570323,172.283227,-9418.149754
108.828924,95.712904,95.712904,-9494.720077
108.829551,133.998066,114.855485,-9418.149754
108.830179,76.570323,95.712904,-9456.434915
108.830806,76.570323,114.855485,-9418.149754
108.831433,133.998066,172.283227,-9533.005238
108.832061,133.998066,210.568389,-9456.434915
108.832688,76.570323,172.283227,-9418.149754
108.833316,76.570323,114.855485,-9418.149754
108.833943,133.998066,172.283227,-9399.007173
108.834570,76.570323,76.570323,-9379.864592
108.835198,114.855485,153.140646,-9418.149754
108.835825,133.998066,153.140646,-9456.434915
108.836453,133.998066,133.998066,-9399.007173
108.837080,57.427742,95.712904,-9399.007173
108.837707,76.570323,153.140646,-9418.149754
108.838335,133.998066,133.998066,-9399.007173
108.838962,153.140646,133.998066,-9437.292334
108.839590,133.998066,114.855485,-9418.149754
108.840217,76.570323,114.855485,-9418.149754
108.840844,76.570323,114.855485,-9418.149754
108.841472,153.140646,153.140646,-9399.007173
108.842099,76.570323,114.855485,-9418.149754
108.842727,114.855485,114.855485,-9322.436850
108.843354,133.998066,114.855485,-9437.292334
108.843981,38.285162,172.283227,-9418.149754
108.844609,76.570323,114.855485,-9418.149754
108.845236,133.998066,114.855485,-9437.292334
108.845864,153.140646,172.283227,-9418.149754
108.846491,133.998066,114.855485,-9418.149754
108.847118,95.712904,114.855485,-9418.149754
108.847746,153.140646,153.140646,-9399.007173
108.848373,133.998066,114.855485,-9418.149754
108.849001,76.570323,172.283227,-9418.149754
108.849628,38.285162,191.425808,-9437.292334
108.850255,133.998066,153.140646,-9456.434915
108.850883,38.285162,114.855485,-9456.434915
108.851510,38.285162,153.140646,-9418.149754
108.852138,133.998066,114.855485,-9418.149754
108.852765,76.570323,172.283227,-9418.149754
108.853392,38.285162,191.425808,-9418.149754
108.854020,133.998066,114.855485,-9418.149754
108.854647,76.570323,153.140646,-9456.434915
108.855275,95.712904,114.855485,-9437.292334
108.855902,76.570323,172.283227,-9418.149754
108.856529,76.570323,114.855485,-9418.149754
108.857157,76.570323,114.855485,-9418.149754
108.857784,76.570323,114.855485,-9456.434915
108.858412,153.140646,191.425808,-9399.007173
108.859039,153.140646,133.998066,-9456.434915
108.859666,114.855485,114.855485,-9437.292334
108.860294,133.998066,210.568389,-9437.292334
108.860921,76.570323,114.855485,-9418.149754
108.861549,76.570323,114.855485,-9418.149754
108.862176,95.712904,133.998066,-9341.579430
108.862803,76.570323,114.855485,-9437.292334
108.863431,133.998066,210.568389,-9475.577496
108.864058,133.998066,153.140646,-9456.434915
108.864686,114.855485,95.712904,-9399.007173
108.865313,76.570323,114.855485,-9418.149754
108.865940,133.998066,114.855485,-9418.149754
108.866568,76.570323,114.855485,-9418.149754
108.867195,133.998066,172.283227,-9437.292334
108.867823,76.570323,172.283227,-9456.434915
108.868450,114.855485,95.712904,-9399.007173
108.869077,95.712904,95.712904,-9437.292334
108.869705,95.712904,38.285162,-9399.007173
108.870332,153.140646,133.998066,-9399.007173
108.870960,172.283227,172.283227,-9379.864592
108.871587,38.285162,114.855485,-9418.149754
108.872214,76.570323,114.855485,-9418.149754
108.872842,133.998066,114.855485,-9437.292334
108.873469,133.998066,114.855485,-9456.434915
108.874097,76.570323,114.855485,-9399.007173
108.874724,153.140646,172.283227,-9456.434915
108.875351,114.855485,76.570323,-9418.149754
108.875979,38.285162,210.568389,-9418.149754
108.876606,133.998066,114.855485,-9418.149754
108.877234,76.570323,172.283227,-9418.149754
108.877861,95.712904,114.855485,-9418.149754
108.878488,210.568389,133.998066,-9513.862658
108.879116,153.140646,172.283227,-9399.007173
108.879743,133.998066,114.855485,-9418.149754
108.880371,114.855485,95.712904,-9399.007173
108.880998,133.998066,114.855485,-9437.292334
108.881625,76.570323,114.855485,-9418.149754
108.882253,153.140646,172.283227,-9399.007173
108.882880,76.570323,114.855485,-9418.149754
108.883508,133.998066,114.855485,-9418.149754
108.884135,95.712904,153.140646,-9418.149754
108.884762,153.140646,153.140646,-9399.007173
108.885390,133.998066,114.855485,-9437.292334
108.886017,76.570323,114.855485,-9456.434915
108.886645,133.998066,172.283227,-9437.292334
108.887272,133.998066,114.855485,-9418.149754
108.887899,76.570323,114.855485,-9418.149754
108.888527,133.998066,191.425808,-9418.149754
108.889154,76.570323,172.283227,-9418.149754
108.889782,76.570323,153.140646,-9475.577496
108.890409,133.998066,172.283227,-9456.434915
108.891036,114.855485,95.712904,-9437.292334
108.891664,133.998066,114.855485,-9418.149754
108.892291,76.570323,114.855485,-9456.434915
108.892919,95.712904,95.712904,-9399.007173
108.893546,153.140646,133.998066,-9437.292334
108.894174,133.998066,114.855485,-9437.292334
108.894801,153.140646,153.140646,-9437.292334
108.895428,133.998066,114.855485,-9475.577496
108.896056,57.427742,95.712904,-9399.007173
108.896683,133.998066,172.283227,-9399.007173
108.897311,133.998066,114.855485,-9418.149754
108.897938,210.568389,133.998066,-9399.007173
108.898565,95.712904,114.855485,-9399.007173
108.899193,114.855485,95.712904,-9399.007173
108.899820,172.283227,114.855485,-9379.864592
108.900448,95.712904,114.855485,-9418.149754
108.901075,38.285162,172.283227,-9437.292334
108.901702,76.570323,114.855485,-9418.149754
108.902330,133.998066,114.855485,-9456.434915
108.902957,76.570323,114.855485,-9456.434915
108.903585,95.712904,95.712904,-9399.007173
108.904212,76.570323,172.283227,-9418.149754
108.904839,133.998066,172.283227,-9418.149754
108.905467,114.855485,153.140646,-9360.722011
108.906094,133.998066,133.998066,-9437.292334
108.906722,57.427742,95.712904,-9399.007173
108.907349,76.570323,153.140646,-9418.149754
108.907976,38.285162,114.855485,-9418.149754
108.908604,76.570323,114.855485,-9418.149754
108.909231,76.570323,114.855485,-9418.149754
108.909859,76.570323,153.140646,-9437.292334
108.910486,76.570323,172.283227,-9418.149754
108.911113,38.285162,114.855485,-9437.292334
108.911741,95.712904,133.998066,-9360.722011
108.912368,114.855485,95.712904,-9399.007173
108.912996,133.998066,133.998066,-9456.434915
108.913623,38.285162,114.855485,-9418.149754
108.914250,133.998066,153.140646,-9494.720077
108.914878,76.570323,191.425808,-9533.005238
108.915505,133.998066,172.283227,-9475.577496
108.916133,76.570323,114.855485,-9418.149754
108.916760,76.570323,114.855485,-9418.149754
108.917387,38.285162,114.855485,-9418.149754
108.918015,76.570323,114.855485,-9418.149754
108.918642,38.285162,114.855485,-9418.149754
108.919270,153.140646,153.140646,-9399.007173
108.919897,76.570323,95.712904,-9456.434915
108.920524,133.998066,114.855485,-9418.149754
108.921152,76.570323,114.855485,-9418.149754
108.921780,76.570323,153.140646,-9456.434915
108.922407,133.998066,114.855485,-9437.292334
108.923035,153.140646,133.998066,-9456.434915
108.923662,38.285162,114.855485,-9418.149754
108.924290,133.998066,114.855485,-9475.577496
108.924917,133.998066,114.855485,-9418.149754
108.925545,133.998066,172.283227,-9456.434915
108.926173,133.998066,114.855485,-9456.434915
108.926800,95.712904,133.998066,-9360.722011
108.927428,76.570323,114.855485,-9437.292334
108.928055,38.285162,172.283227,-9533.005238
108.928683,76.570323,153.140646,-9437.292334
108.929310,133.998066,172.283227,-9418.149754
108.929938,76.570323,114.855485,-9418.149754
108.930565,95.712904,114.855485,-9437.292334
108.931193,133.998066,114.855485,-9437.292334
108.931821,76.570323,114.855485,-9494.720077
108.932448,133.998066,210.568389,-9456.434915
108.933076,76.570323,153.140646,-9475.577496
108.933703,133.998066,191.425808,-9475.577496
108.934331,133.998066,172.283227,-9494.720077
108.934958,76.570323,114.855485,-9437.292334
108.935586,133.998066,114.855485,-9418.149754
108.936214,133.998066,114.855485,-9418.149754
108.936841,133.998066,172.283227,-9418.149754
108.937469,76.570323,114.855485,-9418.149754
108.938096,76.570323,210.568389,-9418.149754
108.938724,133.998066,114.855485,-9456.434915
108.939351,153.140646,114.855485,-9418.149754
108.939979,114.855485,114.855485,-9437.292334
108.940607,76.570323,153.140646,-9475.577496
108.941234,76.570323,114.855485,-9456.434915
108.941862,38.285162,172.283227,-9360.722011
108.942489,114.855485,133.998066,-9360.722011
108.943117,114.855485,114.855485,-9379.864592
108.943744,133.998066,153.140646,-9418.149754
108.944372,133.998066,114.855485,-9456.434915
108.945000,153.140646,133.998066,-9399.007173
108.945627,95.712904,133.998066,-9360.722011
108.946255,38.285162,114.855485,-9418.149754
108.946882,153.140646,172.283227,-9418.149754
108.947510,133.998066,172.283227,-9437.292334
108.948137,76.570323,114.855485,-9418.149754
108.948765,76.570323,172.283227,-9418.149754
108.949393,76.570323,114.855485,-9418.149754
108.950020,133.998066,114.855485,-9456.434915
108.950648,153.140646,133.998066,-9399.007173
108.951275,114.855485,172.283227,-9360.722011
108.951903,95.712904,95.712904,-9399.007173
108.952530,95.712904,114.855485,-9418.149754
108.953158,133.998066,114.855485,-9418.149754
108.953786,114.855485,95.712904,-9437.292334
108.954413,153.140646,133.998066,-9399.007173
108.955041,133.998066,133.998066,-9437.292334
108.955668,76.570323,114.855485,-9418.149754
108.956296,38.285162,114.855485,-9418.149754
108.956923,76.570323,172.283227,-9437.292334
108.957551,133.998066,172.283227,-9418.149754
108.958179,133.998066,114.855485,-9437.292334
108.958806,76.570323,153.140646,-9456.434915
108.959434,38.285162,114.855485,-9418.149754
108.960061,76.570323,114.855485,-9418.149754
108.960689,76.570323,114.855485,-9456.434915
108.961316,114.855485,172.283227,-9360.722011
108.961944,76.570323,191.425808,-9437.292334
108.962572,133.998066,114.855485,-9456.434915
108.963199,153.140646,153.140646,-9399.007173
108.963827,153.140646,133.998066,-9456.434915
108.964454,76.570323,114.855485,-9418.149754
108.965082,133.998066,153.140646,-9456.434915
108.965709,76.570323,114.855485,-9456.434915
108.966337,38.285162,114.855485,-9456.434915
108.966965,38.285162,210.568389,-9456.434915
108.967592,76.570323,153.140646,-9456.434915
108.968220,133.998066,133.998066,-9399.007173
108.968847,95.712904,133.998066,-9360.722011
108.969475,153.140646,172.283227,-9399.007173
108.970102,76.570323,172.283227,-9437.292334
108.970730,133.998066,133.998066,-9399.007173
108.971358,95.712904,95.712904,-9456.434915
108.971985,133.998066,114.855485,-9475.577496
108.972613,133.998066,172.283227,-9437.292334
108.973240,153.140646,153.140646,-9456.434915
108.973868,76.570323,172.283227,-9533.005238
108.974495,172.283227,76.570323,-9475.577496
108.975123,133.998066,114.855485,-9418.149754
108.975751,95.712904,95.712904,-9399.007173
108.976378,133.998066,153.140646,-9418.149754
108.977006,133.998066,210.568389,-9418.149754
108.977633,133.998066,172.283227,-9456.434915
108.978261,38.285162,210.568389,-9456.434915
108.978888,114.855485,153.140646,-9418.149754
108.979516,153.140646,153.140646,-9418.149754
108.980144,76.570323,114.855485,-9418.149754
108.980771,133.998066,172.283227,-9418.149754
108.981399,114.855485,114.855485,-9456.434915
108.982026,57.427742,114.855485,-9418.149754
108.982654,133.998066,114.855485,-9437.292334
108.983281,133.998066,133.998066,-9456.434915
108.983909,38.285162,114.855485,-9437.292334
108.984537,95.712904,153.140646,-9360.722011
108.985164,95.712904,172.283227,-9437.292334
108.985792,133.998066,114.855485,-9418.149754
108.986419,76.570323,172.283227,-9494.720077
108.987047,76.570323,114.855485,-9456.434915
108.987674,114.855485,95.712904,-9494.720077
108.988302,76.570323,114.855485,-9418.149754
108.988930,95.712904,172.283227,-9456.434915
108.989557,133.998066,153.140646,-9418.149754
108.990185,133.998066,172.283227,-9437.292334
108.990812,76.570323,172.283227,-9456.434915
108.991440,38.285162,153.140646,-9418.149754
108.992067,95.712904,114.855485,-9418.149754
108.992695,95.712904,133.998066,-9418.149754
108.993323,76.570323,114.855485,-9418.149754
108.993950,133.998066,153.140646,-9418.149754
108.994578,76.570323,114.855485,-9437.292334
108.995205,76.570323,114.855485,-9418.149754
108.995833,153.140646,133.998066,-9456.434915
108.996460,95.712904,153.140646,-9418.149754
108.997088,133.998066,210.568389,-9418.149754
108.997716,114.855485,172.283227,-9475.577496
108.998343,38.285162,153.140646,-9418.149754
108.998971,114.855485,95.712904,-9456.434915
108.999598,76.570323,114.855485,-9418.149754
109.000226,76.570323,114.855485,-9418.149754
109.000853,76.570323,114.855485,-9418.149754
109.001481,76.570323,114.855485,-9418.149754
109.002109,172.283227,76.570323,-9456.434915
109.002736,153.140646,172.283227,-9456.434915
109.003364,76.570323,114.855485,-9456.434915
109.003991,133.998066,191.425808,-9437.292334
109.004619,114.855485,76.570323,-9437.292334
109.005246,114.855485,95.712904,-9399.007173
109.005874,133.998066,114.855485,-9418.149754
109.006502,133.998066,172.283227,-9418.149754
109.007129,95.712904,114.855485,-9437.292334
109.007757,76.570323,153.140646,-9418.149754
109.008384,57.427742,133.998066,-9360.722011
109.009012,114.855485,95.712904,-9399.007173
109.009639,133.998066,114.855485,-9437.292334
109.010267,76.570323,114.855485,-9418.149754
109.010895,95.712904,114.855485,-9399.007173
109.011522,133.998066,172.283227,-9437.292334
109.012150,153.140646,172.283227,-9437.292334
109.012777,133.998066,210.568389,-9418.149754
109.013405,133.998066,114.855485,-9418.149754
109.014032,38.285162,114.855485,-9456.434915
109.014660,133.998066,133.998066,-9399.007173
109.015288,153.140646,133.998066,-9456.434915
109.015915,133.998066,172.283227,-9437.292334
109.016543,38.285162,114.855485,-9456.434915
109.017170,95.712904,172.283227,-9418.149754
109.017798,38.285162,153.140646,-9418.149754
109.018425,76.570323,153.140646,-9418.149754
109.019053,38.285162,114.855485,-9475.577496
109.019680,76.570323,172.283227,-9456.434915
109.020308,76.570323,114.855485,-9418.149754
109.020936,38.285162,172.283227,-9418.149754
109.021563,76.570323,114.855485,-9456.434915
109.022191,76.570323,114.855485,-9456.434915
109.022818,133.998066,172.283227,-9456.434915
109.023446,133.998066,114.855485,-9418.149754
109.024074,76.570323,153.140646,-9418.149754
109.024701,133.998066,114.855485,-9456.434915
109.025329,133.998066,114.855485,-9437.292334
109.025956,133.998066,114.855485,-9456.434915
109.026584,172.283227,114.855485,-9513.862658
109.027211,76.570323,229.710970,-9494.720077
109.027839,133.998066,114.855485,-9437.292334
109.028467,38.285162,114.855485,-9475.577496
109.029094,76.570323,114.855485,-9418.149754
109.029722,76.570323,114.855485,-9418.149754
109.030349,153.140646,133.998066,-9494.720077
109.030977,76.570323,114.855485,-9456.434915
109.031604,38.285162,114.855485,-9437.292334
109.032232,76.570323,114.855485,-9456.434915
109.032860,133.998066,172.283227,-9437.292334
109.033487,76.570323,172.283227,-9437.292334
109.034115,153.140646,133.998066,-9437.292334
109.034742,133.998066,114.855485,-9437.292334
109.035370,133.998066,153.140646,-9437.292334
109.035997,114.855485,76.570323,-9418.149754
109.036625,38.285162,114.855485,-9456.434915
109.037253,133.998066,153.140646,-9418.149754
109.037880,133.998066,114.855485,-9418.149754
109.038508,76.570323,114.855485,-9418.149754
109.039135,133.998066,114.855485,-9456.434915
109.039763,76.570323,114.855485,-9437.292334
109.040391,95.712904,95.712904,-9399.007173
109.041018,76.570323,210.568389,-9456.434915
109.041646,133.998066,114.855485,-9437.292334
109.042273,114.855485,114.855485,-9399.007173
109.042901,133.998066,153.140646,-9418.149754
109.043528,133.998066,153.140646,-9418.149754
109.044156,76.570323,172.283227,-9418.149754
109.044784,76.570323,172.283227,-9437.292334
109.045411,38.285162,153.140646,-9418.149754
109.046039,95.712904,153.140646,-9360.722011
109.046666,57.427742,95.712904,-9399.007173
109.047294,38.285162,114.855485,-9475.577496
109.047921,133.998066,114.855485,-9456.434915
109.048549,76.570323,153.140646,-9418.149754
109.049177,95.712904,95.712904,-9399.007173
109.049804,133.998066,114.855485,-9437.292334
109.050432,133.998066,114.855485,-9418.149754
109.051059,95.712904,153.140646,-9418.149754
109.051687,76.570323,114.855485,-9456.434915
109.052314,133.998066,153.140646,-9418.149754
109.052942,38.285162,114.855485,-9456.434915
109.053570,76.570323,114.855485,-9494.720077
109.054197,114.855485,95.712904,-9437.292334
109.054825,38.285162,114.855485,-9456.434915
109.055452,76.570323,95.712904,-9399.007173
109.056080,76.570323,114.855485,-9475.577496
109.056708,76.570323,95.712904,-9399.007173
109.057335,95.712904,95.712904,-9399.007173
109.057963,38.285162,114.855485,-9456.434915
109.058590,76.570323,172.283227,-9456.434915
109.059218,76.570323,114.855485,-9418.149754
109.059845,76.570323,210.568389,-9437.292334
109.060473,76.570323,153.140646,-9437.292334
109.061101,76.570323,172.283227,-9456.434915
109.061728,133.998066,114.855485,-9437.292334
109.062356,153.140646,114.855485,-9418.149754
109.062983,153.140646,133.998066,-9399.007173
109.063611,133.998066,114.855485,-9456.434915
109.064238,38.285162,114.855485,-9437.292334
109.064866,133.998066,210.568389,-9418.149754
109.065494,76.570323,210.568389,-9418.149754
109.066121,114.855485,172.283227,-9360.722011
109.066749,76.570323,172.283227,-9456.434915
109.067376,95.712904,153.140646,-9475.577496
109.068004,76.570323,153.140646,-9418.149754
109.068631,38.285162,210.568389,-9418.149754
109.069259,114.855485,133.998066,-9360.722011
109.069887,76.570323,172.283227,-9437.292334
109.070514,153.140646,133.998066,-9399.007173
109.071142,133.998066,76.570323,-9379.864592
109.071769,133.998066,114.855485,-9418.149754
109.072397,133.998066,153.140646,-9437.292334
109.073025,38.285162,191.425808,-9418.149754
109.073652,76.570323,114.855485,-9418.149754
109.074280,153.140646,133.998066,-9437.292334
109.074907,133.998066,153.140646,-9418.149754
109.075535,133.998066,114.855485,-9456.434915
109.076162,95.712904,95.712904,-9399.007173
109.076790,114.855485,191.425808,-9360.722011
109.077418,76.570323,114.855485,-9437.292334
109.078045,76.570323,172.283227,-9418.149754
109.078673,76.570323,153.140646,-9437.292334
109.079300,76.570323,153.140646,-9418.149754
109.079928,133.998066,172.283227,-9418.149754
109.080555,133.998066,153.140646,-9456.434915
109.081183,114.855485,95.712904,-9399.007173
109.081811,153.140646,133.998066,-9475.577496
109.082438,133.998066,153.140646,-9437.292334
109.083066,133.998066,114.855485,-9456.434915
109.083693,133.998066,172.283227,-9399.007173
109.084321,133.998066,191.425808,-9456.434915
109.084948,133.998066,114.855485,-9418.149754
109.085576,133.998066,114.855485,-9418.149754
109.086204,76.570323,114.855485,-9418.149754
109.086831,133.998066,133.998066,-9437.292334
109.087459,38.285162,114.855485,-9418.149754
109.088086,133.998066,153.140646,-9418.149754
109.088714,95.712904,114.855485,-9456.434915
109.089342,133.998066,114.855485,-9418.149754
109.089969,133.998066,153.140646,-9475.577496
109.090597,133.998066,172.283227,-9456.434915
109.091224,133.998066,114.855485,-9475.577496
109.091852,57.427742,114.855485,-9437.292334
109.092479,76.570323,153.140646,-9418.149754
109.093107,133.998066,114.855485,-9437.292334
109.093735,153.140646,133.998066,-9437.292334
109.094362,133.998066,133.998066,-9456.434915
109.094990,76.570323,114.855485,-9418.149754
109.095617,38.285162,210.568389,-9418.149754
109.096245,38.285162,114.855485,-9494.720077
109.096872,153.140646,191.425808,-9437.292334
109.097500,153.140646,133.998066,-9399.007173
109.098128,76.570323,114.855485,-9418.149754
109.098755,133.998066,114.855485,-9437.292334
109.099383,38.285162,210.568389,-9418.149754
109.100010,153.140646,114.855485,-9437.292334
109.100638,153.140646,133.998066,-9437.292334
109.101265,133.998066,114.855485,-9456.434915
109.101893,133.998066,172.283227,-9418.149754
109.102521,76.570323,153.140646,-9418.149754
109.103148,133.998066,114.855485,-9437.292334
109.103776,133.998066,114.855485,-9456.434915
109.104403,133.998066,114.855485,-9418.149754
109.105031,76.570323,172.283227,-9533.005238
109.105659,76.570323,114.855485,-9475.577496
109.106286,133.998066,114.855485,-9475.577496
109.106914,76.570323,153.140646,-9418.149754
109.107541,38.285162,114.855485,-9418.149754
109.108169,133.998066,114.855485,-9418.149754
109.108796,95.712904,114.855485,-9399.007173
109.109424,76.570323,114.855485,-9437.292334
109.110052,57.427742,114.855485,-9418.149754
109.110679,95.712904,210.568389,-9418.149754
109.111307,114.855485,172.283227,-9360.722011
109.111934,38.285162,153.140646,-9418.149754
109.112562,133.998066,133.998066,-9456.434915
109.113189,172.283227,76.570323,-9437.292334
109.113817,133.998066,114.855485,-9475.577496
109.114445,76.570323,153.140646,-9456.434915
109.115072,133.998066,114.855485,-9418.149754
109.115700,76.570323,172.283227,-9456.434915
109.116327,133.998066,114.855485,-9494.720077
109.116955,76.570323,114.855485,-9437.292334
109.117582,133.998066,172.283227,-9475.577496
109.118210,76.570323,114.855485,-9418.149754
109.118838,133.998066,114.855485,-9418.149754
109.119465,76.570323,114.855485,-9418.149754
109.120093,133.998066,114.855485,-9418.149754
109.120720,133.998066,191.425808,-9418.149754
109.121348,153.140646,133.998066,-9399.007173
109.121975,38.285162,114.855485,-9437.292334
109.122603,133.998066,114.855485,-9494.720077
109.123230,133.998066,153.140646,-9418.149754
109.123858,133.998066,114.855485,-9418.149754
109.124485,76.570323,172.283227,-9437.292334
109.125112,38.285162,114.855485,-9494.720077
109.125740,133.998066,172.283227,-9456.434915
109.126367,133.998066,153.140646,-9437.292334
109.126995,76.570323,114.855485,-9418.149754
109.127622,95.712904,133.998066,-9360.722011
109.128249,76.570323,114.855485,-9418.149754
109.128877,133.998066,114.855485,-9418.149754
109.129504,133.998066,114.855485,-9418.149754
109.130132,95.712904,95.712904,-9437.292334
109.130759,95.712904,95.712904,-9399.007173
109.131386,133.998066,114.855485,-9418.149754
109.132014,133.998066,114.855485,-9437.292334
109.132641,38.285162,114.855485,-9418.149754
109.133269,114.855485,133.998066,-9360.722011
109.133896,76.570323,210.568389,-9456.434915
109.134523,76.570323,114.855485,-9437.292334
109.135151,76.570323,114.855485,-9418.149754
109.135778,210.568389,133.998066,-9399.007173
109.136406,133.998066,191.425808,-9418.149754
109.137033,76.570323,172.283227,-9418.149754
109.137660,133.998066,133.998066,-9399.007173
109.138288,133.998066,172.283227,-9456.434915
109.138915,172.283227,76.570323,-9475.577496
109.139543,76.570323,210.568389,-9418.149754
109.140170,133.998066,114.855485,-9437.292334
109.140797,133.998066,133.998066,-9456.434915
109.141425,153.140646,153.140646,-9456.434915
109.142052,133.998066,114.855485,-9418.149754
109.142680,76.570323,153.140646,-9418.149754
109.143307,95.712904,114.855485,-9437.292334
109.143934,133.998066,114.855485,-9418.149754
109.144562,153.140646,153.140646,-9456.434915
109.145189,133.998066,153.140646,-9494.720077
109.145817,133.998066,114.855485,-9418.149754
109.146444,95.712904,114.855485,-9437.292334
109.147071,76.570323,114.855485,-9418.149754
109.147699,38.285162,114.855485,-9418.149754
109.148326,114.855485,172.283227,-9418.149754
109.148954,95.712904,95.712904,-9456.434915
109.149581,76.570323,114.855485,-9437.292334
109.150208,95.712904,95.712904,-9399.007173
109.150836,133.998066,114.855485,-9418.149754
109.151463,133.998066,114.855485,-9456.434915
109.152091,153.140646,133.998066,-9399.007173
109.152718,38.285162,114.855485,-9437.292334
109.153345,133.998066,114.855485,-9418.149754
109.153973,57.427742,172.283227,-9360.722011
109.154600,57.427742,95.712904,-9456.434915
109.155228,76.570323,114.855485,-9437.292334
109.155855,133.998066,114.855485,-9475.577496
109.156482,76.570323,153.140646,-9475.577496
109.157110,38.285162,114.855485,-9418.149754
109.157737,133.998066,114.855485,-9418.149754
109.158365,133.998066,114.855485,-9418.149754
109.158992,153.140646,133.998066,-9456.434915
109.159619,133.998066,114.855485,-9456.434915
109.160247,57.427742,95.712904,-9399.007173
109.160874,38.285162,114.855485,-9456.434915
109.161502,133.998066,114.855485,-9437.292334
109.162129,38.285162,114.855485,-9456.434915
109.162756,38.285162,114.855485,-9418.149754
109.163384,57.427742,153.140646,-9418.149754
109.164011,57.427742,95.712904,-9399.007173
109.164639,38.285162,114.855485,-9418.149754
109.165266,76.570323,114.855485,-9437.292334
109.165893,114.855485,133.998066,-9360.722011
109.166521,38.285162,210.568389,-9418.149754
109.167148,95.712904,114.855485,-9418.149754
109.167776,38.285162,114.855485,-9418.149754
109.168403,57.427742,172.283227,-9418.149754
109.169030,76.570323,114.855485,-9418.149754
109.169658,95.712904,95.712904,-9456.434915
109.170285,95.712904,114.855485,-9418.149754
109.170913,76.570323,114.855485,-9418.149754
109.171540,76.570323,114.855485,-9456.434915
109.172167,153.140646,133.998066,-9399.007173
109.172795,133.998066,114.855485,-9418.149754
109.173422,76.570323,114.855485,-9437.292334
109.174050,133.998066,153.140646,-9437.292334
109.174677,172.283227,133.998066,-9360.722011
109.175304,114.855485,133.998066,-9360.722011
109.175932,133.998066,114.855485,-9418.149754
109.176559,133.998066,172.283227,-9399.007173
109.177187,76.570323,153.140646,-9418.149754
109.177814,133.998066,210.568389,-9418.149754
109.178441,133.998066,210.568389,-9437.292334
109.179069,76.570323,172.283227,-9418.149754
109.179696,76.570323,153.140646,-9399.007173
109.180324,38.285162,114.855485,-9475.577496
109.180951,95.712904,114.855485,-9456.434915
109.181578,57.427742,95.712904,-9379.864592
109.182206,133.998066,114.855485,-9418.149754
109.182833,38.285162,229.710970,-9456.434915
109.183461,76.570323,114.855485,-9418.149754
109.184088,133.998066,172.283227,-9437.292334
109.184715,114.855485,95.712904,-9379.864592
109.185343,133.998066,153.140646,-9418.149754
109.185970,76.570323,153.140646,-9418.149754
109.186598,38.285162,114.855485,-9418.149754
109.187225,76.570323,114.855485,-9418.149754
109.187852,76.570323,114.855485,-9437.292334
109.188480,76.570323,172.283227,-9437.292334
109.189107,38.285162,153.140646,-9456.434915
109.189735,133.998066,114.855485,-9418.149754
109.190362,133.998066,114.855485,-9437.292334
109.190989,76.570323,114.855485,-9418.149754
109.191617,76.570323,114.855485,-9418.149754
109.192244,38.285162,172.283227,-9418.149754
109.192872,153.140646,133.998066,-9456.434915
109.193499,76.570323,114.855485,-9418.149754
109.194126,95.712904,95.712904,-9399.007173
109.194754,133.998066,114.855485,-9418.149754
109.195381,76.570323,153.140646,-9418.149754
109.196009,133.998066,114.855485,-9418.149754
109.196636,76.570323,114.855485,-9418.149754
109.197263,38.285162,114.855485,-9475.577496
109.197891,95.712904,95.712904,-9399.007173
109.198518,76.570323,153.140646,-9437.292334
109.199146,76.570323,172.283227,-9418.149754
109.199773,76.570323,172.283227,-9456.434915
109.200400,133.998066,172.283227,-9418.149754
109.201028,153.140646,153.140646,-9418.149754
109.201655,153.140646,210.568389,-9418.149754
109.202283,76.570323,210.568389,-9418.149754
109.202910,133.998066,172.283227,-9418.149754
109.203537,76.570323,153.140646,-9399.007173
109.204165,133.998066,172.283227,-9456.434915
109.204792,95.712904,172.283227,-9418.149754
109.205420,133.998066,172.283227,-9418.149754
109.206047,95.712904,114.855485,-9418.149754
109.206674,133.998066,114.855485,-9418.149754
109.207302,57.427742,95.712904,-9399.007173
109.207929,133.998066,114.855485,-9418.149754
109.208557,76.570323,114.855485,-9437.292334
109.209184,57.427742,133.998066,-9360.722011
109.209811,76.570323,114.855485,-9456.434915
109.210439,76.570323,114.855485,-9437.292334
109.211066,38.285162,114.855485,-9456.434915
109.211694,172.283227,76.570323,-9418.149754
109.212321,153.140646,133.998066,-9399.007173
109.212948,133.998066,114.855485,-9418.149754
109.213576,38.285162,114.855485,-9456.434915
109.214203,95.712904,172.283227,-9418.149754
109.214831,38.285162,153.140646,-9437.292334
109.215458,133.998066,114.855485,-9456.434915
