#time,accel_x,accel_y,accel_z
2760.044618,95.712904,172.283227,-9360.722011
2760.045246,38.285162,172.283227,-9418.149754
2760.045874,76.570323,153.140646,-9360.722011
2760.046502,76.570323,210.568389,-9437.292334
2760.047130,133.998066,191.425808,-9399.007173
2760.047758,76.570323,114.855485,-9418.149754
2760.048386,38.285162,114.855485,-9418.149754
2760.049014,114.855485,95.712904,-9399.007173
2760.049642,76.570323,114.855485,-9418.149754
2760.050270,95.712904,153.140646,-9418.149754
2760.050898,19.142581,114.855485,-9418.149754
2760.051526,133.998066,114.855485,-9418.149754
2760.052154,76.570323,172.283227,-9418.149754
2760.052782,133.998066,114.855485,-9418.149754
2760.053410,133.998066,114.855485,-9456.434915
2760.054038,76.570323,114.855485,-9418.149754
2760.054666,38.285162,114.855485,-9418.149754
2760.055293,133.998066,114.855485,-9437.292334
2760.055921,153.140646,133.998066,-9437.292334
2760.056549,133.998066,153.140646,-9418.149754
2760.057177,133.998066,114.855485,-9418.149754
2760.057805,133.998066,114.855485,-9418.149754
2760.058433,172.283227,114.855485,-9379.864592
2760.059061,95.712904,133.998066,-9360.722011
2760.059689,95.712904,133.998066,-9360.722011
2760.060317,114.855485,191.425808,-9379.864592
2760.060945,95.712904,153.140646,-9360.722011
2760.061573,76.570323,114.855485,-9418.149754
2760.062201,76.570323,114.855485,-9399.007173
2760.062829,95.712904,210.568389,-9341.579430
2760.063457,133.998066,153.140646,-9418.149754
2760.064085,57.427742,133.998066,-9360.722011
2760.064713,76.570323,114.855485,-9418.149754
2760.065340,76.570323,210.568389,-9418.149754
2760.065968,133.998066,172.283227,-9437.292334
2760.066596,76.570323,153.140646,-9418.149754
2760.067224,114.855485,95.712904,-9456.434915
2760.067852,153.140646,133.998066,-9399.007173
2760.068480,38.285162,114.855485,-9437.292334
2760.069108,133.998066,114.855485,-9418.149754
2760.069736,95.712904,172.283227,-9360.722011
2760.070364,133.998066,153.140646,-9418.149754
2760.070992,19.142581,114.855485,-9418.149754
2760.071620,76.570323,133.998066,-9379.864592
2760.072248,76.570323,114.855485,-9418.149754
2760.072876,38.285162,153.140646,-9418.149754
2760.073504,57.427742,114.855485,-9399.007173
2760.074132,76.570323,210.568389,-9360.722011
2760.074760,133.998066,172.283227,-9418.149754
2760.075388,133.998066,172.283227,-9418.149754
2760.076015,133.998066,114.855485,-9418.149754
2760.076643,133.998066,133.998066,-9399.007173
2760.077271,153.140646,172.283227,-9437.292334
2760.077899,133.998066,153.140646,-9418.149754
2760.078527,133.998066,114.855485,-9418.149754
2760.079155,76.570323,114.855485,-9360.722011
2760.079783,95.712904,76.570323,-9379.864592
2760.080411,95.712904,153.140646,-9341.579430
2760.081039,76.570323,114.855485,-9399.007173
2760.081667,95.712904,133.998066,-9360.722011
2760.082295,153.140646,133.998066,-9379.864592
2760.082923,57.427742,95.712904,-9456.434915
2760.083551,95.712904,114.855485,-9418.149754
2760.084179,114.855485,133.998066,-9341.579430
2760.084807,133.998066,114.855485,-9360.722011
2760.085435,95.712904,114.855485,-9418.149754
2760.086063,95.712904,114.855485,-9418.149754
2760.086690,76.570323,114.855485,-9418.149754
2760.087318,95.712904,114.855485,-9360.722011
2760.087946,133.998066,114.855485,-9418.149754
2760.088574,38.285162,114.855485,-9437.292334
2760.089202,76.570323,114.855485,-9418.149754
2760.089830,38.285162,172.283227,-9437.292334
2760.090458,38.285162,76.570323,-9379.864592
2760.091086,153.140646,133.998066,-9399.007173
2760.091714,0.000000,133.998066,-9360.722011
2760.092342,19.142581,114.855485,-9418.149754
2760.092970,133.998066,172.283227,-9418.149754
2760.093598,153.140646,133.998066,-9399.007173
2760.094226,133.998066,172.283227,-9399.007173
2760.094854,133.998066,172.283227,-9418.149754
2760.095482,95.712904,95.712904,-9456.434915
2760.096110,133.998066,153.140646,-9418.149754
2760.096737,133.998066,114.855485,-9418.149754
2760.097365,76.570323,114.855485,-9418.149754
2760.097993,76.570323,114.855485,-9418.149754
2760.098621,133.998066,191.425808,-9418.149754
2760.099249,133.998066,210.568389,-9418.149754
2760.099877,76.570323,172.283227,-9418.149754
2760.100505,76.570323,172.283227,-9418.149754
2760.101133,76.570323,114.855485,-9418.149754
2760.101761,95.712904,191.425808,-9418.149754
2760.102389,133.998066,229.710970,-9418.149754
2760.103017,19.142581,153.140646,-9418.149754
2760.103645,133.998066,153.140646,-9418.149754
2760.104273,38.285162,114.855485,-9418.149754
2760.104901,76.570323,133.998066,-9360.722011
2760.105529,114.855485,114.855485,-9379.864592
2760.106157,57.427742,95.712904,-9399.007173
2760.106785,133.998066,133.998066,-9399.007173
2760.107412,76.570323,172.283227,-9437.292334
2760.108040,133.998066,114.855485,-9418.149754
2760.108668,133.998066,114.855485,-9418.149754
2760.109296,38.285162,210.568389,-9418.149754
2760.109924,95.712904,133.998066,-9360.722011
2760.110552,153.140646,191.425808,-9399.007173
2760.111180,76.570323,114.855485,-9418.149754
2760.111808,114.855485,95.712904,-9399.007173
2760.112436,133.998066,172.283227,-9379.864592
2760.113064,153.140646,133.998066,-9399.007173
2760.113692,76.570323,114.855485,-9418.149754
2760.114320,76.570323,114.855485,-9418.149754
2760.114948,95.712904,191.425808,-9418.149754
2760.115576,76.570323,114.855485,-9418.149754
2760.116204,38.285162,114.855485,-9437.292334
2760.116832,76.570323,114.855485,-9418.149754
2760.117460,76.570323,114.855485,-9418.149754
2760.118087,133.998066,114.855485,-9418.149754
2760.118715,57.427742,95.712904,-9399.007173
2760.119343,133.998066,114.855485,-9456.434915
2760.119970,76.570323,172.283227,-9418.149754
2760.120597,38.285162,153.140646,-9418.149754
2760.121224,153.140646,133.998066,-9399.007173
2760.121851,133.998066,172.283227,-9418.149754
2760.122478,153.140646,133.998066,-9399.007173
2760.123105,133.998066,114.855485,-9418.149754
2760.123732,133.998066,153.140646,-9418.149754
2760.124359,76.570323,114.855485,-9418.149754
2760.124987,95.712904,153.140646,-9418.149754
2760.125614,38.285162,172.283227,-9418.149754
2760.126241,95.712904,114.855485,-9418.149754
2760.126868,76.570323,114.855485,-9418.149754
2760.127495,114.855485,172.283227,-9360.722011
2760.128122,153.140646,133.998066,-9399.007173
2760.128749,133.998066,114.855485,-9418.149754
2760.129376,133.998066,76.570323,-9379.864592
2760.130004,133.998066,191.425808,-9399.007173
2760.130631,76.570323,114.855485,-9456.434915
2760.131258,133.998066,172.283227,-9418.149754
2760.131885,95.712904,95.712904,-9399.007173
2760.132512,57.427742,172.283227,-9418.149754
2760.133139,95.712904,133.998066,-9360.722011
2760.133766,133.998066,172.283227,-9437.292334
2760.134393,76.570323,210.568389,-9456.434915
2760.135021,38.285162,114.855485,-9418.149754
2760.135648,133.998066,114.855485,-9360.722011
2760.136275,153.140646,95.712904,-9360.722011
2760.136902,95.712904,153.140646,-9418.149754
2760.137529,76.570323,114.855485,-9418.149754
2760.138156,133.998066,114.855485,-9418.149754
2760.138783,133.998066,114.855485,-9437.292334
2760.139410,114.855485,172.283227,-9360.722011
2760.140038,38.285162,114.855485,-9418.149754
2760.140665,38.285162,114.855485,-9418.149754
2760.141292,76.570323,114.855485,-9437.292334
2760.141919,114.855485,210.568389,-9360.722011
2760.142546,76.570323,153.140646,-9418.149754
2760.143173,38.285162,114.855485,-9418.149754
2760.143800,76.570323,114.855485,-9360.722011
2760.144427,38.285162,114.855485,-9418.149754
2760.145054,76.570323,153.140646,-9437.292334
2760.145682,76.570323,153.140646,-9418.149754
2760.146309,0.000000,172.283227,-9360.722011
2760.146936,76.570323,133.998066,-9360.722011
2760.147563,114.855485,114.855485,-9379.864592
2760.148190,76.570323,114.855485,-9418.149754
2760.148817,76.570323,114.855485,-9360.722011
2760.149444,76.570323,114.855485,-9418.149754
2760.150071,76.570323,95.712904,-9399.007173
2760.150699,57.427742,95.712904,-9456.434915
2760.151326,133.998066,172.283227,-9418.149754
2760.151953,57.427742,153.140646,-9360.722011
2760.152580,133.998066,114.855485,-9418.149754
2760.153207,76.570323,114.855485,-9418.149754
2760.153834,76.570323,114.855485,-9418.149754
2760.154461,38.285162,172.283227,-9475.577496
2760.155088,133.998066,210.568389,-9456.434915
2760.155716,76.570323,210.568389,-9418.149754
2760.156343,76.570323,114.855485,-9418.149754
2760.156970,153.140646,133.998066,-9399.007173
2760.157597,76.570323,114.855485,-9418.149754
2760.158224,95.712904,114.855485,-9418.149754
2760.158851,95.712904,133.998066,-9360.722011
2760.159478,95.712904,191.425808,-9418.149754
2760.160105,38.285162,114.855485,-9418.149754
2760.160733,114.855485,172.283227,-9360.722011
2760.161360,114.855485,133.998066,-9360.722011
2760.161987,95.712904,133.998066,-9360.722011
2760.162614,114.855485,133.998066,-9418.149754
2760.163241,38.285162,95.712904,-9399.007173
2760.163868,76.570323,114.855485,-9456.434915
2760.164495,114.855485,153.140646,-9360.722011
2760.165122,95.712904,133.998066,-9360.722011
2760.165750,114.855485,95.712904,-9399.007173
2760.166377,133.998066,133.998066,-9399.007173
2760.167004,95.712904,95.712904,-9456.434915
2760.167631,76.570323,114.855485,-9437.292334
2760.168258,95.712904,153.140646,-9360.722011
2760.168885,172.283227,114.855485,-9379.864592
2760.169512,57.427742,133.998066,-9360.722011
2760.170139,95.712904,153.140646,-9360.722011
2760.170766,76.570323,114.855485,-9418.149754
2760.171394,95.712904,133.998066,-9360.722011
2760.172021,0.000000,133.998066,-9360.722011
2760.172648,57.427742,172.283227,-9360.722011
2760.173275,114.855485,133.998066,-9360.722011
2760.173902,114.855485,95.712904,-9437.292334
2760.174529,133.998066,114.855485,-9437.292334
2760.175156,133.998066,114.855485,-9418.149754
2760.175783,76.570323,172.283227,-9456.434915
2760.176411,76.570323,153.140646,-9418.149754
2760.177038,133.998066,153.140646,-9418.149754
2760.177665,95.712904,172.283227,-9437.292334
2760.178292,76.570323,114.855485,-9418.149754
2760.178919,57.427742,191.425808,-9360.722011
2760.179546,57.427742,95.712904,-9399.007173
2760.180173,114.855485,172.283227,-9360.722011
2760.180800,133.998066,114.855485,-9418.149754
2760.181428,76.570323,172.283227,-9418.149754
2760.182055,76.570323,114.855485,-9456.434915
2760.182682,95.712904,133.998066,-9360.722011
2760.183309,114.855485,133.998066,-9418.149754
2760.183936,95.712904,133.998066,-9360.722011
2760.184563,38.285162,153.140646,-9418.149754
2760.185190,76.570323,153.140646,-9418.149754
2760.185817,57.427742,172.283227,-9360.722011
2760.186445,76.570323,114.855485,-9418.149754
2760.187072,95.712904,153.140646,-9418.149754
2760.187699,57.427742,153.140646,-9360.722011
2760.188326,76.570323,172.283227,-9418.149754
2760.188953,76.570323,153.140646,-9418.149754
2760.189580,133.998066,172.283227,-9418.149754
2760.190207,133.998066,114.855485,-9360.722011
2760.190834,76.570323,114.855485,-9418.149754
2760.191461,38.285162,95.712904,-9456.434915
2760.192089,133.998066,114.855485,-9418.149754
2760.192716,76.570323,210.568389,-9418.149754
2760.193343,133.998066,114.855485,-9418.149754
2760.193970,114.855485,133.998066,-9360.722011
2760.194597,76.570323,114.855485,-9418.149754
2760.195224,76.570323,172.283227,-9360.722011
2760.195851,38.285162,153.140646,-9418.149754
2760.196478,95.712904,133.998066,-9360.722011
2760.197106,57.427742,229.710970,-9418.149754
2760.197733,133.998066,114.855485,-9418.149754
2760.198360,38.285162,153.140646,-9418.149754
2760.198987,38.285162,114.855485,-9418.149754
2760.199614,38.285162,114.855485,-9418.149754
2760.200241,114.855485,133.998066,-9360.722011
2760.200868,57.427742,95.712904,-9399.007173
2760.201495,133.998066,114.855485,-9418.149754
2760.202123,153.140646,133.998066,-9399.007173
2760.202750,76.570323,153.140646,-9418.149754
2760.203377,133.998066,172.283227,-9418.149754
2760.204004,133.998066,114.855485,-9475.577496
2760.204631,76.570323,114.855485,-9418.149754
2760.205258,95.712904,153.140646,-9418.149754
2760.205885,76.570323,153.140646,-9418.149754
2760.206512,38.285162,114.855485,-9418.149754
2760.207140,38.285162,114.855485,-9418.149754
2760.207767,76.570323,114.855485,-9418.149754
2760.208394,38.285162,172.283227,-9418.149754
2760.209021,114.855485,172.283227,-9379.864592
2760.209648,38.285162,114.855485,-9418.149754
2760.210275,95.712904,153.140646,-9418.149754
2760.210902,95.712904,95.712904,-9399.007173
2760.211529,95.712904,133.998066,-9360.722011
2760.212157,57.427742,133.998066,-9418.149754
2760.212784,76.570323,114.855485,-9418.149754
2760.213411,38.285162,114.855485,-9418.149754
2760.214038,95.712904,172.283227,-9360.722011
2760.214665,76.570323,172.283227,-9418.149754
2760.215292,76.570323,172.283227,-9456.434915
2760.215919,76.570323,114.855485,-9418.149754
2760.216546,95.712904,95.712904,-9379.864592
2760.217173,133.998066,172.283227,-9399.007173
2760.217801,76.570323,172.283227,-9418.149754
2760.218428,133.998066,114.855485,-9418.149754
2760.219055,133.998066,133.998066,-9399.007173
2760.219682,95.712904,114.855485,-9418.149754
2760.220310,57.427742,133.998066,-9360.722011
2760.220937,76.570323,76.570323,-9379.864592
2760.221565,76.570323,114.855485,-9418.149754
2760.222192,133.998066,114.855485,-9418.149754
2760.222820,133.998066,114.855485,-9418.149754
2760.223447,76.570323,114.855485,-9418.149754
2760.224075,76.570323,153.140646,-9418.149754
2760.224702,38.285162,114.855485,-9437.292334
2760.225330,95.712904,153.140646,-9418.149754
2760.225957,133.998066,191.425808,-9399.007173
2760.226584,38.285162,153.140646,-9418.149754
2760.227212,38.285162,114.855485,-9418.149754
2760.227839,76.570323,172.283227,-9360.722011
2760.228467,76.570323,114.855485,-9418.149754
2760.229094,95.712904,95.712904,-9399.007173
2760.229722,76.570323,153.140646,-9418.149754
2760.230349,114.855485,153.140646,-9360.722011
2760.230977,114.855485,172.283227,-9322.436850
2760.231604,76.570323,114.855485,-9418.149754
2760.232232,76.570323,114.855485,-9418.149754
2760.232859,133.998066,172.283227,-9399.007173
2760.233487,38.285162,153.140646,-9418.149754
2760.234114,114.855485,133.998066,-9341.579430
2760.234741,19.142581,172.283227,-9418.149754
2760.235369,133.998066,153.140646,-9418.149754
2760.235996,19.142581,172.283227,-9437.292334
2760.236624,38.285162,153.140646,-9418.149754
2760.237251,76.570323,114.855485,-9418.149754
2760.237879,76.570323,210.568389,-9418.149754
2760.238506,38.285162,210.568389,-9418.149754
2760.239134,76.570323,76.570323,-9379.864592
2760.239761,153.140646,172.283227,-9399.007173
2760.240389,76.570323,114.855485,-9418.149754
2760.241016,133.998066,172.283227,-9418.149754
2760.241644,76.570323,153.140646,-9418.149754
2760.242271,38.285162,153.140646,-9418.149754
2760.242899,133.998066,133.998066,-9399.007173
2760.243526,133.998066,248.853550,-9399.007173
2760.244153,133.998066,172.283227,-9399.007173
2760.244781,133.998066,114.855485,-9418.149754
2760.245408,133.998066,210.568389,-9418.149754
2760.246036,133.998066,114.855485,-9360.722011
2760.246663,172.283227,114.855485,-9379.864592
2760.247291,95.712904,95.712904,-9399.007173
2760.247918,133.998066,153.140646,-9418.149754
2760.248546,114.855485,153.140646,-9360.722011
2760.249173,114.855485,153.140646,-9360.722011
2760.249801,95.712904,191.425808,-9360.722011
2760.250428,76.570323,114.855485,-9418.149754
2760.251056,133.998066,76.570323,-9379.864592
2760.251683,76.570323,76.570323,-9379.864592
2760.252311,95.712904,133.998066,-9360.722011
2760.252938,114.855485,114.855485,-9379.864592
2760.253565,76.570323,114.855485,-9418.149754
2760.254193,133.998066,76.570323,-9379.864592
2760.254820,95.712904,191.425808,-9360.722011
2760.255448,76.570323,191.425808,-9360.722011
2760.256075,95.712904,210.568389,-9360.722011
2760.256703,133.998066,114.855485,-9418.149754
2760.257330,76.570323,172.283227,-9456.434915
2760.257958,133.998066,153.140646,-9418.149754
2760.258585,153.140646,153.140646,-9418.149754
2760.259213,210.568389,133.998066,-9399.007173
2760.259840,133.998066,114.855485,-9418.149754
2760.260468,38.285162,114.855485,-9418.149754
2760.261095,95.712904,172.283227,-9418.149754
2760.261723,172.283227,114.855485,-9379.864592
2760.262350,153.140646,172.283227,-9456.434915
2760.262977,114.855485,172.283227,-9360.722011
2760.263605,76.570323,114.855485,-9418.149754
2760.264232,57.427742,172.283227,-9418.149754
2760.264860,95.712904,172.283227,-9418.149754
2760.265487,76.570323,172.283227,-9418.149754
2760.266115,95.712904,95.712904,-9399.007173
2760.266742,95.712904,76.570323,-9379.864592
2760.267370,95.712904,114.855485,-9437.292334
2760.267997,76.570323,172.283227,-9418.149754
2760.268625,95.712904,114.855485,-9418.149754
2760.269252,76.570323,114.855485,-9437.292334
2760.269880,133.998066,153.140646,-9437.292334
2760.270507,95.712904,172.283227,-9437.292334
2760.271135,133.998066,172.283227,-9418.149754
2760.271762,76.570323,114.855485,-9418.149754
2760.272389,95.712904,133.998066,-9360.722011
2760.273017,38.285162,172.283227,-9418.149754
2760.273644,76.570323,153.140646,-9418.149754
2760.274272,76.570323,114.855485,-9418.149754
2760.274899,133.998066,114.855485,-9418.149754
2760.275527,114.855485,133.998066,-9341.579430
2760.276154,114.855485,153.140646,-9360.722011
2760.276782,95.712904,172.283227,-9360.722011
2760.277409,133.998066,172.283227,-9437.292334
2760.278037,38.285162,114.855485,-9418.149754
2760.278664,76.570323,114.855485,-9418.149754
2760.279292,95.712904,114.855485,-9456.434915
2760.279919,95.712904,172.283227,-9360.722011
2760.280546,133.998066,114.855485,-9418.149754
2760.281174,133.998066,133.998066,-9399.007173
2760.281801,76.570323,191.425808,-9437.292334
2760.282429,19.142581,114.855485,-9418.149754
2760.283056,38.285162,114.855485,-9360.722011
2760.283684,133.998066,172.283227,-9418.149754
2760.284311,114.855485,95.712904,-9399.007173
2760.284939,114.855485,133.998066,-9360.722011
2760.285566,76.570323,114.855485,-9360.722011
2760.286194,133.998066,133.998066,-9399.007173
2760.286821,114.855485,133.998066,-9360.722011
2760.287449,133.998066,114.855485,-9418.149754
2760.288076,133.998066,172.283227,-9418.149754
2760.288704,76.570323,114.855485,-9418.149754
2760.289331,76.570323,114.855485,-9456.434915
2760.289958,114.855485,153.140646,-9379.864592
2760.290586,76.570323,114.855485,-9418.149754
2760.291213,95.712904,114.855485,-9418.149754
2760.291841,76.570323,153.140646,-9418.149754
2760.292468,38.285162,153.140646,-9418.149754
2760.293096,133.998066,114.855485,-9418.149754
2760.293723,114.855485,153.140646,-9360.722011
2760.294351,133.998066,114.855485,-9418.149754
2760.294978,95.712904,114.855485,-9437.292334
2760.295606,76.570323,114.855485,-9456.434915
2760.296233,133.998066,114.855485,-9418.149754
2760.296861,95.712904,133.998066,-9360.722011
2760.297488,76.570323,114.855485,-9418.149754
2760.298116,133.998066,76.570323,-9379.864592
2760.298743,76.570323,114.855485,-9437.292334
2760.299370,114.855485,153.140646,-9360.722011
2760.299998,133.998066,114.855485,-9418.149754
2760.300625,153.140646,153.140646,-9494.720077
2760.301253,172.283227,76.570323,-9418.149754
2760.301880,133.998066,114.855485,-9437.292334
2760.302508,114.855485,95.712904,-9399.007173
2760.303135,133.998066,172.283227,-9437.292334
2760.303763,76.570323,172.283227,-9360.722011
2760.304390,38.285162,114.855485,-9418.149754
2760.305018,76.570323,210.568389,-9418.149754
2760.305645,38.285162,191.425808,-9418.149754
2760.306273,114.855485,153.140646,-9360.722011
2760.306900,76.570323,114.855485,-9418.149754
2760.307528,133.998066,114.855485,-9418.149754
2760.308155,133.998066,114.855485,-9418.149754
2760.308782,76.570323,114.855485,-9437.292334
2760.309410,133.998066,172.283227,-9418.149754
2760.310037,57.427742,114.855485,-9418.149754
2760.310665,76.570323,114.855485,-9418.149754
2760.311292,114.855485,95.712904,-9399.007173
2760.311920,153.140646,133.998066,-9399.007173
2760.312547,153.140646,133.998066,-9399.007173
2760.313175,153.140646,133.998066,-9399.007173
2760.313802,76.570323,153.140646,-9418.149754
2760.314430,95.712904,133.998066,-9360.722011
2760.315057,133.998066,172.283227,-9418.149754
2760.315685,76.570323,114.855485,-9418.149754
2760.316312,76.570323,114.855485,-9418.149754
2760.316939,133.998066,114.855485,-9418.149754
2760.317567,76.570323,133.998066,-9360.722011
2760.318194,210.568389,133.998066,-9399.007173
2760.318822,114.855485,114.855485,-9379.864592
2760.319449,153.140646,133.998066,-9399.007173
2760.320077,133.998066,153.140646,-9418.149754
2760.320704,114.855485,95.712904,-9399.007173
2760.321331,38.285162,114.855485,-9418.149754
2760.321958,76.570323,114.855485,-9418.149754
2760.322586,76.570323,114.855485,-9418.149754
2760.323213,76.570323,210.568389,-9418.149754
2760.323840,95.712904,95.712904,-9399.007173
2760.324467,133.998066,114.855485,-9418.149754
2760.325094,57.427742,172.283227,-9475.577496
2760.325722,133.998066,114.855485,-9418.149754
2760.326349,19.142581,172.283227,-9456.434915
2760.326976,76.570323,153.140646,-9418.149754
2760.327603,0.000000,133.998066,-9360.722011
2760.328231,114.855485,153.140646,-9360.722011
2760.328858,38.285162,210.568389,-9418.149754
2760.329485,133.998066,210.568389,-9418.149754
2760.330112,133.998066,172.283227,-9418.149754
2760.330739,57.427742,153.140646,-9360.722011
2760.331367,133.998066,153.140646,-9418.149754
2760.331994,76.570323,95.712904,-9399.007173
2760.332621,95.712904,172.283227,-9360.722011
2760.333248,172.283227,95.712904,-9379.864592
2760.333876,153.140646,172.283227,-9399.007173
2760.334503,133.998066,172.283227,-9399.007173
2760.335130,153.140646,133.998066,-9399.007173
2760.335757,133.998066,114.855485,-9456.434915
2760.336385,95.712904,133.998066,-9360.722011
2760.337012,38.285162,95.712904,-9399.007173
2760.337639,76.570323,210.568389,-9341.579430
2760.338266,133.998066,95.712904,-9360.722011
2760.338893,76.570323,114.855485,-9437.292334
2760.339521,76.570323,133.998066,-9360.722011
2760.340148,133.998066,114.855485,-9437.292334
2760.340775,76.570323,210.568389,-9418.149754
2760.341402,133.998066,114.855485,-9418.149754
2760.342030,95.712904,191.425808,-9360.722011
2760.342657,76.570323,114.855485,-9418.149754
2760.343284,76.570323,172.283227,-9418.149754
2760.343911,95.712904,133.998066,-9360.722011
2760.344539,76.570323,114.855485,-9418.149754
2760.345166,95.712904,153.140646,-9360.722011
2760.345793,76.570323,172.283227,-9360.722011
2760.346420,114.855485,153.140646,-9360.722011
2760.347047,38.285162,191.425808,-9379.864592
2760.347675,38.285162,114.855485,-9418.149754
2760.348302,133.998066,114.855485,-9437.292334
2760.348929,38.285162,76.570323,-9379.864592
2760.349556,95.712904,133.998066,-9360.722011
2760.350184,95.712904,210.568389,-9418.149754
2760.350811,95.712904,172.283227,-9360.722011
2760.351438,76.570323,210.568389,-9418.149754
2760.352065,95.712904,114.855485,-9456.434915
2760.352693,76.570323,114.855485,-9418.149754
2760.353320,76.570323,153.140646,-9418.149754
2760.353947,95.712904,95.712904,-9399.007173
2760.354574,153.140646,133.998066,-9399.007173
2760.355201,133.998066,114.855485,-9418.149754
2760.355829,133.998066,114.855485,-9418.149754
2760.356456,76.570323,114.855485,-9418.149754
2760.357083,153.140646,153.140646,-9437.292334
2760.357710,133.998066,114.855485,-9418.149754
2760.358338,133.998066,172.283227,-9418.149754
2760.358965,95.712904,133.998066,-9360.722011
2760.359592,133.998066,114.855485,-9418.149754
2760.360219,133.998066,114.855485,-9418.149754
2760.360847,133.998066,133.998066,-9475.577496
2760.361474,133.998066,133.998066,-9399.007173
2760.362101,76.570323,114.855485,-9418.149754
2760.362728,133.998066,172.283227,-9437.292334
2760.363355,133.998066,114.855485,-9418.149754
2760.363983,114.855485,114.855485,-9399.007173
2760.364610,114.855485,133.998066,-9360.722011
2760.365237,114.855485,153.140646,-9360.722011
2760.365864,153.140646,172.283227,-9399.007173
2760.366492,133.998066,172.283227,-9418.149754
2760.367119,153.140646,114.855485,-9418.149754
2760.367746,153.140646,133.998066,-9399.007173
2760.368373,76.570323,153.140646,-9360.722011
2760.369001,76.570323,114.855485,-9418.149754
2760.369628,133.998066,114.855485,-9418.149754
2760.370255,133.998066,153.140646,-9399.007173
2760.370882,76.570323,172.283227,-9360.722011
2760.371509,95.712904,191.425808,-9360.722011
2760.372137,76.570323,114.855485,-9418.149754
2760.372764,133.998066,172.283227,-9418.149754
2760.373391,76.570323,114.855485,-9418.149754
2760.374018,114.855485,210.568389,-9360.722011
2760.374646,95.712904,172.283227,-9418.149754
2760.375273,57.427742,172.283227,-9360.722011
2760.375900,133.998066,172.283227,-9456.434915
2760.376527,38.285162,172.283227,-9418.149754
2760.377154,76.570323,133.998066,-9360.722011
2760.377782,38.285162,114.855485,-9418.149754
2760.378409,133.998066,114.855485,-9418.149754
2760.379036,114.855485,95.712904,-9437.292334
2760.379663,76.570323,114.855485,-9418.149754
2760.380291,76.570323,172.283227,-9418.149754
2760.380918,57.427742,114.855485,-9418.149754
2760.381545,76.570323,114.855485,-9418.149754
2760.382172,95.712904,153.140646,-9360.722011
2760.382800,76.570323,114.855485,-9418.149754
2760.383427,133.998066,153.140646,-9360.722011
2760.384054,76.570323,114.855485,-9418.149754
2760.384681,133.998066,114.855485,-9418.149754
2760.385308,76.570323,114.855485,-9418.149754
2760.385936,76.570323,210.568389,-9437.292334
2760.386563,76.570323,210.568389,-9418.149754
2760.387190,172.283227,114.855485,-9379.864592
2760.387817,95.712904,133.998066,-9360.722011
2760.388445,114.855485,76.570323,-9437.292334
2760.389072,38.285162,172.283227,-9418.149754
2760.389699,76.570323,172.283227,-9418.149754
2760.390326,95.712904,114.855485,-9418.149754
2760.390954,76.570323,191.425808,-9418.149754
2760.391581,114.855485,133.998066,-9360.722011
2760.392208,76.570323,210.568389,-9418.149754
2760.392835,76.570323,153.140646,-9475.577496
2760.393462,57.427742,95.712904,-9399.007173
2760.394090,133.998066,133.998066,-9437.292334
2760.394717,114.855485,95.712904,-9399.007173
2760.395344,76.570323,76.570323,-9379.864592
2760.395971,38.285162,114.855485,-9418.149754
2760.396599,95.712904,172.283227,-9418.149754
2760.397226,153.140646,153.140646,-9418.149754
2760.397853,133.998066,210.568389,-9418.149754
2760.398480,114.855485,133.998066,-9360.722011
2760.399108,95.712904,172.283227,-9418.149754
2760.399735,133.998066,114.855485,-9418.149754
2760.400362,153.140646,191.425808,-9456.434915
2760.400989,153.140646,114.855485,-9418.149754
2760.401616,76.570323,153.140646,-9475.577496
2760.402244,114.855485,172.283227,-9360.722011
2760.402871,153.140646,133.998066,-9399.007173
2760.403498,95.712904,172.283227,-9418.149754
2760.404125,133.998066,114.855485,-9418.149754
2760.404753,172.283227,76.570323,-9418.149754
2760.405380,133.998066,153.140646,-9437.292334
2760.406007,133.998066,133.998066,-9379.864592
2760.406634,95.712904,172.283227,-9360.722011
2760.407262,133.998066,153.140646,-9418.149754
2760.407889,133.998066,114.855485,-9475.577496
2760.408516,114.855485,172.283227,-9360.722011
2760.409143,153.140646,133.998066,-9399.007173
2760.409770,114.855485,95.712904,-9399.007173
2760.410398,76.570323,114.855485,-9418.149754
2760.411025,76.570323,153.140646,-9418.149754
2760.411652,114.855485,76.570323,-9437.292334
2760.412279,57.427742,95.712904,-9399.007173
2760.412907,133.998066,76.570323,-9379.864592
2760.413534,76.570323,114.855485,-9360.722011
2760.414161,133.998066,114.855485,-9418.149754
2760.414788,153.140646,133.998066,-9399.007173
2760.415416,76.570323,114.855485,-9360.722011
2760.416043,57.427742,133.998066,-9341.579430
2760.416670,76.570323,153.140646,-9418.149754
2760.417297,76.570323,133.998066,-9341.579430
2760.417924,95.712904,133.998066,-9360.722011
2760.418552,76.570323,172.283227,-9418.149754
2760.419179,76.570323,114.855485,-9456.434915
2760.419806,38.285162,153.140646,-9456.434915
2760.420433,133.998066,172.283227,-9360.722011
2760.421061,133.998066,114.855485,-9437.292334
2760.421688,76.570323,114.855485,-9456.434915
2760.422315,76.570323,172.283227,-9418.149754
2760.422942,76.570323,153.140646,-9418.149754
2760.423570,133.998066,114.855485,-9418.149754
2760.424197,95.712904,172.283227,-9360.722011
2760.424824,38.285162,114.855485,-9418.149754
2760.425451,153.140646,133.998066,-9399.007173
2760.426078,114.855485,133.998066,-9418.149754
2760.426706,95.712904,133.998066,-9360.722011
2760.427333,114.855485,95.712904,-9379.864592
2760.427960,133.998066,133.998066,-9399.007173
2760.428587,76.570323,76.570323,-9379.864592
2760.429215,76.570323,172.283227,-9418.149754
2760.429842,114.855485,114.855485,-9322.436850
2760.430469,133.998066,133.998066,-9399.007173
2760.431096,76.570323,153.140646,-9456.434915
2760.431724,57.427742,133.998066,-9418.149754
2760.432351,95.712904,114.855485,-9418.149754
2760.432978,114.855485,229.710970,-9399.007173
2760.433605,76.570323,210.568389,-9418.149754
2760.434233,114.855485,133.998066,-9360.722011
2760.434860,76.570323,114.855485,-9437.292334
2760.435487,133.998066,153.140646,-9418.149754
2760.436114,57.427742,133.998066,-9360.722011
2760.436742,133.998066,153.140646,-9418.149754
2760.437369,133.998066,76.570323,-9379.864592
2760.437996,76.570323,153.140646,-9437.292334
2760.438623,133.998066,114.855485,-9456.434915
2760.439251,76.570323,133.998066,-9360.722011
2760.439878,133.998066,153.140646,-9418.149754
2760.440505,153.140646,133.998066,-9399.007173
2760.441132,95.712904,133.998066,-9360.722011
2760.441760,57.427742,95.712904,-9456.434915
2760.442387,76.570323,114.855485,-9418.149754
2760.443014,95.712904,133.998066,-9360.722011
2760.443641,153.140646,114.855485,-9360.722011
2760.444269,133.998066,76.570323,-9379.864592
2760.444896,133.998066,114.855485,-9360.722011
2760.445523,153.140646,210.568389,-9399.007173
2760.446150,38.285162,210.568389,-9437.292334
2760.446778,76.570323,114.855485,-9418.149754
2760.447405,133.998066,114.855485,-9418.149754
2760.448032,95.712904,114.855485,-9418.149754
2760.448659,76.570323,172.283227,-9360.722011
2760.449287,57.427742,133.998066,-9360.722011
2760.449914,133.998066,153.140646,-9418.149754
2760.450541,76.570323,153.140646,-9418.149754
2760.451168,76.570323,114.855485,-9418.149754
2760.451796,38.285162,133.998066,-9360.722011
2760.452423,133.998066,114.855485,-9418.149754
2760.453050,95.712904,172.283227,-9418.149754
2760.453677,76.570323,114.855485,-9418.149754
2760.454305,76.570323,95.712904,-9399.007173
2760.454932,153.140646,133.998066,-9399.007173
2760.455559,133.998066,95.712904,-9360.722011
2760.456186,76.570323,114.855485,-9437.292334
2760.456814,133.998066,114.855485,-9418.149754
2760.457441,57.427742,95.712904,-9399.007173
2760.458068,133.998066,114.855485,-9418.149754
2760.458695,57.427742,133.998066,-9341.579430
2760.459323,114.855485,133.998066,-9360.722011
2760.459950,133.998066,153.140646,-9418.149754
2760.460577,133.998066,114.855485,-9418.149754
2760.461204,76.570323,114.855485,-9418.149754
2760.461832,95.712904,172.283227,-9360.722011
2760.462459,133.998066,76.570323,-9379.864592
2760.463086,38.285162,76.570323,-9379.864592
2760.463713,133.998066,114.855485,-9418.149754
2760.464341,133.998066,114.855485,-9418.149754
2760.464968,38.285162,114.855485,-9418.149754
2760.465595,76.570323,114.855485,-9418.149754
2760.466222,95.712904,76.570323,-9379.864592
2760.466850,38.285162,114.855485,-9360.722011
2760.467477,76.570323,172.283227,-9418.149754
2760.468104,76.570323,153.140646,-9341.579430
2760.468731,95.712904,133.998066,-9360.722011
2760.469359,133.998066,153.140646,-9418.149754
2760.469986,19.142581,172.283227,-9418.149754
2760.470613,133.998066,133.998066,-9399.007173
2760.471240,133.998066,114.855485,-9418.149754
2760.471868,76.570323,172.283227,-9418.149754
2760.472495,114.855485,172.283227,-9418.149754
2760.473122,153.140646,133.998066,-9399.007173
2760.473749,95.712904,133.998066,-9341.579430
2760.474377,76.570323,114.855485,-9418.149754
2760.475004,133.998066,114.855485,-9360.722011
2760.475631,114.855485,153.140646,-9360.722011
2760.476258,0.000000,95.712904,-9399.007173
2760.476886,133.998066,114.855485,-9418.149754
2760.477513,38.285162,114.855485,-9418.149754
2760.478140,95.712904,133.998066,-9360.722011
2760.478767,76.570323,114.855485,-9418.149754
2760.479395,76.570323,133.998066,-9360.722011
2760.480022,114.855485,133.998066,-9360.722011
2760.480649,38.285162,114.855485,-9418.149754
2760.481276,76.570323,191.425808,-9360.722011
2760.481904,95.712904,153.140646,-9360.722011
2760.482531,95.712904,133.998066,-9418.149754
2760.483158,76.570323,114.855485,-9437.292334
2760.483785,38.285162,114.855485,-9418.149754
2760.484413,38.285162,172.283227,-9437.292334
2760.485040,38.285162,114.855485,-9418.149754
2760.485667,57.427742,172.283227,-9360.722011
2760.486294,114.855485,153.140646,-9360.722011
2760.486922,76.570323,210.568389,-9418.149754
2760.487549,76.570323,114.855485,-9418.149754
2760.488176,76.570323,114.855485,-9418.149754
2760.488803,57.427742,133.998066,-9360.722011
2760.489431,76.570323,114.855485,-9456.434915
2760.490058,38.285162,114.855485,-9437.292334
2760.490685,133.998066,172.283227,-9418.149754
2760.491312,95.712904,95.712904,-9399.007173
2760.491940,95.712904,133.998066,-9360.722011
2760.492567,95.712904,172.283227,-9360.722011
2760.493194,95.712904,133.998066,-9360.722011
2760.493821,153.140646,133.998066,-9399.007173
2760.494449,76.570323,172.283227,-9437.292334
2760.495076,114.855485,114.855485,-9399.007173
2760.495703,95.712904,114.855485,-9418.149754
2760.496330,76.570323,114.855485,-9418.149754
2760.496958,133.998066,76.570323,-9379.864592
2760.497585,57.427742,133.998066,-9341.579430
2760.498212,114.855485,133.998066,-9360.722011
2760.498839,133.998066,114.855485,-9418.149754
2760.499467,95.712904,95.712904,-9399.007173
2760.500094,95.712904,114.855485,-9475.577496
2760.500721,76.570323,114.855485,-9437.292334
2760.501348,76.570323,114.855485,-9418.149754
2760.501976,133.998066,114.855485,-9418.149754
2760.502603,114.855485,153.140646,-9360.722011
2760.503230,57.427742,153.140646,-9360.722011
2760.503857,133.998066,172.283227,-9399.007173
2760.504485,76.570323,133.998066,-9360.722011
2760.505112,114.855485,114.855485,-9399.007173
2760.505739,76.570323,114.855485,-9418.149754
2760.506366,114.855485,133.998066,-9360.722011
2760.506994,95.712904,114.855485,-9456.434915
2760.507621,114.855485,153.140646,-9360.722011
2760.508248,76.570323,153.140646,-9437.292334
2760.508875,133.998066,210.568389,-9418.149754
2760.509503,153.140646,133.998066,-9399.007173
2760.510130,76.570323,76.570323,-9379.864592
2760.510757,76.570323,153.140646,-9360.722011
2760.511384,114.855485,95.712904,-9399.007173
2760.512012,95.712904,114.855485,-9418.149754
2760.512639,114.855485,95.712904,-9399.007173
2760.513266,76.570323,191.425808,-9418.149754
2760.513893,76.570323,172.283227,-9418.149754
2760.514521,95.712904,95.712904,-9437.292334
2760.515148,172.283227,114.855485,-9341.579430
2760.515775,133.998066,114.855485,-9418.149754
2760.516402,76.570323,153.140646,-9360.722011
2760.517030,76.570323,153.140646,-9418.149754
2760.517657,76.570323,153.140646,-9418.149754
2760.518284,133.998066,172.283227,-9418.149754
2760.518911,153.140646,172.283227,-9399.007173
2760.519539,114.855485,114.855485,-9379.864592
2760.520166,153.140646,114.855485,-9360.722011
2760.520793,95.712904,114.855485,-9418.149754
2760.521421,95.712904,114.855485,-9418.149754
2760.522048,57.427742,95.712904,-9437.292334
2760.522676,133.998066,153.140646,-9399.007173
2760.523303,95.712904,133.998066,-9341.579430
2760.523930,57.427742,133.998066,-9303.294269
2760.524558,114.855485,191.425808,-9360.722011
2760.525185,133.998066,114.855485,-9418.149754
2760.525813,172.283227,114.855485,-9379.864592
2760.526440,57.427742,114.855485,-9399.007173
2760.527067,76.570323,210.568389,-9418.149754
2760.527695,133.998066,210.568389,-9418.149754
2760.528322,95.712904,172.283227,-9418.149754
2760.528950,153.140646,133.998066,-9399.007173
2760.529577,133.998066,114.855485,-9418.149754
2760.530205,133.998066,153.140646,-9418.149754
2760.530832,95.712904,172.283227,-9418.149754
2760.531459,114.855485,76.570323,-9418.149754
2760.532087,57.427742,133.998066,-9360.722011
2760.532714,133.998066,172.283227,-9399.007173
2760.533342,114.855485,95.712904,-9399.007173
2760.533969,172.283227,114.855485,-9379.864592
2760.534596,133.998066,153.140646,-9418.149754
2760.535224,76.570323,114.855485,-9418.149754
2760.535851,57.427742,114.855485,-9418.149754
2760.536479,38.285162,153.140646,-9418.149754
2760.537106,38.285162,153.140646,-9418.149754
2760.537734,76.570323,114.855485,-9360.722011
2760.538361,95.712904,95.712904,-9379.864592
2760.538988,76.570323,76.570323,-9379.864592
2760.539616,114.855485,114.855485,-9379.864592
2760.540243,133.998066,133.998066,-9399.007173
2760.540871,133.998066,114.855485,-9418.149754
2760.541498,133.998066,133.998066,-9399.007173
2760.542125,38.285162,153.140646,-9418.149754
2760.542753,76.570323,114.855485,-9437.292334
2760.543380,38.285162,114.855485,-9418.149754
2760.544008,76.570323,114.855485,-9418.149754
2760.544635,38.285162,172.283227,-9418.149754
2760.545262,133.998066,153.140646,-9418.149754
2760.545890,95.712904,172.283227,-9360.722011
2760.546517,76.570323,172.283227,-9418.149754
2760.547145,95.712904,114.855485,-9418.149754
2760.547772,76.570323,153.140646,-9418.149754
2760.548400,133.998066,153.140646,-9418.149754
2760.549027,133.998066,114.855485,-9418.149754
2760.549654,76.570323,114.855485,-9437.292334
2760.550282,76.570323,153.140646,-9418.149754
2760.550909,114.855485,133.998066,-9284.151688
2760.551537,57.427742,133.998066,-9360.722011
2760.552164,38.285162,210.568389,-9418.149754
2760.552791,76.570323,172.283227,-9418.149754
2760.553419,133.998066,153.140646,-9418.149754
2760.554046,133.998066,114.855485,-9360.722011
2760.554674,76.570323,114.855485,-9418.149754
2760.555301,133.998066,114.855485,-9418.149754
2760.555929,76.570323,191.425808,-9418.149754
2760.556556,76.570323,153.140646,-9418.149754
2760.557183,38.285162,76.570323,-9322.436850
2760.557811,95.712904,153.140646,-9418.149754
2760.558438,114.855485,114.855485,-9341.579430
2760.559066,133.998066,114.855485,-9418.149754
2760.559693,133.998066,114.855485,-9418.149754
2760.560320,133.998066,114.855485,-9418.149754
2760.560948,133.998066,114.855485,-9494.720077
2760.561575,133.998066,114.855485,-9418.149754
2760.562203,76.570323,172.283227,-9418.149754
2760.562830,57.427742,153.140646,-9360.722011
2760.563458,76.570323,153.140646,-9418.149754
2760.564085,95.712904,114.855485,-9418.149754
2760.564712,153.140646,133.998066,-9456.434915
2760.565340,95.712904,172.283227,-9418.149754
2760.565967,95.712904,153.140646,-9418.149754
2760.566595,76.570323,114.855485,-9418.149754
2760.567222,38.285162,114.855485,-9418.149754
2760.567849,0.000000,172.283227,-9360.722011
2760.568477,38.285162,114.855485,-9418.149754
2760.569104,95.712904,153.140646,-9341.579430
2760.569732,95.712904,133.998066,-9360.722011
2760.570359,114.855485,133.998066,-9360.722011
2760.570987,133.998066,114.855485,-9418.149754
2760.571614,57.427742,133.998066,-9341.579430
2760.572241,76.570323,114.855485,-9418.149754
2760.572869,38.285162,114.855485,-9418.149754
2760.573496,95.712904,114.855485,-9418.149754
2760.574124,133.998066,172.283227,-9437.292334
2760.574751,133.998066,172.283227,-9456.434915
2760.575378,133.998066,210.568389,-9360.722011
2760.576006,38.285162,153.140646,-9418.149754
2760.576633,133.998066,133.998066,-9456.434915
2760.577261,38.285162,114.855485,-9418.149754
2760.577888,57.427742,153.140646,-9418.149754
2760.578516,76.570323,114.855485,-9418.149754
2760.579143,95.712904,95.712904,-9399.007173
2760.579770,76.570323,114.855485,-9418.149754
2760.580398,153.140646,191.425808,-9437.292334
2760.581025,153.140646,133.998066,-9399.007173
2760.581653,76.570323,153.140646,-9360.722011
2760.582280,95.712904,172.283227,-9456.434915
2760.582907,76.570323,114.855485,-9418.149754
2760.583535,95.712904,153.140646,-9360.722011
2760.584162,38.285162,114.855485,-9341.579430
2760.584790,76.570323,153.140646,-9360.722011
2760.585417,95.712904,114.855485,-9418.149754
2760.586045,114.855485,172.283227,-9360.722011
2760.586672,38.285162,114.855485,-9418.149754
2760.587299,57.427742,172.283227,-9360.722011
2760.587927,38.285162,153.140646,-9341.579430
2760.588554,114.855485,133.998066,-9341.579430
2760.589182,133.998066,114.855485,-9418.149754
2760.589809,133.998066,133.998066,-9399.007173
2760.590436,133.998066,114.855485,-9418.149754
2760.591064,57.427742,133.998066,-9360.722011
2760.591691,114.855485,114.855485,-9379.864592
2760.592319,114.855485,133.998066,-9360.722011
2760.592946,76.570323,114.855485,-9475.577496
2760.593574,57.427742,229.710970,-9437.292334
2760.594201,95.712904,133.998066,-9360.722011
2760.594828,76.570323,133.998066,-9360.722011
2760.595456,95.712904,133.998066,-9418.149754
2760.596083,38.285162,153.140646,-9418.149754
2760.596711,38.285162,95.712904,-9399.007173
2760.597338,38.285162,133.998066,-9360.722011
2760.597965,38.285162,76.570323,-9379.864592
2760.598593,95.712904,133.998066,-9360.722011
2760.599220,133.998066,114.855485,-9437.292334
2760.599848,95.712904,172.283227,-9360.722011
2760.600475,95.712904,114.855485,-9418.149754
2760.601103,57.427742,133.998066,-9360.722011
2760.601730,76.570323,76.570323,-9379.864592
2760.602357,133.998066,114.855485,-9418.149754
2760.602985,133.998066,133.998066,-9399.007173
2760.603612,133.998066,114.855485,-9418.149754
2760.604240,76.570323,153.140646,-9418.149754
2760.604867,95.712904,133.998066,-9341.579430
2760.605494,153.140646,133.998066,-9399.007173
2760.606122,76.570323,76.570323,-9379.864592
2760.606749,38.285162,76.570323,-9379.864592
2760.607377,57.427742,95.712904,-9399.007173
2760.608004,76.570323,114.855485,-9418.149754
2760.608632,95.712904,133.998066,-9360.722011
2760.609259,114.855485,153.140646,-9360.722011
2760.609886,133.998066,172.283227,-9399.007173
2760.610514,38.285162,114.855485,-9418.149754
2760.611141,76.570323,114.855485,-9418.149754
2760.611769,95.712904,114.855485,-9418.149754
2760.612396,76.570323,153.140646,-9418.149754
2760.613023,57.427742,133.998066,-9322.436850
2760.613651,76.570323,76.570323,-9379.864592
2760.614278,76.570323,114.855485,-9456.434915
2760.614906,95.712904,95.712904,-9399.007173
2760.615533,57.427742,133.998066,-9360.722011
2760.616160,114.855485,153.140646,-9360.722011
2760.616788,76.570323,114.855485,-9418.149754
2760.617415,38.285162,114.855485,-9475.577496
2760.618043,133.998066,114.855485,-9418.149754
2760.618670,133.998066,114.855485,-9418.149754
2760.619298,76.570323,172.283227,-9418.149754
2760.619925,95.712904,114.855485,-9418.149754
2760.620552,76.570323,153.140646,-9418.149754
2760.621180,133.998066,248.853550,-9360.722011
2760.621807,95.712904,133.998066,-9360.722011
2760.622435,38.285162,114.855485,-9418.149754
2760.623062,114.855485,95.712904,-9399.007173
2760.623689,76.570323,153.140646,-9418.149754
2760.624317,76.570323,114.855485,-9418.149754
2760.624944,76.570323,114.855485,-9418.149754
2760.625572,95.712904,133.998066,-9360.722011
2760.626199,95.712904,114.855485,-9418.149754
2760.626826,133.998066,172.283227,-9418.149754
2760.627454,76.570323,114.855485,-9418.149754
2760.628081,38.285162,114.855485,-9418.149754
2760.628708,133.998066,114.855485,-9418.149754
2760.629336,133.998066,153.140646,-9360.722011
2760.629963,76.570323,114.855485,-9418.149754
2760.630590,76.570323,114.855485,-9437.292334
2760.631218,133.998066,153.140646,-9360.722011
2760.631845,133.998066,114.855485,-9418.149754
2760.632472,76.570323,114.855485,-9418.149754
2760.633100,133.998066,153.140646,-9418.149754
2760.633727,95.712904,172.283227,-9360.722011
2760.634354,38.285162,76.570323,-9379.864592
2760.634981,133.998066,114.855485,-9418.149754
2760.635609,114.855485,114.855485,-9379.864592
2760.636236,76.570323,172.283227,-9360.722011
2760.636863,95.712904,172.283227,-9418.149754
2760.637491,133.998066,114.855485,-9418.149754
2760.638118,95.712904,95.712904,-9399.007173
2760.638745,95.712904,114.855485,-9437.292334
2760.639373,38.285162,114.855485,-9418.149754
2760.640000,95.712904,133.998066,-9360.722011
2760.640627,95.712904,133.998066,-9360.722011
2760.641255,133.998066,133.998066,-9399.007173
2760.641882,76.570323,133.998066,-9360.722011
2760.642509,95.712904,191.425808,-9418.149754
2760.643137,38.285162,114.855485,-9456.434915
2760.643764,133.998066,114.855485,-9418.149754
2760.644391,153.140646,153.140646,-9494.720077
2760.645019,76.570323,210.568389,-9418.149754
2760.645646,76.570323,172.283227,-9418.149754
2760.646273,76.570323,114.855485,-9418.149754
2760.646901,76.570323,210.568389,-9418.149754
2760.647528,38.285162,114.855485,-9418.149754
2760.648155,76.570323,114.855485,-9418.149754
2760.648782,76.570323,114.855485,-9418.149754
2760.649410,76.570323,114.855485,-9418.149754
2760.650037,172.283227,114.855485,-9399.007173
2760.650664,114.855485,133.998066,-9360.722011
2760.651292,76.570323,172.283227,-9418.149754
2760.651919,57.427742,172.283227,-9418.149754
2760.652546,76.570323,114.855485,-9418.149754
2760.653174,76.570323,172.283227,-9418.149754
2760.653801,76.570323,114.855485,-9418.149754
2760.654428,133.998066,114.855485,-9418.149754
2760.655056,76.570323,191.425808,-9360.722011
2760.655683,133.998066,210.568389,-9418.149754
2760.656310,114.855485,172.283227,-9360.722011
2760.656938,114.855485,95.712904,-9399.007173
2760.657565,114.855485,133.998066,-9341.579430
2760.658192,95.712904,114.855485,-9360.722011
2760.658820,76.570323,114.855485,-9437.292334
2760.659447,133.998066,114.855485,-9418.149754
2760.660074,76.570323,114.855485,-9418.149754
2760.660702,76.570323,114.855485,-9418.149754
2760.661329,172.283227,76.570323,-9418.149754
2760.661956,133.998066,114.855485,-9418.149754
2760.662583,76.570323,172.283227,-9437.292334
2760.663211,76.570323,114.855485,-9418.149754
2760.663838,95.712904,133.998066,-9360.722011
2760.664465,76.570323,172.283227,-9418.149754
2760.665093,76.570323,172.283227,-9418.149754
2760.665720,133.998066,133.998066,-9437.292334
2760.666347,133.998066,172.283227,-9399.007173
2760.666975,114.855485,133.998066,-9360.722011
2760.667602,38.285162,114.855485,-9456.434915
2760.668229,57.427742,114.855485,-9399.007173
2760.668857,38.285162,114.855485,-9418.149754
2760.669484,38.285162,114.855485,-9418.149754
2760.670111,95.712904,153.140646,-9360.722011
2760.670739,114.855485,133.998066,-9360.722011
2760.671366,95.712904,133.998066,-9360.722011
2760.671993,76.570323,172.283227,-9418.149754
2760.672621,76.570323,114.855485,-9418.149754
2760.673248,133.998066,114.855485,-9475.577496
2760.673875,133.998066,114.855485,-9418.149754
2760.674503,95.712904,95.712904,-9399.007173
2760.675130,114.855485,95.712904,-9399.007173
2760.675757,114.855485,95.712904,-9379.864592
2760.676384,76.570323,76.570323,-9379.864592
2760.677012,114.855485,153.140646,-9360.722011
2760.677639,133.998066,153.140646,-9418.149754
2760.678266,76.570323,153.140646,-9360.722011
2760.678894,153.140646,133.998066,-9399.007173
2760.679521,133.998066,114.855485,-9418.149754
2760.680148,133.998066,153.140646,-9399.007173
2760.680776,95.712904,114.855485,-9399.007173
2760.681403,95.712904,95.712904,-9399.007173
2760.682030,76.570323,153.140646,-9418.149754
2760.682658,95.712904,133.998066,-9360.722011
2760.683285,95.712904,153.140646,-9360.722011
2760.683912,38.285162,114.855485,-9360.722011
2760.684540,76.570323,114.855485,-9360.722011
2760.685167,57.427742,95.712904,-9399.007173
2760.685794,133.998066,114.855485,-9418.149754
2760.686422,76.570323,191.425808,-9360.722011
2760.687049,38.285162,153.140646,-9418.149754
2760.687676,133.998066,172.283227,-9399.007173
2760.688303,114.855485,133.998066,-9360.722011
2760.688931,133.998066,133.998066,-9399.007173
2760.689558,57.427742,95.712904,-9399.007173
2760.690185,76.570323,172.283227,-9418.149754
2760.690813,19.142581,210.568389,-9399.007173
2760.691440,114.855485,95.712904,-9399.007173
2760.692067,95.712904,172.283227,-9437.292334
2760.692695,114.855485,191.425808,-9360.722011
2760.693322,133.998066,114.855485,-9437.292334
2760.693949,76.570323,172.283227,-9360.722011
2760.694577,57.427742,133.998066,-9360.722011
2760.695204,38.285162,114.855485,-9456.434915
2760.695831,95.712904,153.140646,-9418.149754
2760.696459,114.855485,95.712904,-9399.007173
2760.697086,95.712904,114.855485,-9360.722011
2760.697713,38.285162,114.855485,-9418.149754
2760.698341,38.285162,114.855485,-9418.149754
2760.698968,76.570323,76.570323,-9379.864592
2760.699595,133.998066,114.855485,-9418.149754
2760.700223,95.712904,133.998066,-9360.722011
2760.700850,76.570323,114.855485,-9360.722011
2760.701477,57.427742,114.855485,-9418.149754
2760.702104,133.998066,172.283227,-9437.292334
2760.702732,0.000000,153.140646,-9360.722011
2760.703359,95.712904,172.283227,-9360.722011
2760.703986,76.570323,153.140646,-9418.149754
2760.704614,38.285162,114.855485,-9418.149754
2760.705241,114.855485,172.283227,-9360.722011
2760.705868,114.855485,210.568389,-9379.864592
2760.706496,95.712904,133.998066,-9341.579430
2760.707123,95.712904,133.998066,-9360.722011
2760.707750,95.712904,133.998066,-9360.722011
2760.708378,76.570323,191.425808,-9418.149754
2760.709005,76.570323,114.855485,-9456.434915
2760.709632,95.712904,191.425808,-9418.149754
2760.710260,38.285162,153.140646,-9418.149754
2760.710887,133.998066,114.855485,-9418.149754
2760.711514,114.855485,114.855485,-9322.436850
2760.712142,114.855485,95.712904,-9399.007173
2760.712769,133.998066,114.855485,-9418.149754
2760.713396,114.855485,133.998066,-9360.722011
2760.714024,114.855485,114.855485,-9399.007173
2760.714651,133.998066,114.855485,-9360.722011
2760.715278,95.712904,248.853550,-9360.722011
2760.715905,172.283227,172.283227,-9379.864592
2760.716533,57.427742,133.998066,-9360.722011
2760.717160,95.712904,95.712904,-9456.434915
2760.717787,114.855485,133.998066,-9360.722011
2760.718415,38.285162,114.855485,-9418.149754
2760.719042,114.855485,172.283227,-9360.722011
2760.719669,95.712904,114.855485,-9475.577496
2760.720297,76.570323,172.283227,-9418.149754
2760.720924,95.712904,133.998066,-9341.579430
2760.721551,76.570323,133.998066,-9360.722011
2760.722179,114.855485,172.283227,-9360.722011
2760.722806,133.998066,153.140646,-9418.149754
2760.723433,76.570323,153.140646,-9418.149754
2760.724061,76.570323,114.855485,-9418.149754
2760.724688,133.998066,133.998066,-9322.436850
2760.725315,76.570323,114.855485,-9418.149754
2760.725943,95.712904,95.712904,-9399.007173
2760.726570,38.285162,114.855485,-9418.149754
2760.727197,153.140646,133.998066,-9399.007173
2760.727824,133.998066,114.855485,-9418.149754
2760.728451,76.570323,153.140646,-9418.149754
2760.729078,95.712904,153.140646,-9418.149754
2760.729705,38.285162,210.568389,-9360.722011
2760.730332,153.140646,133.998066,-9399.007173
2760.730959,76.570323,210.568389,-9418.149754
2760.731586,95.712904,133.998066,-9360.722011
2760.732213,114.855485,133.998066,-9360.722011
2760.732841,38.285162,114.855485,-9418.149754
2760.733468,76.570323,114.855485,-9418.149754
2760.734095,114.855485,210.568389,-9322.436850
2760.734722,95.712904,153.140646,-9360.722011
2760.735349,76.570323,153.140646,-9360.722011
2760.735976,172.283227,114.855485,-9379.864592
2760.736603,114.855485,172.283227,-9360.722011
2760.737230,133.998066,114.855485,-9418.149754
2760.737857,114.855485,76.570323,-9418.149754
2760.738484,133.998066,133.998066,-9399.007173
2760.739111,76.570323,114.855485,-9418.149754
2760.739739,19.142581,153.140646,-9418.149754
2760.740366,57.427742,172.283227,-9360.722011
2760.740993,57.427742,133.998066,-9418.149754
2760.741620,76.570323,114.855485,-9418.149754
2760.742247,76.570323,153.140646,-9418.149754
2760.742874,133.998066,114.855485,-9437.292334
2760.743501,133.998066,172.283227,-9399.007173
2760.744128,114.855485,95.712904,-9399.007173
2760.744755,133.998066,95.712904,-9418.149754
2760.745382,133.998066,114.855485,-9418.149754
2760.746009,95.712904,172.283227,-9418.149754
2760.746637,114.855485,172.283227,-9360.722011
2760.747264,153.140646,172.283227,-9379.864592
2760.747891,153.140646,153.140646,-9399.007173
2760.748518,76.570323,114.855485,-9418.149754
2760.749145,153.140646,248.853550,-9437.292334
2760.749772,133.998066,153.140646,-9399.007173
2760.750399,133.998066,172.283227,-9418.149754
2760.751026,114.855485,133.998066,-9360.722011
2760.751653,76.570323,114.855485,-9418.149754
2760.752280,153.140646,133.998066,-9379.864592
2760.752907,38.285162,172.283227,-9418.149754
2760.753535,38.285162,114.855485,-9418.149754
2760.754162,95.712904,95.712904,-9399.007173
2760.754789,95.712904,114.855485,-9418.149754
2760.755416,38.285162,114.855485,-9437.292334
2760.756043,76.570323,95.712904,-9399.007173
2760.756670,133.998066,248.853550,-9399.007173
2760.757297,95.712904,153.140646,-9360.722011
2760.757924,114.855485,133.998066,-9360.722011
2760.758551,133.998066,76.570323,-9379.864592
2760.759178,133.998066,95.712904,-9360.722011
2760.759805,38.285162,114.855485,-9418.149754
2760.760433,38.285162,172.283227,-9418.149754
2760.761060,38.285162,114.855485,-9418.149754
2760.761687,57.427742,133.998066,-9360.722011
2760.762314,95.712904,95.712904,-9399.007173
2760.762941,114.855485,191.425808,-9399.007173
2760.763568,133.998066,114.855485,-9437.292334
2760.764195,133.998066,114.855485,-9475.577496
2760.764822,153.140646,133.998066,-9399.007173
2760.765449,133.998066,114.855485,-9456.434915
2760.766076,95.712904,95.712904,-9456.434915
2760.766703,76.570323,172.283227,-9418.149754
2760.767331,133.998066,153.140646,-9418.149754
2760.767958,95.712904,172.283227,-9360.722011
2760.768585,172.283227,153.140646,-9341.579430
2760.769212,95.712904,133.998066,-9360.722011
2760.769839,133.998066,133.998066,-9379.864592
2760.770466,133.998066,133.998066,-9437.292334
2760.771093,76.570323,114.855485,-9418.149754
2760.771720,38.285162,114.855485,-9437.292334
2760.772347,76.570323,172.283227,-9418.149754
2760.772974,76.570323,114.855485,-9494.720077
2760.773601,95.712904,114.855485,-9418.149754
2760.774229,76.570323,153.140646,-9494.720077
2760.774856,133.998066,114.855485,-9418.149754
2760.775483,153.140646,133.998066,-9437.292334
2760.776110,153.140646,153.140646,-9399.007173
2760.776737,114.855485,133.998066,-9322.436850
2760.777364,57.427742,191.425808,-9360.722011
2760.777991,95.712904,76.570323,-9379.864592
2760.778618,38.285162,114.855485,-9418.149754
2760.779245,133.998066,114.855485,-9437.292334
2760.779872,57.427742,95.712904,-9399.007173
2760.780499,114.855485,172.283227,-9360.722011
2760.781127,38.285162,114.855485,-9418.149754
2760.781754,76.570323,95.712904,-9399.007173
2760.782381,153.140646,133.998066,-9399.007173
2760.783008,76.570323,114.855485,-9418.149754
2760.783635,133.998066,153.140646,-9399.007173
2760.784262,114.855485,229.710970,-9399.007173
2760.784889,57.427742,172.283227,-9360.722011
2760.785516,76.570323,153.140646,-9360.722011
2760.786143,133.998066,76.570323,-9379.864592
2760.786770,38.285162,76.570323,-9379.864592
2760.787397,133.998066,114.855485,-9418.149754
2760.788025,133.998066,172.283227,-9418.149754
2760.788652,76.570323,153.140646,-9418.149754
2760.789279,114.855485,133.998066,-9322.436850
2760.789906,114.855485,191.425808,-9360.722011
2760.790533,38.285162,153.140646,-9360.722011
2760.791160,38.285162,114.855485,-9418.149754
2760.791787,114.855485,133.998066,-9360.722011
2760.792414,76.570323,172.283227,-9437.292334
2760.793041,133.998066,114.855485,-9418.149754
2760.793668,76.570323,114.855485,-9437.292334
2760.794295,95.712904,114.855485,-9418.149754
2760.794923,133.998066,153.140646,-9456.434915
2760.795550,76.570323,114.855485,-9360.722011
2760.796177,57.427742,133.998066,-9360.722011
2760.796804,57.427742,114.855485,-9418.149754
2760.797431,76.570323,114.855485,-9418.149754
2760.798058,114.855485,153.140646,-9360.722011
2760.798685,114.855485,95.712904,-9399.007173
2760.799312,133.998066,114.855485,-9418.149754
2760.799939,172.283227,95.712904,-9437.292334
2760.800566,76.570323,114.855485,-9418.149754
2760.801193,133.998066,114.855485,-9418.149754
2760.801821,76.570323,114.855485,-9360.722011
2760.802448,95.712904,133.998066,-9360.722011
2760.803075,95.712904,95.712904,-9399.007173
2760.803702,76.570323,153.140646,-9418.149754
2760.804329,114.855485,114.855485,-9399.007173
2760.804956,76.570323,153.140646,-9418.149754
2760.805583,76.570323,172.283227,-9418.149754
2760.806210,133.998066,153.140646,-9418.149754
2760.806837,114.855485,153.140646,-9360.722011
2760.807464,114.855485,153.140646,-9360.722011
2760.808091,172.283227,133.998066,-9360.722011
2760.808719,133.998066,191.425808,-9399.007173
2760.809346,114.855485,95.712904,-9418.149754
2760.809973,76.570323,191.425808,-9360.722011
2760.810600,76.570323,114.855485,-9418.149754
2760.811227,133.998066,172.283227,-9360.722011
2760.811854,172.283227,114.855485,-9379.864592
2760.812481,95.712904,153.140646,-9360.722011
2760.813108,133.998066,133.998066,-9399.007173
2760.813735,76.570323,114.855485,-9418.149754
2760.814362,76.570323,210.568389,-9418.149754
2760.814989,95.712904,172.283227,-9360.722011
2760.815617,95.712904,114.855485,-9418.149754
2760.816244,133.998066,172.283227,-9418.149754
2760.816871,95.712904,191.425808,-9360.722011
2760.817498,76.570323,114.855485,-9418.149754
2760.818125,38.285162,172.283227,-9418.149754
2760.818752,114.855485,153.140646,-9360.722011
2760.819379,76.570323,114.855485,-9418.149754
2760.820006,133.998066,153.140646,-9418.149754
2760.820633,76.570323,172.283227,-9418.149754
2760.821260,133.998066,114.855485,-9418.149754
2760.821887,133.998066,153.140646,-9399.007173
2760.822515,133.998066,114.855485,-9418.149754
2760.823142,76.570323,172.283227,-9418.149754
2760.823769,38.285162,210.568389,-9437.292334
2760.824396,133.998066,210.568389,-9418.149754
2760.825023,153.140646,133.998066,-9399.007173
2760.825650,95.712904,153.140646,-9360.722011
2760.826277,133.998066,153.140646,-9399.007173
2760.826904,95.712904,153.140646,-9360.722011
2760.827532,95.712904,133.998066,-9360.722011
2760.828159,133.998066,153.140646,-9418.149754
2760.828786,95.712904,229.710970,-9418.149754
2760.829413,95.712904,172.283227,-9360.722011
2760.830041,76.570323,114.855485,-9418.149754
2760.830668,76.570323,153.140646,-9418.149754
2760.831295,76.570323,172.283227,-9360.722011
2760.831922,114.855485,210.568389,-9379.864592
2760.832550,133.998066,114.855485,-9418.149754
2760.833177,76.570323,114.855485,-9418.149754
2760.833804,76.570323,114.855485,-9418.149754
2760.834431,38.285162,114.855485,-9418.149754
2760.835059,172.283227,114.855485,-9379.864592
2760.835686,114.855485,133.998066,-9360.722011
2760.836313,95.712904,133.998066,-9360.722011
2760.836940,95.712904,153.140646,-9418.149754
2760.837568,38.285162,114.855485,-9456.434915
2760.838195,153.140646,133.998066,-9399.007173
2760.838822,95.712904,172.283227,-9360.722011
2760.839449,76.570323,114.855485,-9418.149754
2760.840077,0.000000,133.998066,-9360.722011
2760.840704,95.712904,133.998066,-9360.722011
2760.841331,153.140646,114.855485,-9418.149754
2760.841958,76.570323,114.855485,-9418.149754
2760.842585,38.285162,153.140646,-9437.292334
2760.843213,133.998066,114.855485,-9418.149754
2760.843840,95.712904,172.283227,-9418.149754
2760.844467,76.570323,153.140646,-9418.149754
2760.845094,76.570323,153.140646,-9360.722011
2760.845722,76.570323,114.855485,-9418.149754
2760.846349,114.855485,153.140646,-9360.722011
2760.846976,153.140646,114.855485,-9418.149754
2760.847603,114.855485,114.855485,-9379.864592
2760.848231,57.427742,114.855485,-9418.149754
2760.848858,38.285162,153.140646,-9360.722011
2760.849485,38.285162,153.140646,-9418.149754
2760.850112,114.855485,172.283227,-9418.149754
2760.850740,133.998066,114.855485,-9418.149754
2760.851367,153.140646,133.998066,-9399.007173
2760.851994,133.998066,172.283227,-9418.149754
2760.852621,57.427742,133.998066,-9418.149754
2760.853249,133.998066,114.855485,-9418.149754
2760.853876,76.570323,114.855485,-9418.149754
2760.854503,133.998066,153.140646,-9418.149754
2760.855130,95.712904,133.998066,-9418.149754
2760.855758,95.712904,114.855485,-9399.007173
2760.856385,38.285162,153.140646,-9418.149754
2760.857012,76.570323,114.855485,-9360.722011
2760.857639,95.712904,133.998066,-9360.722011
2760.858267,114.855485,133.998066,-9360.722011
2760.858894,114.855485,153.140646,-9360.722011
2760.859521,76.570323,114.855485,-9418.149754
2760.860148,76.570323,114.855485,-9418.149754
2760.860776,57.427742,153.140646,-9322.436850
2760.861403,76.570323,114.855485,-9360.722011
2760.862030,95.712904,133.998066,-9341.579430
2760.862657,133.998066,114.855485,-9418.149754
2760.863285,95.712904,133.998066,-9360.722011
2760.863912,76.570323,114.855485,-9418.149754
2760.864539,76.570323,114.855485,-9418.149754
2760.865166,76.570323,114.855485,-9418.149754
2760.865794,76.570323,210.568389,-9418.149754
2760.866421,95.712904,114.855485,-9418.149754
2760.867048,133.998066,114.855485,-9418.149754
2760.867675,76.570323,153.140646,-9418.149754
2760.868303,57.427742,95.712904,-9399.007173
2760.868930,95.712904,210.568389,-9418.149754
2760.869557,76.570323,114.855485,-9360.722011
2760.870184,57.427742,133.998066,-9360.722011
2760.870812,76.570323,153.140646,-9418.149754
2760.871439,133.998066,172.283227,-9399.007173
2760.872066,114.855485,133.998066,-9341.579430
2760.872693,76.570323,172.283227,-9418.149754
2760.873321,76.570323,114.855485,-9418.149754
2760.873948,133.998066,172.283227,-9475.577496
2760.874575,133.998066,191.425808,-9399.007173
2760.875202,76.570323,114.855485,-9418.149754
2760.875830,19.142581,114.855485,-9418.149754
2760.876457,95.712904,95.712904,-9437.292334
2760.877084,76.570323,114.855485,-9418.149754
2760.877711,76.570323,114.855485,-9437.292334
2760.878339,153.140646,172.283227,-9456.434915
2760.878966,95.712904,95.712904,-9494.720077
2760.879593,76.570323,114.855485,-9418.149754
2760.880220,38.285162,114.855485,-9418.149754
2760.880848,76.570323,114.855485,-9418.149754
2760.881475,57.427742,95.712904,-9399.007173
2760.882102,133.998066,114.855485,-9437.292334
2760.882729,133.998066,114.855485,-9437.292334
2760.883357,76.570323,114.855485,-9418.149754
2760.883984,153.140646,114.855485,-9418.149754
2760.884611,76.570323,172.283227,-9418.149754
2760.885238,76.570323,114.855485,-9418.149754
2760.885866,133.998066,114.855485,-9437.292334
2760.886493,76.570323,114.855485,-9418.149754
2760.887120,76.570323,114.855485,-9418.149754
2760.887747,114.855485,172.283227,-9360.722011
2760.888375,153.140646,133.998066,-9399.007173
2760.889002,114.855485,133.998066,-9360.722011
2760.889629,114.855485,133.998066,-9360.722011
2760.890256,114.855485,133.998066,-9360.722011
2760.890884,38.285162,153.140646,-9418.149754
2760.891511,76.570323,114.855485,-9418.149754
2760.892138,133.998066,133.998066,-9399.007173
2760.892765,95.712904,153.140646,-9437.292334
2760.893392,57.427742,172.283227,-9418.149754
2760.894020,153.140646,114.855485,-9437.292334
2760.894647,76.570323,172.283227,-9418.149754
2760.895274,95.712904,172.283227,-9360.722011
2760.895901,76.570323,114.855485,-9437.292334
2760.896529,133.998066,114.855485,-9456.434915
2760.897156,38.285162,172.283227,-9418.149754
2760.897783,133.998066,114.855485,-9418.149754
2760.898410,133.998066,114.855485,-9437.292334
2760.899038,133.998066,133.998066,-9399.007173
2760.899665,38.285162,114.855485,-9418.149754
2760.900292,114.855485,133.998066,-9360.722011
2760.900919,76.570323,114.855485,-9418.149754
2760.901547,76.570323,114.855485,-9456.434915
2760.902174,172.283227,114.855485,-9379.864592
2760.902801,95.712904,133.998066,-9360.722011
2760.903428,76.570323,114.855485,-9437.292334
2760.904056,133.998066,210.568389,-9418.149754
2760.904683,133.998066,191.425808,-9399.007173
2760.905310,95.712904,133.998066,-9418.149754
2760.905937,133.998066,153.140646,-9418.149754
2760.906565,76.570323,114.855485,-9418.149754
2760.907192,76.570323,172.283227,-9418.149754
2760.907819,95.712904,133.998066,-9360.722011
2760.908446,19.142581,114.855485,-9418.149754
2760.909074,76.570323,133.998066,-9322.436850
2760.909701,133.998066,133.998066,-9399.007173
2760.910328,76.570323,114.855485,-9418.149754
2760.910955,95.712904,95.712904,-9399.007173
2760.911583,114.855485,95.712904,-9399.007173
2760.912210,153.140646,114.855485,-9418.149754
2760.912837,76.570323,172.283227,-9456.434915
2760.913464,76.570323,114.855485,-9418.149754
2760.914092,153.140646,172.283227,-9418.149754
2760.914719,38.285162,172.283227,-9418.149754
2760.915346,114.855485,133.998066,-9360.722011
2760.915973,133.998066,114.855485,-9360.722011
2760.916601,76.570323,114.855485,-9418.149754
2760.917228,95.712904,95.712904,-9399.007173
2760.917855,76.570323,114.855485,-9418.149754
2760.918482,38.285162,114.855485,-9418.149754
2760.919110,133.998066,172.283227,-9418.149754
2760.919737,76.570323,114.855485,-9360.722011
2760.920364,95.712904,133.998066,-9418.149754
2760.920991,133.998066,153.140646,-9360.722011
2760.921619,114.855485,172.283227,-9360.722011
2760.922246,95.712904,248.853550,-9360.722011
2760.922873,95.712904,114.855485,-9418.149754
2760.923500,133.998066,114.855485,-9418.149754
2760.924128,76.570323,114.855485,-9360.722011
2760.924755,95.712904,172.283227,-9360.722011
2760.925382,38.285162,191.425808,-9418.149754
2760.926009,95.712904,172.283227,-9418.149754
2760.926637,133.998066,133.998066,-9399.007173
2760.927264,114.855485,172.283227,-9379.864592
2760.927892,38.285162,114.855485,-9418.149754
2760.928519,38.285162,153.140646,-9418.149754
2760.929147,76.570323,229.710970,-9360.722011
2760.929775,95.712904,172.283227,-9360.722011
2760.930402,133.998066,133.998066,-9399.007173
2760.931030,57.427742,95.712904,-9399.007173
2760.931657,76.570323,114.855485,-9418.149754
2760.932285,57.427742,133.998066,-9360.722011
2760.932913,76.570323,153.140646,-9418.149754
2760.933540,76.570323,229.710970,-9418.149754
2760.934168,76.570323,210.568389,-9418.149754
2760.934795,114.855485,95.712904,-9399.007173
2760.935423,38.285162,153.140646,-9418.149754
2760.936051,95.712904,114.855485,-9418.149754
2760.936678,95.712904,133.998066,-9341.579430
2760.937306,95.712904,133.998066,-9360.722011
2760.937933,76.570323,114.855485,-9418.149754
2760.938561,76.570323,172.283227,-9360.722011
2760.939188,133.998066,114.855485,-9437.292334
2760.939816,95.712904,114.855485,-9418.149754
2760.940444,133.998066,114.855485,-9437.292334
2760.941071,133.998066,114.855485,-9418.149754
2760.941699,153.140646,153.140646,-9399.007173
2760.942326,133.998066,172.283227,-9418.149754
2760.942954,133.998066,210.568389,-9418.149754
2760.943582,76.570323,133.998066,-9360.722011
2760.944209,95.712904,95.712904,-9379.864592
2760.944837,133.998066,114.855485,-9418.149754
2760.945464,57.427742,191.425808,-9360.722011
2760.946092,133.998066,114.855485,-9418.149754
2760.946720,38.285162,114.855485,-9418.149754
2760.947347,76.570323,153.140646,-9360.722011
2760.947975,95.712904,133.998066,-9360.722011
2760.948602,133.998066,114.855485,-9418.149754
2760.949230,133.998066,210.568389,-9418.149754
2760.949858,114.855485,114.855485,-9379.864592
2760.950485,95.712904,172.283227,-9360.722011
2760.951113,133.998066,153.140646,-9418.149754
2760.951740,133.998066,114.855485,-9418.149754
2760.952368,76.570323,114.855485,-9418.149754
2760.952996,133.998066,114.855485,-9418.149754
2760.953623,95.712904,153.140646,-9418.149754
2760.954251,153.140646,114.855485,-9437.292334
2760.954878,95.712904,133.998066,-9360.722011
2760.955506,57.427742,133.998066,-9360.722011
2760.956134,133.998066,76.570323,-9379.864592
2760.956761,114.855485,76.570323,-9360.722011
2760.957389,95.712904,114.855485,-9418.149754
2760.958016,133.998066,210.568389,-9418.149754
2760.958644,76.570323,210.568389,-9418.149754
2760.959272,76.570323,172.283227,-9418.149754
2760.959899,38.285162,114.855485,-9360.722011
2760.960527,133.998066,153.140646,-9418.149754
2760.961154,133.998066,153.140646,-9399.007173
2760.961782,133.998066,114.855485,-9418.149754
2760.962410,38.285162,76.570323,-9379.864592
2760.963037,133.998066,114.855485,-9418.149754
2760.963665,153.140646,133.998066,-9399.007173
2760.964292,133.998066,114.855485,-9418.149754
2760.964920,76.570323,114.855485,-9418.149754
2760.965548,76.570323,114.855485,-9418.149754
2760.966175,114.855485,153.140646,-9360.722011
2760.966803,114.855485,95.712904,-9399.007173
2760.967430,76.570323,76.570323,-9379.864592
2760.968058,95.712904,133.998066,-9360.722011
2760.968685,114.855485,133.998066,-9360.722011
2760.969313,114.855485,95.712904,-9399.007173
2760.969941,114.855485,133.998066,-9360.722011
2760.970568,133.998066,114.855485,-9418.149754
2760.971196,153.140646,114.855485,-9418.149754
2760.971823,114.855485,133.998066,-9360.722011
2760.972451,133.998066,114.855485,-9418.149754
2760.973079,95.712904,76.570323,-9418.149754
2760.973706,133.998066,210.568389,-9418.149754
2760.974334,133.998066,114.855485,-9456.434915
2760.974961,76.570323,153.140646,-9418.149754
2760.975589,133.998066,133.998066,-9341.579430
2760.976217,95.712904,133.998066,-9322.436850
2760.976844,114.855485,133.998066,-9360.722011
2760.977472,76.570323,114.855485,-9418.149754
2760.978099,76.570323,76.570323,-9379.864592
2760.978727,76.570323,114.855485,-9437.292334
2760.979355,95.712904,114.855485,-9418.149754
2760.979982,76.570323,114.855485,-9418.149754
2760.980610,76.570323,153.140646,-9418.149754
2760.981237,76.570323,114.855485,-9418.149754
2760.981865,95.712904,114.855485,-9418.149754
2760.982493,95.712904,133.998066,-9360.722011
2760.983120,133.998066,153.140646,-9418.149754
2760.983748,57.427742,133.998066,-9360.722011
2760.984375,133.998066,172.283227,-9437.292334
2760.985003,76.570323,210.568389,-9418.149754
2760.985631,114.855485,191.425808,-9360.722011
2760.986258,133.998066,172.283227,-9456.434915
2760.986886,76.570323,114.855485,-9418.149754
2760.987513,114.855485,76.570323,-9360.722011
2760.988141,38.285162,114.855485,-9418.149754
2760.988769,76.570323,210.568389,-9456.434915
2760.989396,133.998066,133.998066,-9399.007173
2760.990024,133.998066,153.140646,-9418.149754
2760.990651,133.998066,114.855485,-9418.149754
2760.991279,76.570323,153.140646,-9418.149754
2760.991907,172.283227,153.140646,-9379.864592
2760.992534,95.712904,133.998066,-9360.722011
2760.993162,133.998066,114.855485,-9418.149754
2760.993789,133.998066,114.855485,-9456.434915
2760.994417,133.998066,191.425808,-9418.149754
2760.995045,95.712904,76.570323,-9379.864592
2760.995672,76.570323,153.140646,-9360.722011
2760.996300,153.140646,172.283227,-9437.292334
2760.996927,133.998066,114.855485,-9456.434915
2760.997555,76.570323,153.140646,-9418.149754
2760.998182,172.283227,76.570323,-9418.149754
2760.998810,133.998066,114.855485,-9437.292334
2760.999438,95.712904,133.998066,-9418.149754
2761.000065,95.712904,95.712904,-9399.007173
2761.000693,133.998066,172.283227,-9360.722011
2761.001320,153.140646,133.998066,-9399.007173
2761.001948,133.998066,172.283227,-9399.007173
2761.002576,133.998066,133.998066,-9399.007173
2761.003203,38.285162,114.855485,-9456.434915
2761.003831,95.712904,95.712904,-9456.434915
2761.004458,133.998066,114.855485,-9456.434915
2761.005086,38.285162,114.855485,-9437.292334
2761.005714,114.855485,114.855485,-9399.007173
2761.006341,95.712904,229.710970,-9418.149754
2761.006969,114.855485,153.140646,-9418.149754
2761.007596,76.570323,210.568389,-9418.149754
2761.008224,38.285162,114.855485,-9418.149754
2761.008852,114.855485,153.140646,-9360.722011
2761.009479,76.570323,210.568389,-9418.149754
2761.010107,133.998066,114.855485,-9418.149754
2761.010734,95.712904,153.140646,-9360.722011
2761.011362,95.712904,153.140646,-9360.722011
2761.011990,95.712904,172.283227,-9456.434915
2761.012617,76.570323,114.855485,-9437.292334
2761.013245,95.712904,133.998066,-9418.149754
2761.013872,38.285162,114.855485,-9418.149754
2761.014500,38.285162,114.855485,-9437.292334
2761.015128,38.285162,172.283227,-9418.149754
2761.015755,76.570323,114.855485,-9418.149754
2761.016383,76.570323,95.712904,-9399.007173
2761.017010,95.712904,133.998066,-9360.722011
2761.017638,38.285162,114.855485,-9418.149754
2761.018266,57.427742,114.855485,-9418.149754
2761.018893,133.998066,114.855485,-9418.149754
2761.019521,57.427742,95.712904,-9399.007173
2761.020148,114.855485,95.712904,-9399.007173
2761.020776,57.427742,133.998066,-9360.722011
2761.021404,57.427742,153.140646,-9360.722011
2761.022031,76.570323,114.855485,-9418.149754
2761.022659,76.570323,172.283227,-9418.149754
2761.023286,133.998066,133.998066,-9399.007173
2761.023914,133.998066,114.855485,-9418.149754
2761.024542,133.998066,76.570323,-9379.864592
2761.025169,133.998066,172.283227,-9418.149754
2761.025797,76.570323,114.855485,-9418.149754
2761.026424,95.712904,191.425808,-9360.722011
2761.027052,38.285162,172.283227,-9418.149754
2761.027680,76.570323,172.283227,-9418.149754
2761.028307,38.285162,114.855485,-9418.149754
2761.028935,95.712904,114.855485,-9418.149754
2761.029563,172.283227,114.855485,-9379.864592
2761.030190,76.570323,114.855485,-9418.149754
2761.030818,76.570323,114.855485,-9418.149754
2761.031446,76.570323,114.855485,-9418.149754
2761.032073,95.712904,133.998066,-9418.149754
2761.032701,38.285162,114.855485,-9418.149754
2761.033329,76.570323,153.140646,-9418.149754
2761.033956,76.570323,210.568389,-9418.149754
2761.034584,95.712904,172.283227,-9360.722011
2761.035212,76.570323,114.855485,-9456.434915
2761.035839,38.285162,114.855485,-9418.149754
2761.036467,133.998066,133.998066,-9399.007173
2761.037095,76.570323,114.855485,-9418.149754
2761.037722,38.285162,114.855485,-9418.149754
2761.038350,153.140646,133.998066,-9399.007173
2761.038978,95.712904,95.712904,-9399.007173
2761.039606,76.570323,114.855485,-9360.722011
2761.040233,76.570323,114.855485,-9437.292334
2761.040861,95.712904,172.283227,-9418.149754
2761.041489,153.140646,172.283227,-9379.864592
2761.042116,95.712904,114.855485,-9399.007173
2761.042744,133.998066,172.283227,-9418.149754
2761.043372,95.712904,172.283227,-9360.722011
2761.043999,76.570323,114.855485,-9418.149754
2761.044627,133.998066,153.140646,-9399.007173
2761.045255,172.283227,76.570323,-9418.149754
2761.045882,95.712904,172.283227,-9341.579430
2761.046510,133.998066,191.425808,-9418.149754
2761.047138,76.570323,210.568389,-9418.149754
2761.047765,76.570323,114.855485,-9418.149754
2761.048393,133.998066,153.140646,-9418.149754
2761.049021,95.712904,95.712904,-9399.007173
2761.049648,133.998066,153.140646,-9418.149754
2761.050276,133.998066,153.140646,-9418.149754
2761.050904,172.283227,114.855485,-9379.864592
2761.051531,114.855485,133.998066,-9360.722011
2761.052159,76.570323,114.855485,-9418.149754
2761.052787,57.427742,133.998066,-9360.722011
2761.053415,57.427742,133.998066,-9322.436850
2761.054042,133.998066,114.855485,-9418.149754
2761.054670,76.570323,210.568389,-9437.292334
2761.055298,38.285162,114.855485,-9418.149754
2761.055925,76.570323,114.855485,-9418.149754
2761.056553,133.998066,210.568389,-9418.149754
2761.057181,133.998066,210.568389,-9418.149754
2761.057808,76.570323,210.568389,-9418.149754
2761.058436,133.998066,114.855485,-9418.149754
2761.059064,95.712904,172.283227,-9418.149754
2761.059691,133.998066,114.855485,-9418.149754
2761.060319,76.570323,114.855485,-9418.149754
2761.060947,38.285162,153.140646,-9437.292334
2761.061574,38.285162,153.140646,-9418.149754
2761.062202,95.712904,133.998066,-9360.722011
2761.062830,76.570323,153.140646,-9360.722011
2761.063457,114.855485,95.712904,-9399.007173
2761.064085,76.570323,133.998066,-9360.722011
2761.064713,153.140646,133.998066,-9379.864592
2761.065340,133.998066,114.855485,-9418.149754
2761.065968,76.570323,153.140646,-9418.149754
2761.066596,38.285162,114.855485,-9418.149754
2761.067223,38.285162,76.570323,-9379.864592
2761.067851,133.998066,153.140646,-9418.149754
2761.068479,133.998066,172.283227,-9399.007173
2761.069107,38.285162,114.855485,-9418.149754
2761.069734,76.570323,114.855485,-9418.149754
2761.070362,76.570323,172.283227,-9418.149754
2761.070990,153.140646,153.140646,-9399.007173
2761.071617,133.998066,114.855485,-9418.149754
2761.072245,76.570323,153.140646,-9418.149754
2761.072873,57.427742,133.998066,-9360.722011
2761.073500,95.712904,153.140646,-9360.722011
2761.074128,133.998066,114.855485,-9418.149754
2761.074756,133.998066,114.855485,-9418.149754
2761.075383,133.998066,172.283227,-9418.149754
2761.076011,76.570323,114.855485,-9418.149754
2761.076639,38.285162,114.855485,-9418.149754
2761.077266,133.998066,114.855485,-9418.149754
2761.077894,133.998066,191.425808,-9360.722011
2761.078522,95.712904,153.140646,-9360.722011
2761.079149,38.285162,153.140646,-9418.149754
2761.079777,76.570323,114.855485,-9437.292334
2761.080405,76.570323,114.855485,-9418.149754
2761.081032,76.570323,114.855485,-9418.149754
2761.081660,95.712904,172.283227,-9418.149754
2761.082288,38.285162,210.568389,-9418.149754
2761.082916,95.712904,191.425808,-9360.722011
2761.083543,76.570323,114.855485,-9418.149754
2761.084171,95.712904,153.140646,-9456.434915
2761.084799,133.998066,210.568389,-9418.149754
2761.085426,76.570323,114.855485,-9418.149754
2761.086054,76.570323,172.283227,-9418.149754
2761.086682,133.998066,172.283227,-9418.149754
2761.087309,133.998066,153.140646,-9418.149754
2761.087937,133.998066,114.855485,-9418.149754
2761.088565,133.998066,114.855485,-9418.149754
2761.089192,76.570323,153.140646,-9322.436850
2761.089820,133.998066,229.710970,-9418.149754
2761.090448,153.140646,248.853550,-9399.007173
2761.091075,133.998066,172.283227,-9399.007173
2761.091703,133.998066,114.855485,-9418.149754
2761.092331,133.998066,172.283227,-9418.149754
2761.092958,95.712904,95.712904,-9399.007173
2761.093586,38.285162,114.855485,-9418.149754
2761.094214,76.570323,114.855485,-9360.722011
2761.094841,114.855485,133.998066,-9341.579430
2761.095469,95.712904,172.283227,-9360.722011
2761.096097,76.570323,114.855485,-9437.292334
2761.096725,38.285162,153.140646,-9418.149754
2761.097352,76.570323,114.855485,-9475.577496
2761.097980,76.570323,114.855485,-9418.149754
2761.098608,95.712904,191.425808,-9360.722011
2761.099235,114.855485,191.425808,-9360.722011
2761.099863,133.998066,114.855485,-9418.149754
2761.100491,133.998066,133.998066,-9399.007173
2761.101118,95.712904,95.712904,-9399.007173
2761.101746,57.427742,229.710970,-9418.149754
2761.102374,114.855485,133.998066,-9360.722011
2761.103001,114.855485,172.283227,-9341.579430
2761.103629,38.285162,114.855485,-9418.149754
2761.104257,76.570323,114.855485,-9418.149754
2761.104884,76.570323,114.855485,-9418.149754
2761.105512,38.285162,153.140646,-9418.149754
2761.106140,114.855485,95.712904,-9399.007173
2761.106767,76.570323,172.283227,-9418.149754
2761.107395,76.570323,114.855485,-9418.149754
2761.108023,76.570323,114.855485,-9418.149754
2761.108650,38.285162,210.568389,-9418.149754
2761.109278,76.570323,210.568389,-9399.007173
2761.109906,95.712904,153.140646,-9341.579430
2761.110534,95.712904,114.855485,-9418.149754
2761.111161,76.570323,153.140646,-9418.149754
2761.111789,114.855485,133.998066,-9360.722011
2761.112417,76.570323,114.855485,-9418.149754
2761.113044,95.712904,114.855485,-9418.149754
2761.113672,95.712904,153.140646,-9437.292334
2761.114300,153.140646,172.283227,-9399.007173
2761.114927,133.998066,114.855485,-9360.722011
2761.115555,133.998066,153.140646,-9456.434915
2761.116183,76.570323,114.855485,-9418.149754
2761.116810,133.998066,172.283227,-9418.149754
2761.117438,76.570323,153.140646,-9418.149754
2761.118066,76.570323,114.855485,-9418.149754
2761.118693,76.570323,114.855485,-9418.149754
2761.119321,0.000000,114.855485,-9399.007173
2761.119949,95.712904,248.853550,-9360.722011
2761.120576,57.427742,133.998066,-9341.579430
2761.121204,95.712904,133.998066,-9360.722011
2761.121832,76.570323,114.855485,-9418.149754
2761.122459,76.570323,229.710970,-9418.149754
2761.123087,133.998066,114.855485,-9418.149754
2761.123715,76.570323,114.855485,-9418.149754
2761.124342,76.570323,153.140646,-9418.149754
2761.124970,114.855485,133.998066,-9360.722011
2761.125598,76.570323,172.283227,-9418.149754
2761.126226,57.427742,133.998066,-9360.722011
2761.126853,38.285162,114.855485,-9456.434915
2761.127481,76.570323,172.283227,-9418.149754
2761.128108,0.000000,133.998066,-9360.722011
2761.128736,76.570323,153.140646,-9360.722011
2761.129363,76.570323,114.855485,-9418.149754
2761.129990,76.570323,210.568389,-9418.149754
2761.130618,95.712904,95.712904,-9399.007173
2761.131245,76.570323,114.855485,-9418.149754
2761.131873,76.570323,210.568389,-9418.149754
2761.132500,38.285162,172.283227,-9418.149754
2761.133127,38.285162,153.140646,-9418.149754
2761.133755,95.712904,172.283227,-9360.722011
2761.134382,133.998066,114.855485,-9418.149754
2761.135009,57.427742,95.712904,-9399.007173
2761.135637,95.712904,133.998066,-9418.149754
2761.136264,95.712904,114.855485,-9456.434915
2761.136892,95.712904,95.712904,-9399.007173
2761.137519,114.855485,133.998066,-9360.722011
2761.138146,133.998066,133.998066,-9399.007173
2761.138774,95.712904,95.712904,-9399.007173
2761.139401,133.998066,191.425808,-9418.149754
2761.140028,153.140646,133.998066,-9399.007173
2761.140656,133.998066,172.283227,-9418.149754
2761.141283,76.570323,172.283227,-9418.149754
2761.141911,133.998066,114.855485,-9418.149754
2761.142538,133.998066,114.855485,-9418.149754
2761.143165,76.570323,114.855485,-9418.149754
2761.143793,172.283227,114.855485,-9379.864592
2761.144420,38.285162,153.140646,-9418.149754
2761.145047,76.570323,114.855485,-9418.149754
2761.145675,76.570323,114.855485,-9418.149754
2761.146302,114.855485,95.712904,-9456.434915
2761.146930,76.570323,114.855485,-9418.149754
2761.147557,95.712904,133.998066,-9360.722011
2761.148184,38.285162,114.855485,-9418.149754
2761.148812,133.998066,114.855485,-9418.149754
2761.149439,114.855485,114.855485,-9322.436850
2761.150066,57.427742,133.998066,-9360.722011
2761.150694,95.712904,153.140646,-9418.149754
2761.151321,133.998066,76.570323,-9379.864592
2761.151949,133.998066,114.855485,-9418.149754
2761.152576,95.712904,153.140646,-9360.722011
2761.153203,133.998066,153.140646,-9418.149754
2761.153831,76.570323,114.855485,-9418.149754
2761.154458,95.712904,172.283227,-9360.722011
2761.155085,57.427742,133.998066,-9360.722011
2761.155713,153.140646,133.998066,-9399.007173
2761.156340,133.998066,114.855485,-9418.149754
2761.156968,95.712904,114.855485,-9360.722011
2761.157595,95.712904,133.998066,-9360.722011
2761.158222,114.855485,114.855485,-9379.864592
2761.158850,95.712904,172.283227,-9360.722011
2761.159477,133.998066,153.140646,-9418.149754
2761.160105,76.570323,153.140646,-9418.149754
2761.160732,76.570323,114.855485,-9418.149754
2761.161359,153.140646,133.998066,-9399.007173
2761.161987,133.998066,133.998066,-9399.007173
2761.162614,38.285162,114.855485,-9418.149754
2761.163241,95.712904,133.998066,-9360.722011
2761.163869,76.570323,114.855485,-9437.292334
2761.164496,133.998066,153.140646,-9418.149754
2761.165124,114.855485,114.855485,-9322.436850
2761.165751,76.570323,114.855485,-9418.149754
2761.166378,57.427742,133.998066,-9360.722011
2761.167006,133.998066,114.855485,-9418.149754
2761.167633,133.998066,133.998066,-9399.007173
2761.168260,153.140646,133.998066,-9399.007173
2761.168888,133.998066,114.855485,-9418.149754
2761.169515,38.285162,210.568389,-9418.149754
2761.170143,38.285162,153.140646,-9418.149754
2761.170770,76.570323,229.710970,-9418.149754
2761.171397,38.285162,153.140646,-9418.149754
2761.172025,0.000000,153.140646,-9341.579430
2761.172652,76.570323,114.855485,-9418.149754
2761.173279,76.570323,153.140646,-9418.149754
2761.173907,76.570323,153.140646,-9418.149754
2761.174534,76.570323,172.283227,-9418.149754
2761.175162,38.285162,114.855485,-9418.149754
2761.175789,0.000000,133.998066,-9360.722011
2761.176416,76.570323,172.283227,-9418.149754
2761.177044,133.998066,210.568389,-9418.149754
2761.177671,95.712904,133.998066,-9360.722011
2761.178298,76.570323,153.140646,-9418.149754
2761.178926,133.998066,114.855485,-9418.149754
2761.179553,95.712904,114.855485,-9418.149754
2761.180181,95.712904,114.855485,-9418.149754
2761.180808,38.285162,114.855485,-9418.149754
2761.181435,114.855485,114.855485,-9379.864592
2761.182063,95.712904,133.998066,-9360.722011
2761.182690,76.570323,95.712904,-9399.007173
2761.183317,114.855485,172.283227,-9360.722011
2761.183945,76.570323,133.998066,-9379.864592
2761.184572,133.998066,114.855485,-9418.149754
2761.185200,95.712904,95.712904,-9437.292334
2761.185827,133.998066,133.998066,-9399.007173
2761.186454,95.712904,172.283227,-9360.722011
2761.187082,38.285162,114.855485,-9418.149754
2761.187709,153.140646,133.998066,-9379.864592
2761.188336,57.427742,191.425808,-9341.579430
2761.188964,76.570323,114.855485,-9418.149754
2761.189591,133.998066,114.855485,-9418.149754
2761.190219,114.855485,153.140646,-9360.722011
2761.190846,76.570323,114.855485,-9418.149754
2761.191473,76.570323,76.570323,-9379.864592
2761.192101,76.570323,133.998066,-9360.722011
2761.192728,76.570323,153.140646,-9360.722011
2761.193356,133.998066,114.855485,-9418.149754
2761.193983,133.998066,153.140646,-9418.149754
2761.194610,76.570323,114.855485,-9418.149754
2761.195238,76.570323,114.855485,-9418.149754
2761.195865,95.712904,95.712904,-9399.007173
2761.196492,153.140646,172.283227,-9399.007173
2761.197120,76.570323,76.570323,-9379.864592
2761.197747,114.855485,133.998066,-9360.722011
2761.198375,76.570323,191.425808,-9418.149754
2761.199002,95.712904,133.998066,-9360.722011
2761.199629,114.855485,172.283227,-9360.722011
2761.200257,38.285162,114.855485,-9418.149754
2761.200884,76.570323,210.568389,-9418.149754
2761.201511,114.855485,133.998066,-9360.722011
2761.202139,133.998066,172.283227,-9399.007173
2761.202766,133.998066,172.283227,-9399.007173
2761.203394,76.570323,95.712904,-9399.007173
2761.204021,114.855485,95.712904,-9399.007173
2761.204648,38.285162,114.855485,-9418.149754
2761.205276,76.570323,114.855485,-9418.149754
2761.205903,76.570323,114.855485,-9418.149754
2761.206530,133.998066,114.855485,-9437.292334
2761.207158,76.570323,114.855485,-9418.149754
2761.207785,133.998066,133.998066,-9399.007173
2761.208413,133.998066,114.855485,-9418.149754
2761.209040,114.855485,133.998066,-9360.722011
2761.209667,76.570323,229.710970,-9399.007173
2761.210295,172.283227,76.570323,-9418.149754
2761.210922,172.283227,114.855485,-9379.864592
2761.211549,114.855485,133.998066,-9360.722011
2761.212177,76.570323,76.570323,-9399.007173
2761.212804,57.427742,172.283227,-9341.579430
2761.213432,95.712904,76.570323,-9379.864592
2761.214059,76.570323,172.283227,-9418.149754
2761.214686,153.140646,133.998066,-9399.007173
2761.215314,133.998066,114.855485,-9418.149754
2761.215941,95.712904,95.712904,-9399.007173
2761.216568,76.570323,191.425808,-9418.149754
2761.217196,76.570323,153.140646,-9418.149754
2761.217823,133.998066,114.855485,-9418.149754
2761.218451,133.998066,133.998066,-9456.434915
2761.219078,76.570323,114.855485,-9418.149754
2761.219705,114.855485,95.712904,-9437.292334
2761.220333,153.140646,133.998066,-9399.007173
2761.220960,172.283227,114.855485,-9379.864592
2761.221587,133.998066,210.568389,-9456.434915
2761.222215,38.285162,153.140646,-9418.149754
2761.222842,76.570323,114.855485,-9437.292334
2761.223470,19.142581,153.140646,-9437.292334
2761.224097,38.285162,114.855485,-9418.149754
2761.224724,114.855485,133.998066,-9360.722011
2761.225352,153.140646,133.998066,-9399.007173
2761.225979,133.998066,153.140646,-9418.149754
2761.226607,114.855485,114.855485,-9379.864592
2761.227234,114.855485,172.283227,-9360.722011
2761.227861,76.570323,114.855485,-9418.149754
2761.228489,95.712904,114.855485,-9418.149754
2761.229116,95.712904,172.283227,-9360.722011
2761.229744,114.855485,133.998066,-9360.722011
2761.230372,133.998066,172.283227,-9418.149754
2761.230999,95.712904,133.998066,-9360.722011
2761.231627,133.998066,114.855485,-9418.149754
2761.232255,95.712904,153.140646,-9360.722011
2761.232882,95.712904,95.712904,-9399.007173
2761.233510,133.998066,153.140646,-9418.149754
2761.234137,153.140646,191.425808,-9399.007173
2761.234765,133.998066,153.140646,-9418.149754
2761.235393,133.998066,114.855485,-9418.149754
2761.236020,133.998066,114.855485,-9418.149754
2761.236648,114.855485,172.283227,-9360.722011
2761.237275,76.570323,191.425808,-9418.149754
2761.237903,57.427742,133.998066,-9360.722011
2761.238531,133.998066,114.855485,-9418.149754
2761.239158,76.570323,95.712904,-9399.007173
2761.239786,133.998066,114.855485,-9418.149754
2761.240413,95.712904,153.140646,-9360.722011
2761.241041,38.285162,210.568389,-9418.149754
2761.241669,76.570323,172.283227,-9418.149754
2761.242296,76.570323,114.855485,-9418.149754
2761.242924,38.285162,114.855485,-9475.577496
2761.243551,76.570323,153.140646,-9418.149754
2761.244179,38.285162,114.855485,-9418.149754
2761.244807,76.570323,153.140646,-9418.149754
2761.245434,133.998066,114.855485,-9360.722011
2761.246062,57.427742,133.998066,-9360.722011
2761.246689,95.712904,153.140646,-9418.149754
2761.247317,76.570323,114.855485,-9456.434915
2761.247945,133.998066,153.140646,-9418.149754
2761.248572,133.998066,114.855485,-9418.149754
2761.249200,95.712904,210.568389,-9456.434915
2761.249827,76.570323,153.140646,-9418.149754
2761.250455,0.000000,153.140646,-9360.722011
2761.251083,76.570323,172.283227,-9437.292334
2761.251710,19.142581,133.998066,-9399.007173
2761.252338,76.570323,191.425808,-9418.149754
2761.252966,57.427742,133.998066,-9360.722011
2761.253593,38.285162,114.855485,-9418.149754
2761.254221,76.570323,153.140646,-9418.149754
2761.254848,38.285162,114.855485,-9418.149754
2761.255476,133.998066,114.855485,-9418.149754
2761.256104,114.855485,133.998066,-9341.579430
2761.256731,95.712904,95.712904,-9456.434915
2761.257359,76.570323,95.712904,-9437.292334
2761.257986,133.998066,191.425808,-9418.149754
2761.258614,95.712904,114.855485,-9418.149754
2761.259242,114.855485,114.855485,-9379.864592
2761.259869,114.855485,133.998066,-9360.722011
2761.260497,133.998066,153.140646,-9418.149754
2761.261124,133.998066,153.140646,-9418.149754
2761.261752,76.570323,153.140646,-9437.292334
2761.262380,95.712904,95.712904,-9399.007173
2761.263007,133.998066,172.283227,-9418.149754
2761.263635,133.998066,114.855485,-9494.720077
2761.264262,133.998066,114.855485,-9418.149754
2761.264890,76.570323,172.283227,-9418.149754
2761.265518,38.285162,153.140646,-9418.149754
2761.266145,57.427742,172.283227,-9360.722011
2761.266773,133.998066,114.855485,-9418.149754
2761.267400,95.712904,114.855485,-9418.149754
2761.268028,153.140646,153.140646,-9399.007173
2761.268656,133.998066,133.998066,-9399.007173
2761.269283,38.285162,114.855485,-9418.149754
2761.269911,76.570323,114.855485,-9418.149754
2761.270539,76.570323,114.855485,-9418.149754
2761.271166,95.712904,133.998066,-9360.722011
2761.271794,76.570323,172.283227,-9418.149754
2761.272421,76.570323,172.283227,-9437.292334
2761.273049,76.570323,153.140646,-9475.577496
2761.273677,38.285162,114.855485,-9418.149754
2761.274304,95.712904,95.712904,-9456.434915
2761.274932,114.855485,133.998066,-9341.579430
2761.275559,114.855485,133.998066,-9360.722011
2761.276187,38.285162,172.283227,-9418.149754
2761.276815,95.712904,114.855485,-9418.149754
2761.277442,153.140646,133.998066,-9437.292334
2761.278070,76.570323,114.855485,-9437.292334
2761.278697,76.570323,114.855485,-9418.149754
2761.279325,38.285162,191.425808,-9418.149754
2761.279953,76.570323,153.140646,-9418.149754
2761.280580,0.000000,95.712904,-9399.007173
2761.281208,114.855485,133.998066,-9360.722011
2761.281835,133.998066,114.855485,-9418.149754
2761.282463,95.712904,133.998066,-9360.722011
2761.283091,38.285162,153.140646,-9418.149754
2761.283718,95.712904,114.855485,-9437.292334
2761.284346,133.998066,153.140646,-9399.007173
2761.284973,76.570323,76.570323,-9379.864592
2761.285601,76.570323,114.855485,-9418.149754
2761.286229,95.712904,114.855485,-9437.292334
2761.286856,133.998066,114.855485,-9418.149754
2761.287484,133.998066,114.855485,-9418.149754
2761.288111,76.570323,114.855485,-9418.149754
2761.288739,133.998066,172.283227,-9437.292334
2761.289367,76.570323,114.855485,-9418.149754
2761.289994,95.712904,210.568389,-9418.149754
2761.290622,133.998066,153.140646,-9418.149754
2761.291250,76.570323,172.283227,-9437.292334
2761.291877,38.285162,114.855485,-9418.149754
2761.292505,114.855485,133.998066,-9360.722011
2761.293132,133.998066,133.998066,-9399.007173
2761.293760,95.712904,172.283227,-9360.722011
2761.294388,76.570323,114.855485,-9437.292334
2761.295015,38.285162,153.140646,-9418.149754
2761.295643,133.998066,114.855485,-9418.149754
2761.296270,95.712904,172.283227,-9418.149754
2761.296898,76.570323,191.425808,-9360.722011
2761.297526,95.712904,95.712904,-9399.007173
2761.298153,38.285162,114.855485,-9360.722011
2761.298781,133.998066,114.855485,-9418.149754
2761.299408,76.570323,114.855485,-9418.149754
2761.300036,133.998066,114.855485,-9418.149754
2761.300664,76.570323,172.283227,-9418.149754
2761.301291,76.570323,114.855485,-9418.149754
2761.301919,57.427742,153.140646,-9360.722011
2761.302546,95.712904,114.855485,-9437.292334
2761.303174,95.712904,153.140646,-9437.292334
2761.303802,95.712904,133.998066,-9341.579430
2761.304429,38.285162,114.855485,-9418.149754
2761.305057,76.570323,114.855485,-9418.149754
2761.305684,114.855485,191.425808,-9360.722011
2761.306312,210.568389,133.998066,-9379.864592
2761.306940,133.998066,114.855485,-9418.149754
2761.307567,95.712904,133.998066,-9360.722011
2761.308195,76.570323,114.855485,-9418.149754
2761.308823,114.855485,172.283227,-9360.722011
2761.309450,76.570323,210.568389,-9456.434915
2761.310078,95.712904,248.853550,-9360.722011
2761.310705,76.570323,153.140646,-9418.149754
2761.311333,133.998066,114.855485,-9437.292334
2761.311961,76.570323,114.855485,-9418.149754
2761.312588,133.998066,172.283227,-9418.149754
2761.313216,76.570323,153.140646,-9418.149754
2761.313843,95.712904,210.568389,-9360.722011
2761.314471,57.427742,172.283227,-9360.722011
2761.315099,57.427742,133.998066,-9360.722011
2761.315726,57.427742,95.712904,-9399.007173
2761.316354,95.712904,133.998066,-9360.722011
2761.316981,57.427742,76.570323,-9360.722011
2761.317609,114.855485,133.998066,-9360.722011
2761.318237,172.283227,114.855485,-9379.864592
2761.318864,95.712904,153.140646,-9360.722011
2761.319492,76.570323,172.283227,-9418.149754
2761.320119,95.712904,191.425808,-9341.579430
2761.320747,133.998066,133.998066,-9399.007173
2761.321375,76.570323,153.140646,-9418.149754
2761.322002,95.712904,114.855485,-9418.149754
2761.322630,76.570323,114.855485,-9360.722011
2761.323257,133.998066,114.855485,-9456.434915
2761.323885,38.285162,114.855485,-9418.149754
2761.324513,114.855485,210.568389,-9360.722011
2761.325140,95.712904,153.140646,-9360.722011
2761.325768,76.570323,114.855485,-9360.722011
2761.326395,57.427742,133.998066,-9341.579430
2761.327023,76.570323,76.570323,-9379.864592
2761.327651,153.140646,172.283227,-9399.007173
2761.328278,133.998066,153.140646,-9360.722011
2761.328906,76.570323,114.855485,-9418.149754
2761.329533,0.000000,133.998066,-9360.722011
2761.330161,38.285162,114.855485,-9418.149754
2761.330788,38.285162,114.855485,-9418.149754
2761.331416,95.712904,172.283227,-9360.722011
2761.332043,133.998066,114.855485,-9418.149754
2761.332670,95.712904,76.570323,-9379.864592
2761.333298,114.855485,95.712904,-9399.007173
2761.333925,38.285162,114.855485,-9418.149754
2761.334553,95.712904,114.855485,-9418.149754
2761.335180,114.855485,95.712904,-9399.007173
2761.335808,95.712904,153.140646,-9418.149754
2761.336435,38.285162,172.283227,-9437.292334
2761.337063,95.712904,114.855485,-9418.149754
2761.337690,76.570323,114.855485,-9418.149754
2761.338317,95.712904,95.712904,-9399.007173
2761.338945,95.712904,133.998066,-9360.722011
2761.339572,38.285162,172.283227,-9475.577496
2761.340200,76.570323,114.855485,-9418.149754
2761.340827,76.570323,114.855485,-9360.722011
2761.341455,95.712904,153.140646,-9360.722011
2761.342082,76.570323,114.855485,-9475.577496
2761.342710,153.140646,172.283227,-9399.007173
2761.343337,76.570323,153.140646,-9418.149754
2761.343964,76.570323,114.855485,-9418.149754
2761.344592,95.712904,95.712904,-9437.292334
2761.345219,95.712904,133.998066,-9360.722011
2761.345847,76.570323,172.283227,-9418.149754
2761.346474,114.855485,133.998066,-9418.149754
2761.347102,19.142581,114.855485,-9437.292334
2761.347729,95.712904,114.855485,-9418.149754
2761.348357,76.570323,114.855485,-9437.292334
2761.348984,76.570323,114.855485,-9418.149754
2761.349611,95.712904,153.140646,-9418.149754
2761.350239,76.570323,114.855485,-9418.149754
2761.350866,76.570323,153.140646,-9418.149754
2761.351494,133.998066,153.140646,-9418.149754
2761.352121,133.998066,248.853550,-9456.434915
2761.352749,76.570323,114.855485,-9418.149754
2761.353376,76.570323,153.140646,-9418.149754
2761.354004,76.570323,114.855485,-9418.149754
2761.354631,95.712904,172.283227,-9360.722011
2761.355258,133.998066,114.855485,-9418.149754
2761.355886,133.998066,114.855485,-9418.149754
2761.356513,38.285162,114.855485,-9418.149754
2761.357141,133.998066,114.855485,-9437.292334
2761.357768,172.283227,153.140646,-9379.864592
2761.358396,76.570323,114.855485,-9418.149754
2761.359023,95.712904,133.998066,-9341.579430
2761.359651,57.427742,133.998066,-9360.722011
2761.360278,38.285162,172.283227,-9418.149754
2761.360905,153.140646,133.998066,-9456.434915
2761.361533,95.712904,133.998066,-9360.722011
2761.362160,95.712904,153.140646,-9418.149754
2761.362788,114.855485,172.283227,-9360.722011
2761.363415,76.570323,114.855485,-9456.434915
2761.364043,133.998066,114.855485,-9418.149754
2761.364670,95.712904,95.712904,-9456.434915
2761.365298,76.570323,114.855485,-9418.149754
2761.365925,95.712904,133.998066,-9360.722011
2761.366552,76.570323,172.283227,-9437.292334
2761.367180,133.998066,114.855485,-9418.149754
2761.367807,153.140646,172.283227,-9437.292334
2761.368435,76.570323,114.855485,-9360.722011
2761.369062,76.570323,76.570323,-9379.864592
2761.369690,95.712904,95.712904,-9379.864592
2761.370317,57.427742,133.998066,-9360.722011
2761.370945,133.998066,114.855485,-9418.149754
2761.371572,57.427742,95.712904,-9399.007173
2761.372199,133.998066,191.425808,-9418.149754
2761.372827,38.285162,153.140646,-9418.149754
2761.373454,76.570323,153.140646,-9418.149754
2761.374082,76.570323,114.855485,-9456.434915
2761.374709,76.570323,114.855485,-9418.149754
2761.375337,95.712904,95.712904,-9399.007173
2761.375964,57.427742,133.998066,-9418.149754
2761.376592,133.998066,114.855485,-9418.149754
2761.377219,153.140646,133.998066,-9399.007173
2761.377847,133.998066,114.855485,-9418.149754
2761.378474,76.570323,114.855485,-9418.149754
2761.379101,76.570323,114.855485,-9418.149754
2761.379729,76.570323,114.855485,-9437.292334
2761.380356,114.855485,114.855485,-9399.007173
2761.380984,133.998066,172.283227,-9418.149754
2761.381611,76.570323,172.283227,-9475.577496
2761.382239,76.570323,210.568389,-9418.149754
2761.382866,76.570323,114.855485,-9418.149754
2761.383494,76.570323,114.855485,-9418.149754
2761.384121,76.570323,210.568389,-9418.149754
2761.384748,133.998066,114.855485,-9418.149754
2761.385376,95.712904,153.140646,-9360.722011
2761.386003,76.570323,153.140646,-9418.149754
2761.386631,76.570323,172.283227,-9418.149754
2761.387258,38.285162,114.855485,-9418.149754
2761.387886,95.712904,114.855485,-9360.722011
2761.388513,114.855485,172.283227,-9341.579430
2761.389141,133.998066,114.855485,-9418.149754
2761.389768,76.570323,153.140646,-9418.149754
2761.390395,133.998066,76.570323,-9379.864592
2761.391023,133.998066,153.140646,-9360.722011
2761.391650,153.140646,133.998066,-9399.007173
2761.392278,95.712904,95.712904,-9399.007173
2761.392905,57.427742,133.998066,-9341.579430
2761.393533,57.427742,133.998066,-9360.722011
2761.394160,114.855485,191.425808,-9360.722011
2761.394788,57.427742,153.140646,-9360.722011
2761.395415,76.570323,114.855485,-9418.149754
2761.396042,95.712904,95.712904,-9399.007173
2761.396670,57.427742,133.998066,-9360.722011
2761.397297,153.140646,114.855485,-9360.722011
2761.397925,133.998066,172.283227,-9418.149754
2761.398552,95.712904,153.140646,-9418.149754
2761.399180,76.570323,114.855485,-9418.149754
2761.399807,76.570323,114.855485,-9418.149754
2761.400435,133.998066,114.855485,-9418.149754
2761.401062,76.570323,76.570323,-9379.864592
2761.401689,76.570323,172.283227,-9418.149754
2761.402317,76.570323,114.855485,-9418.149754
2761.402944,153.140646,133.998066,-9399.007173
2761.403572,133.998066,172.283227,-9418.149754
2761.404199,76.570323,172.283227,-9418.149754
2761.404827,114.855485,172.283227,-9360.722011
2761.405454,172.283227,114.855485,-9379.864592
2761.406082,153.140646,133.998066,-9399.007173
2761.406709,57.427742,133.998066,-9360.722011
2761.407336,95.712904,172.283227,-9303.294269
2761.407964,172.283227,153.140646,-9284.151688
2761.408591,76.570323,114.855485,-9418.149754
2761.409219,38.285162,114.855485,-9418.149754
2761.409846,133.998066,153.140646,-9418.149754
2761.410474,95.712904,172.283227,-9360.722011
2761.411101,95.712904,95.712904,-9399.007173
2761.411729,76.570323,114.855485,-9456.434915
2761.412356,57.427742,133.998066,-9418.149754
2761.412983,133.998066,114.855485,-9418.149754
2761.413611,76.570323,114.855485,-9418.149754
2761.414238,57.427742,172.283227,-9418.149754
2761.414866,114.855485,133.998066,-9360.722011
2761.415493,95.712904,133.998066,-9360.722011
2761.416121,133.998066,210.568389,-9418.149754
2761.416748,153.140646,133.998066,-9399.007173
2761.417376,76.570323,114.855485,-9418.149754
2761.418003,38.285162,172.283227,-9418.149754
2761.418630,133.998066,172.283227,-9418.149754
2761.419258,76.570323,114.855485,-9456.434915
2761.419885,76.570323,114.855485,-9418.149754
2761.420513,95.712904,95.712904,-9399.007173
2761.421140,76.570323,114.855485,-9418.149754
2761.421768,76.570323,153.140646,-9437.292334
2761.422395,38.285162,114.855485,-9456.434915
2761.423023,133.998066,153.140646,-9399.007173
2761.423650,76.570323,114.855485,-9418.149754
2761.424277,76.570323,210.568389,-9437.292334
2761.424905,133.998066,172.283227,-9475.577496
2761.425532,76.570323,114.855485,-9418.149754
2761.426160,76.570323,210.568389,-9418.149754
2761.426787,133.998066,114.855485,-9418.149754
2761.427415,133.998066,114.855485,-9418.149754
2761.428042,133.998066,114.855485,-9418.149754
2761.428670,95.712904,133.998066,-9360.722011
2761.429297,133.998066,172.283227,-9399.007173
2761.429924,133.998066,153.140646,-9418.149754
2761.430552,76.570323,114.855485,-9360.722011
2761.431179,153.140646,133.998066,-9399.007173
2761.431806,133.998066,114.855485,-9418.149754
2761.432434,114.855485,133.998066,-9341.579430
2761.433061,76.570323,114.855485,-9418.149754
2761.433688,57.427742,114.855485,-9418.149754
2761.434316,95.712904,133.998066,-9418.149754
2761.434943,76.570323,114.855485,-9418.149754
2761.435570,133.998066,114.855485,-9418.149754
2761.436198,95.712904,95.712904,-9437.292334
2761.436825,114.855485,114.855485,-9399.007173
2761.437452,57.427742,153.140646,-9360.722011
2761.438080,133.998066,114.855485,-9360.722011
2761.438707,114.855485,133.998066,-9360.722011
2761.439334,153.140646,114.855485,-9418.149754
2761.439962,95.712904,172.283227,-9360.722011
2761.440589,114.855485,95.712904,-9399.007173
2761.441216,133.998066,133.998066,-9399.007173
2761.441844,133.998066,114.855485,-9418.149754
2761.442471,76.570323,114.855485,-9418.149754
2761.443098,76.570323,191.425808,-9360.722011
2761.443726,95.712904,153.140646,-9360.722011
2761.444353,95.712904,210.568389,-9418.149754
2761.444980,38.285162,153.140646,-9418.149754
2761.445608,95.712904,172.283227,-9418.149754
2761.446235,0.000000,133.998066,-9360.722011
2761.446862,95.712904,114.855485,-9418.149754
2761.447490,133.998066,210.568389,-9418.149754
2761.448117,38.285162,114.855485,-9437.292334
2761.448744,57.427742,95.712904,-9456.434915
2761.449372,76.570323,210.568389,-9456.434915
2761.449999,133.998066,153.140646,-9418.149754
2761.450626,133.998066,133.998066,-9399.007173
2761.451254,153.140646,191.425808,-9399.007173
2761.451881,76.570323,153.140646,-9418.149754
2761.452508,133.998066,114.855485,-9418.149754
2761.453136,76.570323,229.710970,-9456.434915
2761.453763,38.285162,114.855485,-9360.722011
2761.454390,38.285162,114.855485,-9418.149754
2761.455018,76.570323,114.855485,-9418.149754
2761.455645,38.285162,210.568389,-9494.720077
2761.456272,95.712904,172.283227,-9360.722011
2761.456900,95.712904,172.283227,-9360.722011
2761.457527,76.570323,114.855485,-9418.149754
2761.458154,133.998066,210.568389,-9418.149754
2761.458782,172.283227,172.283227,-9379.864592
2761.459409,76.570323,114.855485,-9418.149754
2761.460036,57.427742,133.998066,-9360.722011
2761.460664,76.570323,114.855485,-9418.149754
2761.461291,76.570323,153.140646,-9418.149754
2761.461919,38.285162,153.140646,-9418.149754
2761.462546,133.998066,114.855485,-9418.149754
2761.463173,76.570323,114.855485,-9418.149754
2761.463801,76.570323,114.855485,-9418.149754
2761.464428,76.570323,191.425808,-9418.149754
2761.465055,76.570323,153.140646,-9418.149754
2761.465683,133.998066,114.855485,-9418.149754
2761.466310,95.712904,114.855485,-9418.149754
2761.466937,76.570323,114.855485,-9418.149754
2761.467565,76.570323,114.855485,-9418.149754
2761.468192,133.998066,114.855485,-9418.149754
2761.468819,76.570323,153.140646,-9418.149754
2761.469447,133.998066,114.855485,-9418.149754
2761.470074,76.570323,210.568389,-9360.722011
2761.470701,76.570323,114.855485,-9437.292334
2761.471329,38.285162,114.855485,-9418.149754
2761.471956,76.570323,114.855485,-9360.722011
2761.472583,76.570323,191.425808,-9437.292334
2761.473211,153.140646,191.425808,-9399.007173
2761.473838,133.998066,172.283227,-9418.149754
2761.474465,76.570323,153.140646,-9418.149754
2761.475093,76.570323,172.283227,-9418.149754
2761.475720,95.712904,114.855485,-9418.149754
2761.476347,95.712904,114.855485,-9418.149754
2761.476975,76.570323,114.855485,-9418.149754
2761.477602,114.855485,95.712904,-9399.007173
2761.478229,172.283227,191.425808,-9379.864592
2761.478857,153.140646,133.998066,-9399.007173
2761.479484,76.570323,114.855485,-9418.149754
2761.480111,76.570323,153.140646,-9418.149754
2761.480739,57.427742,153.140646,-9360.722011
2761.481366,133.998066,114.855485,-9360.722011
2761.481993,95.712904,133.998066,-9360.722011
2761.482621,95.712904,153.140646,-9284.151688
2761.483248,57.427742,114.855485,-9456.434915
2761.483875,76.570323,172.283227,-9418.149754
2761.484503,76.570323,114.855485,-9418.149754
2761.485130,76.570323,153.140646,-9418.149754
2761.485757,38.285162,114.855485,-9437.292334
2761.486385,38.285162,114.855485,-9456.434915
2761.487012,114.855485,153.140646,-9341.579430
2761.487639,114.855485,133.998066,-9360.722011
2761.488267,76.570323,114.855485,-9494.720077
2761.488894,114.855485,133.998066,-9418.149754
2761.489521,153.140646,133.998066,-9437.292334
2761.490149,133.998066,114.855485,-9418.149754
2761.490776,76.570323,114.855485,-9418.149754
2761.491403,153.140646,172.283227,-9399.007173
2761.492031,133.998066,210.568389,-9456.434915
2761.492658,114.855485,95.712904,-9399.007173
2761.493285,38.285162,191.425808,-9418.149754
2761.493913,76.570323,153.140646,-9418.149754
2761.494540,114.855485,95.712904,-9399.007173
2761.495167,114.855485,153.140646,-9360.722011
2761.495795,133.998066,114.855485,-9418.149754
2761.496422,38.285162,153.140646,-9418.149754
2761.497049,95.712904,95.712904,-9399.007173
2761.497677,95.712904,114.855485,-9418.149754
2761.498304,95.712904,95.712904,-9399.007173
2761.498931,76.570323,172.283227,-9418.149754
2761.499559,38.285162,114.855485,-9418.149754
2761.500186,114.855485,95.712904,-9399.007173
2761.500814,95.712904,133.998066,-9360.722011
2761.501441,76.570323,191.425808,-9360.722011
2761.502068,114.855485,114.855485,-9379.864592
2761.502696,76.570323,114.855485,-9456.434915
2761.503323,76.570323,153.140646,-9418.149754
2761.503950,133.998066,153.140646,-9418.149754
2761.504578,95.712904,191.425808,-9360.722011
2761.505205,76.570323,133.998066,-9360.722011
2761.505832,76.570323,114.855485,-9418.149754
2761.506460,76.570323,95.712904,-9399.007173
2761.507087,133.998066,172.283227,-9456.434915
2761.507714,95.712904,114.855485,-9418.149754
2761.508342,76.570323,114.855485,-9456.434915
2761.508969,76.570323,114.855485,-9437.292334
2761.509596,172.283227,133.998066,-9360.722011
2761.510224,114.855485,76.570323,-9418.149754
2761.510851,133.998066,114.855485,-9418.149754
2761.511478,76.570323,172.283227,-9418.149754
2761.512106,172.283227,153.140646,-9360.722011
2761.512733,76.570323,114.855485,-9418.149754
2761.513360,38.285162,114.855485,-9418.149754
2761.513988,76.570323,114.855485,-9418.149754
2761.514615,133.998066,153.140646,-9418.149754
2761.515242,95.712904,133.998066,-9360.722011
2761.515870,76.570323,114.855485,-9418.149754
2761.516497,133.998066,114.855485,-9418.149754
2761.517124,38.285162,114.855485,-9418.149754
2761.517752,133.998066,153.140646,-9418.149754
2761.518379,57.427742,153.140646,-9360.722011
2761.519006,76.570323,114.855485,-9418.149754
2761.519634,133.998066,114.855485,-9418.149754
2761.520261,38.285162,172.283227,-9418.149754
2761.520888,76.570323,153.140646,-9418.149754
2761.521516,38.285162,114.855485,-9418.149754
2761.522143,95.712904,172.283227,-9360.722011
2761.522770,57.427742,133.998066,-9418.149754
2761.523398,76.570323,114.855485,-9475.577496
2761.524025,114.855485,191.425808,-9360.722011
2761.524652,76.570323,114.855485,-9418.149754
2761.525280,153.140646,133.998066,-9399.007173
2761.525907,76.570323,114.855485,-9418.149754
2761.526534,19.142581,153.140646,-9418.149754
2761.527162,38.285162,114.855485,-9418.149754
2761.527789,76.570323,172.283227,-9418.149754
2761.528416,57.427742,172.283227,-9360.722011
2761.529044,76.570323,114.855485,-9418.149754
2761.529671,95.712904,133.998066,-9360.722011
2761.530298,133.998066,114.855485,-9418.149754
2761.530926,38.285162,114.855485,-9418.149754
2761.531553,114.855485,153.140646,-9360.722011
2761.532180,95.712904,153.140646,-9360.722011
2761.532807,95.712904,172.283227,-9360.722011
2761.533435,95.712904,114.855485,-9399.007173
2761.534062,76.570323,210.568389,-9418.149754
2761.534689,114.855485,133.998066,-9322.436850
2761.535316,95.712904,114.855485,-9418.149754
2761.535944,133.998066,114.855485,-9418.149754
2761.536571,57.427742,95.712904,-9379.864592
2761.537198,133.998066,114.855485,-9418.149754
2761.537825,76.570323,114.855485,-9418.149754
2761.538453,133.998066,114.855485,-9418.149754
2761.539080,95.712904,133.998066,-9360.722011
2761.539707,133.998066,114.855485,-9456.434915
2761.540334,76.570323,114.855485,-9418.149754
2761.540962,57.427742,133.998066,-9360.722011
2761.541589,95.712904,95.712904,-9399.007173
2761.542216,133.998066,114.855485,-9418.149754
2761.542843,210.568389,114.855485,-9322.436850
2761.543471,76.570323,114.855485,-9418.149754
2761.544098,114.855485,172.283227,-9379.864592
2761.544725,153.140646,172.283227,-9399.007173
2761.545353,38.285162,153.140646,-9418.149754
2761.545980,76.570323,114.855485,-9418.149754
2761.546607,95.712904,133.998066,-9360.722011
2761.547234,133.998066,153.140646,-9418.149754
2761.547862,95.712904,114.855485,-9418.149754
2761.548489,95.712904,133.998066,-9341.579430
2761.549116,57.427742,133.998066,-9360.722011
2761.549743,95.712904,133.998066,-9360.722011
2761.550371,76.570323,153.140646,-9418.149754
2761.550998,95.712904,114.855485,-9418.149754
2761.551625,114.855485,133.998066,-9341.579430
2761.552252,95.712904,133.998066,-9341.579430
2761.552880,38.285162,114.855485,-9360.722011
2761.553507,76.570323,114.855485,-9418.149754
2761.554134,38.285162,153.140646,-9360.722011
2761.554761,133.998066,114.855485,-9418.149754
2761.555389,95.712904,95.712904,-9379.864592
2761.556016,95.712904,95.712904,-9399.007173
2761.556643,133.998066,114.855485,-9418.149754
2761.557270,153.140646,133.998066,-9399.007173
2761.557898,133.998066,153.140646,-9437.292334
2761.558525,95.712904,114.855485,-9418.149754
2761.559152,38.285162,114.855485,-9418.149754
2761.559780,114.855485,172.283227,-9360.722011
2761.560407,76.570323,114.855485,-9418.149754
2761.561034,38.285162,114.855485,-9418.149754
2761.561661,38.285162,114.855485,-9418.149754
2761.562289,153.140646,172.283227,-9399.007173
2761.562916,153.140646,153.140646,-9399.007173
2761.563543,133.998066,114.855485,-9418.149754
2761.564170,153.140646,133.998066,-9399.007173
2761.564798,57.427742,114.855485,-9399.007173
2761.565425,133.998066,133.998066,-9399.007173
2761.566052,114.855485,153.140646,-9360.722011
2761.566679,133.998066,114.855485,-9418.149754
2761.567307,76.570323,133.998066,-9360.722011
2761.567934,133.998066,172.283227,-9360.722011
2761.568561,95.712904,172.283227,-9360.722011
2761.569188,95.712904,114.855485,-9399.007173
2761.569816,114.855485,133.998066,-9360.722011
2761.570443,114.855485,133.998066,-9360.722011
2761.571070,114.855485,191.425808,-9360.722011
2761.571698,76.570323,172.283227,-9437.292334
2761.572325,95.712904,133.998066,-9341.579430
2761.572952,76.570323,114.855485,-9418.149754
2761.573579,-38.285162,114.855485,-9418.149754
2761.574207,95.712904,153.140646,-9360.722011
2761.574834,38.285162,153.140646,-9418.149754
2761.575461,57.427742,133.998066,-9418.149754
2761.576088,133.998066,114.855485,-9418.149754
2761.576716,114.855485,210.568389,-9360.722011
2761.577343,76.570323,210.568389,-9418.149754
2761.577970,153.140646,114.855485,-9418.149754
2761.578597,76.570323,114.855485,-9418.149754
2761.579225,76.570323,114.855485,-9456.434915
2761.579852,133.998066,114.855485,-9456.434915
2761.580479,57.427742,133.998066,-9360.722011
2761.581106,57.427742,172.283227,-9341.579430
2761.581734,38.285162,153.140646,-9360.722011
2761.582361,76.570323,114.855485,-9360.722011
2761.582988,133.998066,114.855485,-9418.149754
2761.583615,133.998066,114.855485,-9418.149754
2761.584243,76.570323,114.855485,-9418.149754
2761.584870,95.712904,153.140646,-9341.579430
2761.585497,153.140646,133.998066,-9399.007173
2761.586125,153.140646,114.855485,-9418.149754
2761.586752,133.998066,133.998066,-9399.007173
2761.587379,133.998066,114.855485,-9418.149754
2761.588006,76.570323,114.855485,-9418.149754
2761.588634,95.712904,172.283227,-9418.149754
2761.589261,76.570323,153.140646,-9418.149754
2761.589888,76.570323,114.855485,-9418.149754
2761.590515,133.998066,114.855485,-9399.007173
2761.591143,133.998066,114.855485,-9418.149754
2761.591770,133.998066,172.283227,-9418.149754
2761.592397,57.427742,133.998066,-9360.722011
2761.593024,76.570323,229.710970,-9418.149754
2761.593652,57.427742,153.140646,-9360.722011
2761.594279,133.998066,114.855485,-9418.149754
2761.594906,76.570323,153.140646,-9418.149754
2761.595533,114.855485,95.712904,-9399.007173
2761.596161,133.998066,114.855485,-9418.149754
2761.596788,153.140646,133.998066,-9399.007173
2761.597415,114.855485,114.855485,-9379.864592
2761.598042,76.570323,114.855485,-9418.149754
2761.598670,114.855485,153.140646,-9360.722011
2761.599297,57.427742,172.283227,-9360.722011
2761.599924,76.570323,191.425808,-9418.149754
2761.600552,38.285162,114.855485,-9418.149754
2761.601179,114.855485,133.998066,-9360.722011
2761.601806,133.998066,133.998066,-9379.864592
2761.602433,191.425808,153.140646,-9379.864592
2761.603061,76.570323,114.855485,-9437.292334
2761.603688,95.712904,95.712904,-9399.007173
2761.604315,95.712904,114.855485,-9437.292334
2761.604942,95.712904,133.998066,-9360.722011
2761.605570,133.998066,114.855485,-9418.149754
2761.606197,76.570323,153.140646,-9418.149754
2761.606824,38.285162,133.998066,-9341.579430
2761.607451,57.427742,95.712904,-9456.434915
2761.608079,76.570323,133.998066,-9360.722011
2761.608706,133.998066,133.998066,-9399.007173
2761.609333,38.285162,114.855485,-9418.149754
2761.609960,114.855485,133.998066,-9322.436850
2761.610588,133.998066,95.712904,-9360.722011
2761.611215,95.712904,133.998066,-9360.722011
2761.611842,76.570323,172.283227,-9418.149754
2761.612469,153.140646,191.425808,-9399.007173
2761.613097,95.712904,133.998066,-9360.722011
2761.613724,95.712904,114.855485,-9418.149754
2761.614351,38.285162,114.855485,-9437.292334
2761.614979,76.570323,153.140646,-9418.149754
2761.615606,76.570323,114.855485,-9418.149754
2761.616233,38.285162,76.570323,-9379.864592
2761.616860,38.285162,114.855485,-9418.149754
2761.617488,76.570323,210.568389,-9418.149754
2761.618115,133.998066,172.283227,-9456.434915
2761.618742,95.712904,133.998066,-9360.722011
2761.619369,38.285162,153.140646,-9418.149754
2761.619997,38.285162,114.855485,-9418.149754
2761.620624,95.712904,114.855485,-9399.007173
2761.621251,76.570323,114.855485,-9418.149754
2761.621878,133.998066,172.283227,-9418.149754
2761.622506,76.570323,114.855485,-9418.149754
2761.623133,114.855485,133.998066,-9360.722011
2761.623760,133.998066,114.855485,-9418.149754
2761.624387,172.283227,172.283227,-9379.864592
2761.625015,114.855485,153.140646,-9360.722011
2761.625642,76.570323,210.568389,-9418.149754
2761.626269,38.285162,229.710970,-9437.292334
2761.626896,38.285162,191.425808,-9360.722011
2761.627524,57.427742,114.855485,-9418.149754
2761.628151,95.712904,210.568389,-9418.149754
2761.628778,95.712904,114.855485,-9418.149754
2761.629406,133.998066,172.283227,-9418.149754
2761.630033,133.998066,114.855485,-9418.149754
2761.630660,133.998066,114.855485,-9418.149754
2761.631288,76.570323,172.283227,-9418.149754
2761.631915,57.427742,153.140646,-9341.579430
2761.632542,133.998066,133.998066,-9399.007173
2761.633170,133.998066,153.140646,-9418.149754
2761.633797,38.285162,114.855485,-9418.149754
2761.634424,76.570323,172.283227,-9456.434915
2761.635052,133.998066,153.140646,-9399.007173
2761.635679,95.712904,133.998066,-9360.722011
2761.636306,153.140646,133.998066,-9399.007173
2761.636934,76.570323,114.855485,-9437.292334
2761.637561,76.570323,114.855485,-9418.149754
2761.638188,153.140646,133.998066,-9399.007173
2761.638816,114.855485,133.998066,-9360.722011
2761.639443,95.712904,95.712904,-9399.007173
2761.640071,76.570323,114.855485,-9418.149754
2761.640698,76.570323,191.425808,-9418.149754
2761.641325,76.570323,114.855485,-9418.149754
2761.641953,38.285162,114.855485,-9360.722011
2761.642580,57.427742,114.855485,-9418.149754
2761.643207,19.142581,172.283227,-9418.149754
2761.643835,95.712904,95.712904,-9399.007173
2761.644462,57.427742,133.998066,-9360.722011
2761.645089,133.998066,114.855485,-9418.149754
2761.645717,133.998066,114.855485,-9418.149754
2761.646344,133.998066,172.283227,-9418.149754
2761.646971,133.998066,114.855485,-9418.149754
2761.647599,133.998066,114.855485,-9437.292334
2761.648226,38.285162,114.855485,-9418.149754
2761.648853,172.283227,76.570323,-9418.149754
2761.649481,153.140646,133.998066,-9399.007173
2761.650108,95.712904,95.712904,-9399.007173
2761.650736,76.570323,114.855485,-9437.292334
2761.651363,153.140646,191.425808,-9456.434915
2761.651990,95.712904,210.568389,-9418.149754
2761.652618,76.570323,114.855485,-9456.434915
2761.653245,172.283227,95.712904,-9399.007173
2761.653872,133.998066,114.855485,-9418.149754
2761.654500,133.998066,133.998066,-9399.007173
2761.655127,57.427742,191.425808,-9360.722011
2761.655754,95.712904,172.283227,-9360.722011
2761.656382,76.570323,114.855485,-9418.149754
2761.657009,172.283227,114.855485,-9379.864592
2761.657636,76.570323,172.283227,-9437.292334
2761.658264,133.998066,114.855485,-9418.149754
2761.658891,114.855485,133.998066,-9360.722011
2761.659518,133.998066,114.855485,-9418.149754
2761.660146,133.998066,114.855485,-9418.149754
2761.660773,95.712904,133.998066,-9360.722011
2761.661401,114.855485,95.712904,-9399.007173
2761.662028,133.998066,114.855485,-9418.149754
2761.662655,76.570323,172.283227,-9360.722011
2761.663283,133.998066,114.855485,-9360.722011
2761.663910,133.998066,210.568389,-9418.149754
2761.664537,114.855485,95.712904,-9399.007173
2761.665165,133.998066,114.855485,-9418.149754
2761.665792,133.998066,153.140646,-9418.149754
2761.666419,133.998066,133.998066,-9399.007173
2761.667047,76.570323,133.998066,-9379.864592
2761.667674,95.712904,133.998066,-9360.722011
2761.668301,95.712904,153.140646,-9360.722011
2761.668929,76.570323,114.855485,-9418.149754
2761.669556,153.140646,133.998066,-9399.007173
