#time,accel_x,accel_y,accel_z
2695.590260,133.998066,114.855485,-9418.149754
2695.590887,76.570323,210.568389,-9418.149754
2695.591514,133.998066,114.855485,-9418.149754
2695.592141,153.140646,133.998066,-9399.007173
2695.592768,114.855485,172.283227,-9360.722011
2695.593395,133.998066,210.568389,-9418.149754
2695.594022,76.570323,114.855485,-9418.149754
2695.594649,114.855485,133.998066,-9360.722011
2695.595276,133.998066,172.283227,-9360.722011
2695.595903,133.998066,76.570323,-9379.864592
2695.596530,57.427742,133.998066,-9360.722011
2695.597157,76.570323,114.855485,-9418.149754
2695.597784,38.285162,114.855485,-9418.149754
2695.598411,38.285162,172.283227,-9418.149754
2695.599038,133.998066,191.425808,-9418.149754
2695.599665,76.570323,114.855485,-9475.577496
2695.600292,114.855485,133.998066,-9360.722011
2695.600919,114.855485,114.855485,-9379.864592
2695.601546,38.285162,114.855485,-9418.149754
2695.602173,57.427742,95.712904,-9399.007173
2695.602800,76.570323,114.855485,-9418.149754
2695.603427,76.570323,114.855485,-9418.149754
2695.604054,76.570323,210.568389,-9418.149754
2695.604681,76.570323,114.855485,-9418.149754
2695.605308,133.998066,76.570323,-9379.864592
2695.605935,133.998066,114.855485,-9418.149754
2695.606562,133.998066,153.140646,-9418.149754
2695.607189,172.283227,95.712904,-9399.007173
2695.607816,153.140646,153.140646,-9437.292334
2695.608443,133.998066,114.855485,-9418.149754
2695.609070,76.570323,172.283227,-9418.149754
2695.609697,114.855485,172.283227,-9418.149754
2695.610324,38.285162,114.855485,-9456.434915
2695.610951,114.855485,133.998066,-9341.579430
2695.611577,133.998066,191.425808,-9418.149754
2695.612204,95.712904,114.855485,-9418.149754
2695.612831,133.998066,114.855485,-9360.722011
2695.613458,114.855485,153.140646,-9360.722011
2695.614085,133.998066,114.855485,-9418.149754
2695.614712,153.140646,153.140646,-9437.292334
2695.615339,95.712904,114.855485,-9418.149754
2695.615966,133.998066,114.855485,-9341.579430
2695.616593,76.570323,133.998066,-9399.007173
2695.617220,38.285162,114.855485,-9418.149754
2695.617847,76.570323,172.283227,-9418.149754
2695.618474,133.998066,114.855485,-9418.149754
2695.619101,76.570323,114.855485,-9418.149754
2695.619728,76.570323,172.283227,-9360.722011
2695.620355,76.570323,172.283227,-9418.149754
2695.620982,38.285162,114.855485,-9418.149754
2695.621609,38.285162,114.855485,-9418.149754
2695.622236,133.998066,172.283227,-9418.149754
2695.622863,133.998066,210.568389,-9399.007173
2695.623490,114.855485,191.425808,-9360.722011
2695.624117,133.998066,172.283227,-9418.149754
2695.624744,95.712904,114.855485,-9418.149754
2695.625371,76.570323,172.283227,-9418.149754
2695.625998,133.998066,114.855485,-9418.149754
2695.626625,57.427742,153.140646,-9360.722011
2695.627252,133.998066,191.425808,-9399.007173
2695.627879,76.570323,229.710970,-9437.292334
2695.628506,114.855485,95.712904,-9399.007173
2695.629133,114.855485,133.998066,-9360.722011
2695.629760,133.998066,153.140646,-9399.007173
2695.630387,76.570323,114.855485,-9475.577496
2695.631014,95.712904,114.855485,-9437.292334
2695.631641,38.285162,114.855485,-9437.292334
2695.632268,133.998066,114.855485,-9418.149754
2695.632895,133.998066,114.855485,-9418.149754
2695.633521,133.998066,133.998066,-9437.292334
2695.634148,114.855485,133.998066,-9360.722011
2695.634775,76.570323,76.570323,-9322.436850
2695.635402,76.570323,114.855485,-9418.149754
2695.636029,76.570323,114.855485,-9418.149754
2695.636656,57.427742,95.712904,-9399.007173
2695.637283,38.285162,191.425808,-9418.149754
2695.637910,76.570323,153.140646,-9418.149754
2695.638537,38.285162,114.855485,-9456.434915
2695.639164,38.285162,172.283227,-9456.434915
2695.639791,95.712904,133.998066,-9360.722011
2695.640418,76.570323,114.855485,-9418.149754
2695.641045,76.570323,114.855485,-9418.149754
2695.641672,95.712904,172.283227,-9360.722011
2695.642299,76.570323,114.855485,-9475.577496
2695.642926,114.855485,153.140646,-9418.149754
2695.643553,133.998066,153.140646,-9418.149754
2695.644180,114.855485,133.998066,-9360.722011
2695.644807,76.570323,153.140646,-9418.149754
2695.645434,133.998066,114.855485,-9418.149754
2695.646061,133.998066,210.568389,-9418.149754
2695.646688,38.285162,114.855485,-9418.149754
2695.647315,95.712904,172.283227,-9418.149754
2695.647942,76.570323,114.855485,-9418.149754
2695.648569,76.570323,114.855485,-9418.149754
2695.649196,57.427742,210.568389,-9360.722011
2695.649823,38.285162,114.855485,-9418.149754
2695.650450,38.285162,114.855485,-9418.149754
2695.651077,95.712904,172.283227,-9360.722011
2695.651704,38.285162,210.568389,-9456.434915
2695.652331,76.570323,153.140646,-9418.149754
2695.652958,57.427742,133.998066,-9360.722011
2695.653585,95.712904,95.712904,-9399.007173
2695.654212,57.427742,133.998066,-9360.722011
2695.654839,133.998066,172.283227,-9418.149754
2695.655466,133.998066,172.283227,-9418.149754
2695.656093,57.427742,248.853550,-9360.722011
2695.656720,38.285162,172.283227,-9418.149754
2695.657347,95.712904,153.140646,-9360.722011
2695.657974,133.998066,114.855485,-9418.149754
2695.658601,76.570323,172.283227,-9418.149754
2695.659228,76.570323,76.570323,-9379.864592
2695.659855,133.998066,114.855485,-9418.149754
2695.660482,172.283227,114.855485,-9322.436850
2695.661109,57.427742,133.998066,-9341.579430
2695.661736,76.570323,153.140646,-9418.149754
2695.662363,38.285162,172.283227,-9322.436850
2695.662991,153.140646,153.140646,-9399.007173
2695.663618,133.998066,114.855485,-9418.149754
2695.664245,95.712904,114.855485,-9418.149754
2695.664872,76.570323,114.855485,-9360.722011
2695.665499,95.712904,95.712904,-9379.864592
2695.666126,38.285162,114.855485,-9456.434915
2695.666753,19.142581,114.855485,-9418.149754
2695.667380,95.712904,133.998066,-9418.149754
2695.668007,57.427742,95.712904,-9494.720077
2695.668634,38.285162,172.283227,-9418.149754
2695.669261,76.570323,229.710970,-9418.149754
2695.669888,95.712904,95.712904,-9399.007173
2695.670515,95.712904,133.998066,-9360.722011
2695.671142,57.427742,133.998066,-9360.722011
2695.671769,172.283227,95.712904,-9399.007173
2695.672396,172.283227,114.855485,-9379.864592
2695.673023,95.712904,133.998066,-9360.722011
2695.673650,76.570323,153.140646,-9456.434915
2695.674277,76.570323,172.283227,-9418.149754
2695.674904,38.285162,210.568389,-9418.149754
2695.675531,38.285162,210.568389,-9418.149754
2695.676158,76.570323,114.855485,-9418.149754
2695.676785,95.712904,114.855485,-9418.149754
2695.677412,114.855485,153.140646,-9360.722011
2695.678039,95.712904,133.998066,-9284.151688
2695.678666,76.570323,210.568389,-9418.149754
2695.679293,133.998066,153.140646,-9418.149754
2695.679920,133.998066,153.140646,-9418.149754
2695.680547,153.140646,153.140646,-9399.007173
2695.681174,38.285162,172.283227,-9418.149754
2695.681801,38.285162,114.855485,-9494.720077
2695.682428,38.285162,153.140646,-9418.149754
2695.683055,114.855485,114.855485,-9418.149754
2695.683682,95.712904,133.998066,-9360.722011
2695.684309,95.712904,153.140646,-9360.722011
2695.684936,76.570323,153.140646,-9456.434915
2695.685563,133.998066,172.283227,-9475.577496
2695.686190,153.140646,191.425808,-9399.007173
2695.686818,95.712904,153.140646,-9418.149754
2695.687445,95.712904,210.568389,-9418.149754
2695.688072,95.712904,114.855485,-9418.149754
2695.688699,76.570323,114.855485,-9418.149754
2695.689326,76.570323,114.855485,-9418.149754
2695.689953,133.998066,114.855485,-9418.149754
2695.690580,114.855485,133.998066,-9360.722011
2695.691207,95.712904,191.425808,-9360.722011
2695.691834,57.427742,153.140646,-9360.722011
2695.692461,76.570323,114.855485,-9418.149754
2695.693088,57.427742,114.855485,-9418.149754
2695.693715,76.570323,114.855485,-9418.149754
2695.694342,76.570323,76.570323,-9379.864592
2695.694969,95.712904,133.998066,-9360.722011
2695.695596,133.998066,172.283227,-9418.149754
2695.696223,95.712904,133.998066,-9360.722011
2695.696850,133.998066,114.855485,-9418.149754
2695.697477,76.570323,153.140646,-9418.149754
2695.698104,76.570323,114.855485,-9418.149754
2695.698731,95.712904,172.283227,-9418.149754
2695.699358,38.285162,114.855485,-9418.149754
2695.699985,76.570323,114.855485,-9418.149754
2695.700612,76.570323,153.140646,-9360.722011
2695.701239,76.570323,210.568389,-9418.149754
2695.701866,133.998066,210.568389,-9418.149754
2695.702493,133.998066,114.855485,-9418.149754
2695.703120,76.570323,114.855485,-9456.434915
2695.703747,76.570323,114.855485,-9418.149754
2695.704374,172.283227,172.283227,-9360.722011
2695.705001,114.855485,153.140646,-9379.864592
2695.705628,38.285162,172.283227,-9418.149754
2695.706255,38.285162,172.283227,-9418.149754
2695.706882,76.570323,153.140646,-9360.722011
2695.707509,38.285162,114.855485,-9360.722011
2695.708136,76.570323,210.568389,-9418.149754
2695.708763,76.570323,153.140646,-9418.149754
2695.709390,95.712904,133.998066,-9360.722011
2695.710017,95.712904,95.712904,-9399.007173
2695.710644,76.570323,114.855485,-9437.292334
2695.711272,38.285162,153.140646,-9418.149754
2695.711899,76.570323,210.568389,-9437.292334
2695.712526,133.998066,114.855485,-9418.149754
2695.713153,76.570323,114.855485,-9418.149754
2695.713780,76.570323,114.855485,-9418.149754
2695.714407,76.570323,114.855485,-9418.149754
2695.715034,38.285162,172.283227,-9418.149754
2695.715661,172.283227,114.855485,-9379.864592
2695.716288,133.998066,114.855485,-9418.149754
2695.716915,95.712904,133.998066,-9360.722011
2695.717542,153.140646,133.998066,-9399.007173
2695.718169,153.140646,133.998066,-9399.007173
2695.718796,133.998066,114.855485,-9418.149754
2695.719423,95.712904,153.140646,-9360.722011
2695.720050,133.998066,172.283227,-9418.149754
2695.720677,172.283227,76.570323,-9418.149754
2695.721304,133.998066,114.855485,-9418.149754
2695.721931,133.998066,172.283227,-9418.149754
2695.722558,57.427742,153.140646,-9418.149754
2695.723185,95.712904,133.998066,-9360.722011
2695.723812,133.998066,114.855485,-9418.149754
2695.724439,133.998066,114.855485,-9418.149754
2695.725066,133.998066,229.710970,-9418.149754
2695.725693,95.712904,133.998066,-9360.722011
2695.726320,133.998066,114.855485,-9418.149754
2695.726947,95.712904,133.998066,-9360.722011
2695.727574,38.285162,210.568389,-9418.149754
2695.728201,57.427742,229.710970,-9418.149754
2695.728828,76.570323,172.283227,-9418.149754
2695.729455,38.285162,172.283227,-9456.434915
2695.730082,114.855485,133.998066,-9360.722011
2695.730709,133.998066,172.283227,-9418.149754
2695.731336,76.570323,114.855485,-9418.149754
2695.731963,95.712904,133.998066,-9360.722011
2695.732590,95.712904,133.998066,-9360.722011
2695.733217,76.570323,210.568389,-9418.149754
2695.733844,76.570323,114.855485,-9418.149754
2695.734471,133.998066,172.283227,-9418.149754
2695.735099,38.285162,172.283227,-9437.292334
2695.735726,76.570323,210.568389,-9494.720077
2695.736353,95.712904,153.140646,-9437.292334
2695.736980,114.855485,95.712904,-9399.007173
2695.737607,76.570323,172.283227,-9418.149754
2695.738234,153.140646,172.283227,-9437.292334
2695.738861,57.427742,210.568389,-9418.149754
2695.739488,133.998066,114.855485,-9418.149754
2695.740115,133.998066,172.283227,-9418.149754
2695.740742,133.998066,153.140646,-9418.149754
2695.741369,133.998066,153.140646,-9456.434915
2695.741996,114.855485,133.998066,-9360.722011
2695.742623,153.140646,153.140646,-9418.149754
2695.743250,95.712904,172.283227,-9360.722011
2695.743877,133.998066,114.855485,-9418.149754
2695.744504,38.285162,114.855485,-9418.149754
2695.745131,133.998066,153.140646,-9418.149754
2695.745758,172.283227,114.855485,-9379.864592
2695.746385,76.570323,76.570323,-9379.864592
2695.747012,76.570323,172.283227,-9418.149754
2695.747639,38.285162,172.283227,-9418.149754
2695.748266,95.712904,114.855485,-9456.434915
2695.748893,57.427742,133.998066,-9360.722011
2695.749521,95.712904,133.998066,-9360.722011
2695.750148,153.140646,133.998066,-9379.864592
2695.750775,95.712904,153.140646,-9360.722011
2695.751402,114.855485,133.998066,-9360.722011
2695.752029,76.570323,153.140646,-9418.149754
2695.752656,114.855485,172.283227,-9360.722011
2695.753284,38.285162,153.140646,-9418.149754
2695.753911,76.570323,114.855485,-9418.149754
2695.754538,38.285162,114.855485,-9437.292334
2695.755165,38.285162,172.283227,-9418.149754
2695.755792,76.570323,210.568389,-9418.149754
2695.756419,133.998066,210.568389,-9418.149754
2695.757047,76.570323,114.855485,-9341.579430
2695.757674,114.855485,133.998066,-9360.722011
2695.758301,76.570323,95.712904,-9399.007173
2695.758928,76.570323,114.855485,-9418.149754
2695.759555,38.285162,114.855485,-9456.434915
2695.760182,76.570323,114.855485,-9360.722011
2695.760810,57.427742,133.998066,-9360.722011
2695.761437,95.712904,133.998066,-9360.722011
2695.762064,95.712904,133.998066,-9341.579430
2695.762691,38.285162,114.855485,-9418.149754
2695.763318,95.712904,133.998066,-9360.722011
2695.763945,114.855485,133.998066,-9360.722011
2695.764573,76.570323,114.855485,-9418.149754
2695.765200,76.570323,114.855485,-9418.149754
2695.765827,153.140646,95.712904,-9360.722011
2695.766454,76.570323,114.855485,-9418.149754
2695.767081,95.712904,133.998066,-9360.722011
2695.767708,57.427742,172.283227,-9437.292334
2695.768336,76.570323,172.283227,-9418.149754
2695.768963,57.427742,95.712904,-9399.007173
2695.769590,133.998066,114.855485,-9418.149754
2695.770217,153.140646,133.998066,-9456.434915
2695.770844,76.570323,210.568389,-9360.722011
2695.771471,38.285162,114.855485,-9418.149754
2695.772099,95.712904,114.855485,-9418.149754
2695.772726,172.283227,76.570323,-9418.149754
2695.773353,133.998066,114.855485,-9418.149754
2695.773980,38.285162,114.855485,-9418.149754
2695.774607,57.427742,172.283227,-9360.722011
2695.775234,95.712904,153.140646,-9418.149754
2695.775862,133.998066,114.855485,-9456.434915
2695.776489,76.570323,153.140646,-9418.149754
2695.777116,114.855485,114.855485,-9379.864592
2695.777743,153.140646,210.568389,-9456.434915
2695.778370,153.140646,153.140646,-9399.007173
2695.778997,76.570323,172.283227,-9437.292334
2695.779625,19.142581,133.998066,-9399.007173
2695.780252,57.427742,114.855485,-9418.149754
2695.780879,38.285162,114.855485,-9418.149754
2695.781506,76.570323,210.568389,-9418.149754
2695.782133,76.570323,114.855485,-9456.434915
2695.782760,133.998066,114.855485,-9418.149754
2695.783388,133.998066,153.140646,-9418.149754
2695.784015,76.570323,172.283227,-9418.149754
2695.784642,95.712904,153.140646,-9360.722011
2695.785269,76.570323,172.283227,-9418.149754
2695.785896,133.998066,153.140646,-9418.149754
2695.786524,95.712904,133.998066,-9360.722011
2695.787151,133.998066,114.855485,-9418.149754
2695.787778,76.570323,114.855485,-9418.149754
2695.788405,76.570323,114.855485,-9418.149754
2695.789032,38.285162,114.855485,-9360.722011
2695.789659,76.570323,153.140646,-9418.149754
2695.790287,76.570323,76.570323,-9322.436850
2695.790914,95.712904,114.855485,-9418.149754
2695.791541,114.855485,153.140646,-9360.722011
2695.792168,114.855485,172.283227,-9360.722011
2695.792795,19.142581,114.855485,-9494.720077
2695.793422,57.427742,95.712904,-9437.292334
2695.794050,95.712904,95.712904,-9399.007173
2695.794677,76.570323,172.283227,-9418.149754
2695.795304,114.855485,95.712904,-9399.007173
2695.795931,114.855485,133.998066,-9341.579430
2695.796558,76.570323,114.855485,-9456.434915
2695.797185,133.998066,172.283227,-9418.149754
2695.797813,133.998066,133.998066,-9456.434915
2695.798440,76.570323,172.283227,-9418.149754
2695.799067,133.998066,172.283227,-9456.434915
2695.799694,95.712904,95.712904,-9399.007173
2695.800321,38.285162,153.140646,-9418.149754
2695.800948,95.712904,95.712904,-9399.007173
2695.801576,133.998066,153.140646,-9399.007173
2695.802203,95.712904,210.568389,-9418.149754
2695.802830,76.570323,172.283227,-9360.722011
2695.803457,133.998066,172.283227,-9418.149754
2695.804084,114.855485,133.998066,-9360.722011
2695.804711,76.570323,114.855485,-9418.149754
2695.805339,95.712904,114.855485,-9418.149754
2695.805966,153.140646,153.140646,-9399.007173
2695.806593,133.998066,114.855485,-9418.149754
2695.807220,133.998066,210.568389,-9418.149754
2695.807847,76.570323,153.140646,-9437.292334
2695.808474,133.998066,153.140646,-9418.149754
2695.809102,114.855485,172.283227,-9379.864592
2695.809729,95.712904,172.283227,-9360.722011
2695.810356,133.998066,153.140646,-9456.434915
2695.810983,114.855485,172.283227,-9360.722011
2695.811610,76.570323,114.855485,-9418.149754
2695.812237,133.998066,153.140646,-9418.149754
2695.812865,95.712904,133.998066,-9360.722011
2695.813492,76.570323,191.425808,-9418.149754
2695.814119,38.285162,114.855485,-9418.149754
2695.814746,133.998066,172.283227,-9437.292334
2695.815373,76.570323,172.283227,-9418.149754
2695.816000,133.998066,229.710970,-9418.149754
2695.816628,57.427742,172.283227,-9360.722011
2695.817255,38.285162,172.283227,-9418.149754
2695.817882,38.285162,153.140646,-9456.434915
2695.818509,114.855485,133.998066,-9360.722011
2695.819136,153.140646,172.283227,-9494.720077
2695.819763,153.140646,153.140646,-9399.007173
2695.820391,57.427742,133.998066,-9360.722011
2695.821018,0.000000,133.998066,-9360.722011
2695.821645,95.712904,114.855485,-9418.149754
2695.822272,38.285162,172.283227,-9456.434915
2695.822899,76.570323,114.855485,-9456.434915
2695.823526,76.570323,153.140646,-9418.149754
2695.824154,153.140646,133.998066,-9399.007173
2695.824781,133.998066,114.855485,-9418.149754
2695.825408,76.570323,172.283227,-9418.149754
2695.826035,76.570323,210.568389,-9418.149754
2695.826662,133.998066,191.425808,-9418.149754
2695.827289,133.998066,114.855485,-9418.149754
2695.827917,76.570323,114.855485,-9418.149754
2695.828544,133.998066,114.855485,-9418.149754
2695.829171,76.570323,114.855485,-9418.149754
2695.829798,76.570323,172.283227,-9418.149754
2695.830425,76.570323,210.568389,-9418.149754
2695.831052,114.855485,95.712904,-9399.007173
2695.831680,57.427742,114.855485,-9399.007173
2695.832307,57.427742,133.998066,-9360.722011
2695.832934,114.855485,133.998066,-9360.722011
2695.833561,133.998066,114.855485,-9418.149754
2695.834188,76.570323,114.855485,-9418.149754
2695.834816,76.570323,114.855485,-9418.149754
2695.835443,95.712904,114.855485,-9399.007173
2695.836070,57.427742,133.998066,-9360.722011
2695.836697,95.712904,153.140646,-9341.579430
2695.837324,76.570323,114.855485,-9418.149754
2695.837951,76.570323,114.855485,-9418.149754
2695.838579,114.855485,133.998066,-9341.579430
2695.839206,114.855485,114.855485,-9379.864592
2695.839833,38.285162,114.855485,-9456.434915
2695.840460,76.570323,114.855485,-9418.149754
2695.841087,76.570323,114.855485,-9418.149754
2695.841714,133.998066,114.855485,-9418.149754
2695.842342,133.998066,133.998066,-9399.007173
2695.842969,76.570323,172.283227,-9418.149754
2695.843596,76.570323,172.283227,-9418.149754
2695.844223,133.998066,172.283227,-9418.149754
2695.844850,133.998066,172.283227,-9437.292334
2695.845477,76.570323,153.140646,-9360.722011
2695.846105,76.570323,114.855485,-9437.292334
2695.846732,76.570323,210.568389,-9418.149754
2695.847359,191.425808,114.855485,-9379.864592
2695.847986,114.855485,172.283227,-9360.722011
2695.848614,133.998066,114.855485,-9418.149754
2695.849241,57.427742,172.283227,-9360.722011
2695.849869,95.712904,133.998066,-9360.722011
2695.850497,133.998066,114.855485,-9437.292334
2695.851125,57.427742,95.712904,-9399.007173
2695.851752,114.855485,133.998066,-9418.149754
2695.852380,133.998066,153.140646,-9437.292334
2695.853008,133.998066,114.855485,-9418.149754
2695.853635,153.140646,153.140646,-9399.007173
2695.854263,38.285162,153.140646,-9437.292334
2695.854891,76.570323,172.283227,-9456.434915
2695.855519,0.000000,133.998066,-9341.579430
2695.856146,38.285162,76.570323,-9322.436850
2695.856774,95.712904,114.855485,-9418.149754
2695.857402,76.570323,114.855485,-9456.434915
2695.858029,133.998066,153.140646,-9360.722011
2695.858657,76.570323,114.855485,-9418.149754
2695.859285,76.570323,153.140646,-9360.722011
2695.859912,95.712904,95.712904,-9399.007173
2695.860540,133.998066,114.855485,-9418.149754
2695.861168,76.570323,172.283227,-9437.292334
2695.861796,133.998066,114.855485,-9418.149754
2695.862423,153.140646,133.998066,-9399.007173
2695.863051,76.570323,114.855485,-9418.149754
2695.863679,57.427742,153.140646,-9418.149754
2695.864306,38.285162,114.855485,-9418.149754
2695.864934,76.570323,172.283227,-9418.149754
2695.865562,76.570323,210.568389,-9418.149754
2695.866190,57.427742,133.998066,-9341.579430
2695.866817,57.427742,133.998066,-9360.722011
2695.867445,76.570323,114.855485,-9437.292334
2695.868073,76.570323,153.140646,-9418.149754
2695.868700,114.855485,133.998066,-9418.149754
2695.869328,114.855485,133.998066,-9360.722011
2695.869956,19.142581,114.855485,-9418.149754
2695.870583,38.285162,172.283227,-9418.149754
2695.871211,153.140646,133.998066,-9399.007173
2695.871839,210.568389,133.998066,-9399.007173
2695.872467,95.712904,133.998066,-9360.722011
2695.873094,76.570323,114.855485,-9418.149754
2695.873722,95.712904,114.855485,-9360.722011
2695.874350,57.427742,133.998066,-9360.722011
2695.874977,95.712904,153.140646,-9360.722011
2695.875605,133.998066,114.855485,-9418.149754
2695.876233,38.285162,172.283227,-9418.149754
2695.876861,133.998066,153.140646,-9418.149754
2695.877488,38.285162,76.570323,-9379.864592
2695.878116,76.570323,153.140646,-9418.149754
2695.878744,76.570323,172.283227,-9418.149754
2695.879371,95.712904,191.425808,-9360.722011
2695.879999,57.427742,114.855485,-9456.434915
2695.880627,133.998066,153.140646,-9399.007173
2695.881254,133.998066,114.855485,-9418.149754
2695.881882,76.570323,153.140646,-9437.292334
2695.882510,76.570323,153.140646,-9418.149754
2695.883138,133.998066,114.855485,-9418.149754
2695.883765,133.998066,114.855485,-9418.149754
2695.884393,133.998066,153.140646,-9399.007173
2695.885021,133.998066,114.855485,-9456.434915
2695.885648,76.570323,153.140646,-9418.149754
2695.886276,76.570323,172.283227,-9418.149754
2695.886904,57.427742,133.998066,-9341.579430
2695.887531,76.570323,172.283227,-9418.149754
2695.888159,57.427742,172.283227,-9360.722011
2695.888787,133.998066,114.855485,-9418.149754
2695.889415,76.570323,172.283227,-9418.149754
2695.890042,76.570323,210.568389,-9418.149754
2695.890670,76.570323,191.425808,-9437.292334
2695.891298,95.712904,133.998066,-9418.149754
2695.891925,114.855485,172.283227,-9360.722011
2695.892553,133.998066,114.855485,-9418.149754
2695.893181,172.283227,114.855485,-9379.864592
2695.893809,172.283227,191.425808,-9399.007173
2695.894436,114.855485,114.855485,-9379.864592
2695.895064,133.998066,153.140646,-9418.149754
2695.895692,76.570323,114.855485,-9360.722011
2695.896319,76.570323,153.140646,-9418.149754
2695.896947,114.855485,133.998066,-9360.722011
2695.897575,114.855485,172.283227,-9341.579430
2695.898202,95.712904,133.998066,-9360.722011
2695.898830,114.855485,210.568389,-9360.722011
2695.899458,133.998066,114.855485,-9418.149754
2695.900086,76.570323,114.855485,-9418.149754
2695.900713,38.285162,172.283227,-9418.149754
2695.901341,133.998066,114.855485,-9418.149754
2695.901969,76.570323,76.570323,-9379.864592
2695.902596,76.570323,114.855485,-9418.149754
2695.903224,76.570323,114.855485,-9437.292334
2695.903852,133.998066,114.855485,-9418.149754
2695.904480,172.283227,114.855485,-9379.864592
2695.905107,114.855485,95.712904,-9437.292334
2695.905735,57.427742,133.998066,-9360.722011
2695.906363,57.427742,133.998066,-9360.722011
2695.906990,57.427742,133.998066,-9418.149754
2695.907618,38.285162,114.855485,-9418.149754
2695.908246,76.570323,114.855485,-9418.149754
2695.908873,76.570323,210.568389,-9360.722011
2695.909501,95.712904,210.568389,-9360.722011
2695.910129,133.998066,114.855485,-9418.149754
2695.910757,114.855485,210.568389,-9360.722011
2695.911384,95.712904,133.998066,-9360.722011
2695.912012,95.712904,133.998066,-9360.722011
2695.912640,76.570323,114.855485,-9418.149754
2695.913267,76.570323,172.283227,-9418.149754
2695.913895,76.570323,114.855485,-9418.149754
2695.914523,76.570323,172.283227,-9418.149754
2695.915151,133.998066,210.568389,-9418.149754
2695.915778,95.712904,133.998066,-9360.722011
2695.916406,95.712904,133.998066,-9360.722011
2695.917034,95.712904,133.998066,-9360.722011
2695.917661,95.712904,210.568389,-9360.722011
2695.918289,57.427742,114.855485,-9418.149754
2695.918917,38.285162,191.425808,-9418.149754
2695.919544,76.570323,172.283227,-9437.292334
2695.920172,95.712904,172.283227,-9418.149754
2695.920800,38.285162,76.570323,-9379.864592
2695.921428,38.285162,133.998066,-9360.722011
2695.922055,57.427742,133.998066,-9418.149754
2695.922683,114.855485,95.712904,-9399.007173
2695.923311,114.855485,95.712904,-9494.720077
2695.923938,76.570323,172.283227,-9456.434915
2695.924566,76.570323,114.855485,-9418.149754
2695.925194,133.998066,133.998066,-9399.007173
2695.925822,114.855485,133.998066,-9360.722011
2695.926449,172.283227,114.855485,-9379.864592
2695.927077,133.998066,133.998066,-9399.007173
2695.927705,114.855485,133.998066,-9322.436850
2695.928332,76.570323,76.570323,-9379.864592
2695.928960,133.998066,114.855485,-9418.149754
2695.929588,95.712904,95.712904,-9399.007173
2695.930215,76.570323,153.140646,-9418.149754
2695.930843,133.998066,153.140646,-9418.149754
2695.931471,76.570323,114.855485,-9418.149754
2695.932099,95.712904,114.855485,-9399.007173
2695.932726,76.570323,172.283227,-9418.149754
2695.933354,133.998066,172.283227,-9418.149754
2695.933982,114.855485,210.568389,-9379.864592
2695.934609,76.570323,114.855485,-9418.149754
2695.935237,76.570323,114.855485,-9418.149754
2695.935865,133.998066,114.855485,-9418.149754
2695.936493,95.712904,248.853550,-9360.722011
2695.937120,153.140646,133.998066,-9399.007173
2695.937748,38.285162,172.283227,-9418.149754
2695.938376,95.712904,133.998066,-9360.722011
2695.939003,95.712904,133.998066,-9360.722011
2695.939631,38.285162,114.855485,-9418.149754
2695.940259,57.427742,95.712904,-9399.007173
2695.940886,38.285162,133.998066,-9379.864592
2695.941514,76.570323,114.855485,-9418.149754
2695.942142,76.570323,210.568389,-9418.149754
2695.942770,114.855485,172.283227,-9360.722011
2695.943397,133.998066,114.855485,-9418.149754
2695.944025,76.570323,153.140646,-9360.722011
2695.944653,76.570323,172.283227,-9418.149754
2695.945280,57.427742,172.283227,-9360.722011
2695.945908,76.570323,114.855485,-9418.149754
2695.946536,95.712904,114.855485,-9418.149754
2695.947164,133.998066,153.140646,-9418.149754
2695.947791,133.998066,133.998066,-9399.007173
2695.948419,76.570323,153.140646,-9418.149754
2695.949047,133.998066,172.283227,-9475.577496
2695.949675,95.712904,191.425808,-9360.722011
2695.950302,38.285162,114.855485,-9418.149754
2695.950930,153.140646,114.855485,-9456.434915
2695.951558,133.998066,114.855485,-9418.149754
2695.952186,95.712904,153.140646,-9360.722011
2695.952814,133.998066,114.855485,-9418.149754
2695.953442,114.855485,133.998066,-9360.722011
2695.954070,114.855485,133.998066,-9360.722011
2695.954697,76.570323,114.855485,-9418.149754
2695.955325,133.998066,153.140646,-9418.149754
2695.955953,57.427742,95.712904,-9399.007173
2695.956581,76.570323,114.855485,-9341.579430
2695.957209,114.855485,133.998066,-9360.722011
2695.957837,76.570323,114.855485,-9360.722011
2695.958465,95.712904,114.855485,-9379.864592
2695.959092,76.570323,114.855485,-9418.149754
2695.959720,0.000000,133.998066,-9360.722011
2695.960348,38.285162,153.140646,-9418.149754
2695.960976,95.712904,114.855485,-9418.149754
2695.961604,114.855485,114.855485,-9379.864592
2695.962232,76.570323,114.855485,-9418.149754
2695.962859,76.570323,114.855485,-9418.149754
2695.963487,133.998066,172.283227,-9418.149754
2695.964115,95.712904,133.998066,-9360.722011
2695.964743,76.570323,114.855485,-9418.149754
2695.965371,38.285162,191.425808,-9418.149754
2695.965999,95.712904,133.998066,-9360.722011
2695.966627,133.998066,114.855485,-9418.149754
2695.967254,38.285162,153.140646,-9418.149754
2695.967882,38.285162,172.283227,-9418.149754
2695.968510,133.998066,172.283227,-9418.149754
2695.969138,76.570323,153.140646,-9418.149754
2695.969766,38.285162,114.855485,-9418.149754
2695.970394,57.427742,210.568389,-9360.722011
2695.971022,95.712904,133.998066,-9341.579430
2695.971649,95.712904,114.855485,-9418.149754
2695.972277,57.427742,172.283227,-9360.722011
2695.972905,133.998066,153.140646,-9418.149754
2695.973533,76.570323,229.710970,-9418.149754
2695.974161,95.712904,153.140646,-9360.722011
2695.974789,114.855485,133.998066,-9418.149754
2695.975416,76.570323,210.568389,-9418.149754
2695.976044,38.285162,114.855485,-9418.149754
2695.976672,114.855485,133.998066,-9360.722011
2695.977300,153.140646,133.998066,-9399.007173
2695.977928,76.570323,76.570323,-9322.436850
2695.978556,95.712904,172.283227,-9360.722011
2695.979184,114.855485,172.283227,-9341.579430
2695.979811,95.712904,133.998066,-9360.722011
2695.980439,95.712904,95.712904,-9399.007173
2695.981067,153.140646,95.712904,-9360.722011
2695.981695,172.283227,153.140646,-9379.864592
2695.982323,76.570323,114.855485,-9456.434915
2695.982951,95.712904,133.998066,-9360.722011
2695.983579,95.712904,95.712904,-9399.007173
2695.984206,114.855485,114.855485,-9379.864592
2695.984834,76.570323,114.855485,-9418.149754
2695.985462,57.427742,172.283227,-9418.149754
2695.986090,133.998066,114.855485,-9437.292334
2695.986718,153.140646,172.283227,-9399.007173
2695.987346,95.712904,210.568389,-9399.007173
2695.987974,19.142581,153.140646,-9399.007173
2695.988601,76.570323,114.855485,-9418.149754
2695.989229,114.855485,172.283227,-9379.864592
2695.989857,57.427742,114.855485,-9418.149754
2695.990485,76.570323,153.140646,-9418.149754
2695.991113,133.998066,153.140646,-9475.577496
2695.991741,114.855485,114.855485,-9379.864592
2695.992368,76.570323,114.855485,-9418.149754
2695.992996,38.285162,114.855485,-9437.292334
2695.993624,76.570323,172.283227,-9418.149754
2695.994252,114.855485,172.283227,-9379.864592
2695.994880,95.712904,172.283227,-9360.722011
2695.995508,38.285162,172.283227,-9360.722011
2695.996136,57.427742,191.425808,-9360.722011
2695.996763,95.712904,95.712904,-9399.007173
2695.997391,76.570323,114.855485,-9418.149754
2695.998019,76.570323,153.140646,-9418.149754
2695.998647,95.712904,95.712904,-9399.007173
2695.999275,153.140646,133.998066,-9379.864592
2695.999903,133.998066,172.283227,-9418.149754
2696.000531,38.285162,114.855485,-9418.149754
2696.001158,114.855485,95.712904,-9399.007173
2696.001786,133.998066,133.998066,-9399.007173
2696.002414,133.998066,153.140646,-9418.149754
2696.003042,133.998066,153.140646,-9418.149754
2696.003670,38.285162,114.855485,-9418.149754
2696.004298,172.283227,114.855485,-9379.864592
2696.004925,57.427742,172.283227,-9303.294269
2696.005553,114.855485,133.998066,-9360.722011
2696.006181,133.998066,153.140646,-9360.722011
2696.006809,153.140646,114.855485,-9418.149754
2696.007437,76.570323,114.855485,-9418.149754
2696.008065,133.998066,172.283227,-9399.007173
2696.008693,76.570323,172.283227,-9418.149754
2696.009320,133.998066,114.855485,-9418.149754
2696.009948,153.140646,133.998066,-9456.434915
2696.010576,38.285162,191.425808,-9418.149754
2696.011204,76.570323,114.855485,-9418.149754
2696.011832,76.570323,114.855485,-9418.149754
2696.012460,114.855485,133.998066,-9360.722011
2696.013088,76.570323,153.140646,-9418.149754
2696.013715,114.855485,133.998066,-9360.722011
2696.014343,76.570323,114.855485,-9418.149754
2696.014971,133.998066,172.283227,-9360.722011
2696.015599,133.998066,172.283227,-9418.149754
2696.016227,76.570323,114.855485,-9418.149754
2696.016855,76.570323,76.570323,-9379.864592
2696.017482,133.998066,95.712904,-9341.579430
2696.018110,38.285162,114.855485,-9418.149754
2696.018738,114.855485,133.998066,-9360.722011
2696.019366,38.285162,172.283227,-9418.149754
2696.019994,76.570323,172.283227,-9418.149754
2696.020622,57.427742,153.140646,-9418.149754
2696.021250,95.712904,133.998066,-9360.722011
2696.021877,38.285162,172.283227,-9418.149754
2696.022505,38.285162,210.568389,-9418.149754
2696.023133,95.712904,172.283227,-9360.722011
2696.023761,76.570323,114.855485,-9418.149754
2696.024389,114.855485,95.712904,-9399.007173
2696.025017,57.427742,133.998066,-9360.722011
2696.025645,95.712904,172.283227,-9437.292334
2696.026272,95.712904,133.998066,-9360.722011
2696.026900,153.140646,153.140646,-9399.007173
2696.027528,76.570323,153.140646,-9456.434915
2696.028156,95.712904,114.855485,-9418.149754
2696.028784,57.427742,114.855485,-9399.007173
2696.029412,133.998066,191.425808,-9456.434915
2696.030039,114.855485,76.570323,-9418.149754
2696.030667,95.712904,133.998066,-9360.722011
2696.031295,95.712904,114.855485,-9418.149754
2696.031923,114.855485,210.568389,-9360.722011
2696.032551,76.570323,114.855485,-9418.149754
2696.033179,38.285162,153.140646,-9418.149754
2696.033807,76.570323,191.425808,-9456.434915
2696.034434,76.570323,153.140646,-9418.149754
2696.035062,95.712904,95.712904,-9399.007173
2696.035690,133.998066,114.855485,-9418.149754
2696.036318,95.712904,133.998066,-9360.722011
2696.036946,133.998066,133.998066,-9322.436850
2696.037574,76.570323,172.283227,-9418.149754
2696.038202,95.712904,153.140646,-9360.722011
2696.038829,57.427742,133.998066,-9360.722011
2696.039457,133.998066,191.425808,-9418.149754
2696.040085,76.570323,172.283227,-9418.149754
2696.040713,133.998066,114.855485,-9418.149754
2696.041341,95.712904,133.998066,-9360.722011
2696.041969,172.283227,133.998066,-9360.722011
2696.042596,133.998066,114.855485,-9360.722011
2696.043224,76.570323,229.710970,-9341.579430
2696.043852,114.855485,133.998066,-9360.722011
2696.044480,172.283227,153.140646,-9360.722011
2696.045108,114.855485,153.140646,-9360.722011
2696.045736,76.570323,114.855485,-9418.149754
2696.046364,114.855485,114.855485,-9379.864592
2696.046991,133.998066,172.283227,-9418.149754
2696.047619,76.570323,191.425808,-9360.722011
2696.048247,76.570323,114.855485,-9360.722011
2696.048875,57.427742,153.140646,-9360.722011
2696.049502,38.285162,172.283227,-9360.722011
2696.050129,95.712904,172.283227,-9360.722011
2696.050757,133.998066,153.140646,-9418.149754
2696.051384,172.283227,191.425808,-9399.007173
2696.052011,76.570323,114.855485,-9437.292334
2696.052638,114.855485,133.998066,-9360.722011
2696.053266,76.570323,191.425808,-9418.149754
2696.053893,76.570323,114.855485,-9418.149754
2696.054520,76.570323,114.855485,-9418.149754
2696.055147,95.712904,172.283227,-9360.722011
2696.055774,57.427742,191.425808,-9360.722011
2696.056402,76.570323,95.712904,-9399.007173
2696.057029,95.712904,133.998066,-9360.722011
2696.057656,95.712904,133.998066,-9341.579430
2696.058283,76.570323,95.712904,-9399.007173
2696.058911,95.712904,114.855485,-9437.292334
2696.059538,95.712904,95.712904,-9399.007173
2696.060165,76.570323,114.855485,-9418.149754
2696.060792,133.998066,153.140646,-9418.149754
2696.061419,133.998066,172.283227,-9399.007173
2696.062047,38.285162,210.568389,-9456.434915
2696.062674,76.570323,229.710970,-9418.149754
2696.063301,76.570323,172.283227,-9437.292334
2696.063928,76.570323,114.855485,-9437.292334
2696.064556,114.855485,191.425808,-9379.864592
2696.065183,76.570323,114.855485,-9418.149754
2696.065810,133.998066,153.140646,-9418.149754
2696.066437,76.570323,172.283227,-9360.722011
2696.067064,95.712904,210.568389,-9341.579430
2696.067692,57.427742,172.283227,-9360.722011
2696.068319,76.570323,133.998066,-9360.722011
2696.068946,76.570323,114.855485,-9418.149754
2696.069573,153.140646,172.283227,-9399.007173
2696.070201,76.570323,153.140646,-9418.149754
2696.070828,76.570323,133.998066,-9360.722011
2696.071455,76.570323,210.568389,-9437.292334
2696.072082,133.998066,191.425808,-9418.149754
2696.072709,153.140646,133.998066,-9399.007173
2696.073337,133.998066,114.855485,-9418.149754
2696.073964,76.570323,114.855485,-9437.292334
2696.074591,133.998066,114.855485,-9418.149754
2696.075218,76.570323,210.568389,-9418.149754
2696.075846,133.998066,153.140646,-9418.149754
2696.076473,76.570323,114.855485,-9360.722011
2696.077100,114.855485,133.998066,-9360.722011
2696.077727,95.712904,95.712904,-9399.007173
2696.078354,76.570323,76.570323,-9379.864592
2696.078982,76.570323,95.712904,-9399.007173
2696.079609,38.285162,114.855485,-9418.149754
2696.080236,38.285162,153.140646,-9418.149754
2696.080863,114.855485,133.998066,-9360.722011
2696.081491,76.570323,172.283227,-9418.149754
2696.082118,133.998066,172.283227,-9418.149754
2696.082745,76.570323,114.855485,-9418.149754
2696.083372,133.998066,210.568389,-9418.149754
2696.083999,133.998066,153.140646,-9418.149754
2696.084627,76.570323,114.855485,-9418.149754
2696.085254,76.570323,114.855485,-9456.434915
2696.085881,133.998066,191.425808,-9456.434915
2696.086508,38.285162,172.283227,-9418.149754
2696.087136,76.570323,210.568389,-9418.149754
2696.087763,57.427742,95.712904,-9379.864592
2696.088390,133.998066,114.855485,-9418.149754
2696.089017,210.568389,133.998066,-9437.292334
2696.089644,133.998066,133.998066,-9399.007173
2696.090272,38.285162,114.855485,-9360.722011
2696.090899,95.712904,95.712904,-9399.007173
2696.091526,133.998066,172.283227,-9418.149754
2696.092153,76.570323,114.855485,-9418.149754
2696.092781,76.570323,153.140646,-9418.149754
2696.093408,133.998066,133.998066,-9437.292334
2696.094035,76.570323,210.568389,-9418.149754
2696.094662,133.998066,114.855485,-9418.149754
2696.095289,76.570323,114.855485,-9418.149754
2696.095917,38.285162,114.855485,-9418.149754
2696.096544,114.855485,114.855485,-9379.864592
2696.097171,76.570323,172.283227,-9456.434915
2696.097798,76.570323,153.140646,-9418.149754
2696.098426,76.570323,153.140646,-9418.149754
2696.099053,38.285162,172.283227,-9418.149754
2696.099680,76.570323,229.710970,-9418.149754
2696.100307,38.285162,210.568389,-9418.149754
2696.100934,153.140646,172.283227,-9399.007173
2696.101562,153.140646,114.855485,-9418.149754
2696.102189,133.998066,114.855485,-9418.149754
2696.102816,95.712904,210.568389,-9360.722011
2696.103443,38.285162,172.283227,-9437.292334
2696.104071,57.427742,210.568389,-9399.007173
2696.104698,114.855485,133.998066,-9360.722011
2696.105325,95.712904,114.855485,-9418.149754
2696.105952,133.998066,114.855485,-9418.149754
2696.106579,114.855485,133.998066,-9360.722011
2696.107207,95.712904,172.283227,-9418.149754
2696.107834,76.570323,114.855485,-9418.149754
2696.108461,76.570323,114.855485,-9418.149754
2696.109088,76.570323,153.140646,-9418.149754
2696.109716,76.570323,153.140646,-9418.149754
2696.110343,38.285162,153.140646,-9418.149754
2696.110970,76.570323,114.855485,-9418.149754
2696.111597,38.285162,114.855485,-9418.149754
2696.112224,114.855485,76.570323,-9418.149754
2696.112852,133.998066,76.570323,-9379.864592
2696.113479,76.570323,114.855485,-9437.292334
2696.114106,114.855485,76.570323,-9418.149754
2696.114733,76.570323,172.283227,-9418.149754
2696.115361,38.285162,191.425808,-9360.722011
2696.115988,172.283227,153.140646,-9379.864592
2696.116615,133.998066,191.425808,-9399.007173
2696.117242,95.712904,133.998066,-9360.722011
2696.117869,95.712904,153.140646,-9360.722011
2696.118497,38.285162,210.568389,-9418.149754
2696.119124,57.427742,153.140646,-9418.149754
2696.119751,95.712904,114.855485,-9418.149754
2696.120378,76.570323,114.855485,-9418.149754
2696.121005,95.712904,172.283227,-9360.722011
2696.121633,38.285162,172.283227,-9418.149754
2696.122260,76.570323,114.855485,-9418.149754
2696.122887,133.998066,114.855485,-9418.149754
2696.123514,114.855485,172.283227,-9360.722011
2696.124142,133.998066,172.283227,-9418.149754
2696.124769,133.998066,114.855485,-9360.722011
2696.125396,95.712904,191.425808,-9360.722011
2696.126023,76.570323,114.855485,-9418.149754
2696.126650,114.855485,133.998066,-9360.722011
2696.127278,133.998066,114.855485,-9418.149754
2696.127905,153.140646,172.283227,-9399.007173
2696.128532,133.998066,191.425808,-9399.007173
2696.129159,95.712904,133.998066,-9360.722011
2696.129787,76.570323,114.855485,-9418.149754
2696.130414,57.427742,114.855485,-9399.007173
2696.131041,38.285162,210.568389,-9418.149754
2696.131668,19.142581,153.140646,-9418.149754
2696.132295,57.427742,172.283227,-9360.722011
2696.132923,57.427742,133.998066,-9341.579430
2696.133550,19.142581,210.568389,-9418.149754
2696.134177,76.570323,153.140646,-9418.149754
2696.134804,114.855485,172.283227,-9360.722011
2696.135432,95.712904,133.998066,-9360.722011
2696.136059,76.570323,153.140646,-9418.149754
2696.136686,95.712904,133.998066,-9341.579430
2696.137313,172.283227,114.855485,-9379.864592
2696.137940,133.998066,153.140646,-9456.434915
2696.138568,57.427742,114.855485,-9418.149754
2696.139195,114.855485,133.998066,-9360.722011
2696.139822,38.285162,153.140646,-9418.149754
2696.140449,57.427742,133.998066,-9360.722011
2696.141077,38.285162,114.855485,-9418.149754
2696.141704,76.570323,114.855485,-9418.149754
2696.142331,95.712904,172.283227,-9418.149754
2696.142958,95.712904,191.425808,-9360.722011
2696.143585,95.712904,133.998066,-9360.722011
2696.144213,76.570323,114.855485,-9418.149754
2696.144840,114.855485,95.712904,-9399.007173
2696.145467,76.570323,114.855485,-9418.149754
2696.146094,133.998066,172.283227,-9418.149754
2696.146722,114.855485,172.283227,-9360.722011
2696.147349,95.712904,133.998066,-9360.722011
2696.147976,95.712904,191.425808,-9360.722011
2696.148603,57.427742,133.998066,-9360.722011
2696.149230,76.570323,114.855485,-9418.149754
2696.149858,38.285162,114.855485,-9418.149754
2696.150485,76.570323,114.855485,-9418.149754
2696.151112,153.140646,133.998066,-9437.292334
2696.151740,95.712904,133.998066,-9360.722011
2696.152367,114.855485,133.998066,-9360.722011
2696.152994,114.855485,172.283227,-9360.722011
2696.153622,133.998066,114.855485,-9418.149754
2696.154249,76.570323,114.855485,-9437.292334
2696.154876,76.570323,114.855485,-9418.149754
2696.155504,76.570323,114.855485,-9418.149754
2696.156131,57.427742,114.855485,-9456.434915
2696.156758,133.998066,114.855485,-9360.722011
2696.157386,95.712904,133.998066,-9360.722011
2696.158013,76.570323,153.140646,-9360.722011
2696.158640,38.285162,172.283227,-9418.149754
2696.159267,133.998066,114.855485,-9418.149754
2696.159895,95.712904,114.855485,-9418.149754
2696.160522,133.998066,172.283227,-9418.149754
2696.161149,172.283227,172.283227,-9379.864592
2696.161777,76.570323,114.855485,-9418.149754
2696.162404,76.570323,114.855485,-9418.149754
2696.163031,76.570323,95.712904,-9399.007173
2696.163659,153.140646,133.998066,-9399.007173
2696.164286,76.570323,114.855485,-9456.434915
2696.164913,76.570323,210.568389,-9418.149754
2696.165541,133.998066,210.568389,-9456.434915
2696.166168,153.140646,153.140646,-9399.007173
2696.166795,133.998066,153.140646,-9418.149754
2696.167423,153.140646,133.998066,-9399.007173
2696.168050,76.570323,172.283227,-9341.579430
2696.168677,57.427742,133.998066,-9341.579430
2696.169305,133.998066,114.855485,-9418.149754
2696.169932,95.712904,153.140646,-9360.722011
2696.170559,95.712904,153.140646,-9360.722011
2696.171186,95.712904,95.712904,-9399.007173
2696.171814,76.570323,114.855485,-9418.149754
2696.172441,133.998066,133.998066,-9399.007173
2696.173068,153.140646,133.998066,-9399.007173
2696.173696,95.712904,114.855485,-9418.149754
2696.174323,76.570323,153.140646,-9418.149754
2696.174950,76.570323,133.998066,-9360.722011
2696.175578,38.285162,172.283227,-9418.149754
2696.176205,76.570323,114.855485,-9418.149754
2696.176832,95.712904,133.998066,-9360.722011
2696.177460,76.570323,153.140646,-9456.434915
2696.178087,95.712904,172.283227,-9437.292334
2696.178714,76.570323,153.140646,-9418.149754
2696.179342,76.570323,172.283227,-9360.722011
2696.179969,95.712904,133.998066,-9360.722011
2696.180596,76.570323,153.140646,-9418.149754
2696.181223,133.998066,114.855485,-9360.722011
2696.181851,133.998066,210.568389,-9418.149754
2696.182478,95.712904,153.140646,-9360.722011
2696.183105,133.998066,114.855485,-9418.149754
2696.183733,95.712904,191.425808,-9360.722011
2696.184360,133.998066,95.712904,-9379.864592
2696.184987,133.998066,133.998066,-9399.007173
2696.185615,76.570323,172.283227,-9418.149754
2696.186242,76.570323,114.855485,-9360.722011
2696.186869,76.570323,114.855485,-9360.722011
2696.187497,95.712904,153.140646,-9360.722011
2696.188124,38.285162,210.568389,-9360.722011
2696.188751,38.285162,153.140646,-9456.434915
2696.189379,38.285162,172.283227,-9418.149754
2696.190006,133.998066,114.855485,-9418.149754
2696.190633,133.998066,76.570323,-9322.436850
2696.191260,114.855485,153.140646,-9379.864592
2696.191888,114.855485,133.998066,-9360.722011
2696.192515,153.140646,133.998066,-9399.007173
2696.193142,133.998066,153.140646,-9418.149754
2696.193770,95.712904,95.712904,-9399.007173
2696.194397,133.998066,114.855485,-9418.149754
2696.195024,76.570323,114.855485,-9418.149754
2696.195652,133.998066,133.998066,-9399.007173
2696.196279,76.570323,114.855485,-9418.149754
2696.196906,57.427742,133.998066,-9360.722011
2696.197534,95.712904,133.998066,-9360.722011
2696.198161,38.285162,114.855485,-9418.149754
2696.198788,76.570323,114.855485,-9418.149754
2696.199416,76.570323,114.855485,-9418.149754
2696.200043,95.712904,114.855485,-9437.292334
2696.200670,38.285162,172.283227,-9418.149754
2696.201298,76.570323,114.855485,-9360.722011
2696.201925,95.712904,114.855485,-9418.149754
2696.202552,38.285162,95.712904,-9437.292334
2696.203179,114.855485,114.855485,-9399.007173
2696.203807,76.570323,153.140646,-9418.149754
2696.204434,76.570323,114.855485,-9437.292334
2696.205061,76.570323,114.855485,-9418.149754
2696.205689,57.427742,95.712904,-9379.864592
2696.206316,95.712904,133.998066,-9360.722011
2696.206943,57.427742,114.855485,-9399.007173
2696.207571,76.570323,114.855485,-9456.434915
2696.208198,57.427742,114.855485,-9418.149754
2696.208825,76.570323,172.283227,-9418.149754
2696.209453,76.570323,114.855485,-9418.149754
2696.210080,95.712904,95.712904,-9399.007173
2696.210707,172.283227,95.712904,-9399.007173
2696.211335,76.570323,114.855485,-9418.149754
2696.211962,133.998066,210.568389,-9437.292334
2696.212589,76.570323,153.140646,-9456.434915
2696.213216,19.142581,114.855485,-9456.434915
2696.213844,114.855485,153.140646,-9418.149754
2696.214471,133.998066,114.855485,-9418.149754
2696.215098,57.427742,133.998066,-9360.722011
2696.215726,133.998066,114.855485,-9418.149754
2696.216353,114.855485,114.855485,-9379.864592
2696.216980,38.285162,172.283227,-9418.149754
2696.217608,76.570323,172.283227,-9418.149754
2696.218235,76.570323,172.283227,-9418.149754
2696.218862,133.998066,153.140646,-9418.149754
2696.219490,95.712904,153.140646,-9360.722011
2696.220117,95.712904,114.855485,-9418.149754
2696.220744,38.285162,114.855485,-9418.149754
2696.221372,76.570323,114.855485,-9418.149754
2696.221999,133.998066,153.140646,-9456.434915
2696.222626,133.998066,114.855485,-9437.292334
2696.223253,76.570323,172.283227,-9360.722011
2696.223881,76.570323,114.855485,-9418.149754
2696.224508,38.285162,114.855485,-9456.434915
2696.225135,76.570323,153.140646,-9418.149754
2696.225763,114.855485,114.855485,-9399.007173
2696.226390,76.570323,153.140646,-9418.149754
2696.227017,133.998066,114.855485,-9456.434915
2696.227645,114.855485,133.998066,-9360.722011
2696.228272,76.570323,210.568389,-9418.149754
2696.228899,76.570323,153.140646,-9360.722011
2696.229527,57.427742,153.140646,-9360.722011
2696.230154,76.570323,153.140646,-9418.149754
2696.230781,133.998066,172.283227,-9360.722011
2696.231409,57.427742,95.712904,-9399.007173
2696.232036,57.427742,172.283227,-9360.722011
2696.232663,76.570323,114.855485,-9418.149754
2696.233290,114.855485,95.712904,-9399.007173
2696.233918,95.712904,95.712904,-9399.007173
2696.234545,76.570323,191.425808,-9418.149754
2696.235172,153.140646,248.853550,-9322.436850
2696.235800,133.998066,210.568389,-9418.149754
2696.236427,133.998066,172.283227,-9418.149754
2696.237054,38.285162,114.855485,-9418.149754
2696.237682,114.855485,133.998066,-9322.436850
2696.238309,95.712904,133.998066,-9360.722011
2696.238936,38.285162,153.140646,-9418.149754
2696.239564,172.283227,114.855485,-9379.864592
2696.240191,114.855485,114.855485,-9399.007173
2696.240818,133.998066,114.855485,-9418.149754
2696.241446,76.570323,153.140646,-9418.149754
2696.242073,95.712904,114.855485,-9418.149754
2696.242700,95.712904,114.855485,-9418.149754
2696.243328,133.998066,210.568389,-9418.149754
2696.243955,76.570323,191.425808,-9418.149754
2696.244582,95.712904,133.998066,-9360.722011
2696.245209,76.570323,114.855485,-9418.149754
2696.245837,57.427742,191.425808,-9360.722011
2696.246464,210.568389,133.998066,-9399.007173
2696.247091,95.712904,133.998066,-9341.579430
2696.247719,76.570323,114.855485,-9418.149754
2696.248346,153.140646,133.998066,-9399.007173
2696.248973,153.140646,133.998066,-9399.007173
2696.249601,133.998066,114.855485,-9418.149754
2696.250228,57.427742,133.998066,-9360.722011
2696.250855,57.427742,172.283227,-9360.722011
2696.251482,114.855485,191.425808,-9418.149754
2696.252110,76.570323,114.855485,-9418.149754
2696.252737,76.570323,210.568389,-9418.149754
2696.253364,153.140646,133.998066,-9399.007173
2696.253991,133.998066,114.855485,-9418.149754
2696.254618,153.140646,133.998066,-9379.864592
2696.255246,153.140646,133.998066,-9399.007173
2696.255873,19.142581,191.425808,-9418.149754
2696.256500,38.285162,114.855485,-9418.149754
2696.257127,133.998066,114.855485,-9437.292334
2696.257755,133.998066,133.998066,-9399.007173
2696.258382,76.570323,172.283227,-9360.722011
2696.259009,76.570323,114.855485,-9456.434915
2696.259636,95.712904,114.855485,-9418.149754
2696.260264,133.998066,133.998066,-9399.007173
2696.260891,153.140646,172.283227,-9437.292334
2696.261518,76.570323,114.855485,-9418.149754
2696.262145,76.570323,114.855485,-9418.149754
2696.262772,95.712904,114.855485,-9418.149754
2696.263400,114.855485,133.998066,-9360.722011
2696.264027,133.998066,133.998066,-9437.292334
2696.264654,76.570323,114.855485,-9418.149754
2696.265281,95.712904,95.712904,-9399.007173
2696.265909,95.712904,133.998066,-9360.722011
2696.266536,76.570323,153.140646,-9418.149754
2696.267163,76.570323,114.855485,-9418.149754
2696.267790,95.712904,172.283227,-9303.294269
2696.268417,57.427742,133.998066,-9360.722011
2696.269045,114.855485,133.998066,-9360.722011
2696.269672,95.712904,95.712904,-9399.007173
2696.270299,95.712904,133.998066,-9360.722011
2696.270926,38.285162,114.855485,-9418.149754
2696.271554,133.998066,153.140646,-9418.149754
2696.272181,76.570323,114.855485,-9418.149754
2696.272808,76.570323,76.570323,-9379.864592
2696.273435,76.570323,114.855485,-9437.292334
2696.274063,133.998066,172.283227,-9418.149754
2696.274690,133.998066,114.855485,-9418.149754
2696.275317,76.570323,114.855485,-9418.149754
2696.275944,95.712904,114.855485,-9418.149754
2696.276571,57.427742,172.283227,-9360.722011
2696.277199,76.570323,114.855485,-9418.149754
2696.277826,114.855485,95.712904,-9399.007173
2696.278453,57.427742,114.855485,-9418.149754
2696.279080,38.285162,114.855485,-9418.149754
2696.279708,95.712904,229.710970,-9418.149754
2696.280335,38.285162,153.140646,-9418.149754
2696.280962,76.570323,210.568389,-9418.149754
2696.281589,38.285162,114.855485,-9418.149754
2696.282216,153.140646,172.283227,-9399.007173
2696.282844,76.570323,114.855485,-9418.149754
2696.283471,95.712904,133.998066,-9418.149754
2696.284098,76.570323,114.855485,-9399.007173
2696.284725,76.570323,95.712904,-9399.007173
2696.285353,133.998066,114.855485,-9418.149754
2696.285980,57.427742,133.998066,-9360.722011
2696.286607,114.855485,95.712904,-9399.007173
2696.287234,114.855485,133.998066,-9360.722011
2696.287862,76.570323,172.283227,-9437.292334
2696.288489,133.998066,114.855485,-9418.149754
2696.289116,76.570323,114.855485,-9418.149754
2696.289743,76.570323,153.140646,-9418.149754
2696.290370,38.285162,153.140646,-9418.149754
2696.290998,76.570323,114.855485,-9437.292334
2696.291625,95.712904,153.140646,-9418.149754
2696.292252,95.712904,133.998066,-9360.722011
2696.292879,133.998066,114.855485,-9418.149754
2696.293507,133.998066,172.283227,-9418.149754
2696.294134,76.570323,172.283227,-9437.292334
2696.294761,114.855485,95.712904,-9399.007173
2696.295388,95.712904,95.712904,-9399.007173
2696.296015,76.570323,114.855485,-9418.149754
2696.296643,76.570323,114.855485,-9418.149754
2696.297270,95.712904,172.283227,-9360.722011
2696.297897,76.570323,114.855485,-9418.149754
2696.298524,38.285162,153.140646,-9418.149754
2696.299152,57.427742,133.998066,-9360.722011
2696.299779,76.570323,191.425808,-9418.149754
2696.300406,76.570323,114.855485,-9360.722011
2696.301033,76.570323,76.570323,-9379.864592
2696.301661,133.998066,76.570323,-9322.436850
2696.302288,153.140646,133.998066,-9399.007173
2696.302915,76.570323,172.283227,-9418.149754
2696.303542,76.570323,153.140646,-9418.149754
2696.304169,114.855485,114.855485,-9399.007173
2696.304797,76.570323,114.855485,-9418.149754
2696.305424,133.998066,191.425808,-9399.007173
2696.306051,76.570323,172.283227,-9418.149754
2696.306678,95.712904,114.855485,-9360.722011
2696.307306,133.998066,114.855485,-9360.722011
2696.307933,95.712904,95.712904,-9399.007173
2696.308560,38.285162,114.855485,-9418.149754
2696.309187,114.855485,95.712904,-9399.007173
2696.309814,76.570323,172.283227,-9418.149754
2696.310442,95.712904,95.712904,-9399.007173
2696.311069,38.285162,76.570323,-9379.864592
2696.311696,38.285162,153.140646,-9437.292334
2696.312323,38.285162,153.140646,-9418.149754
2696.312951,38.285162,114.855485,-9437.292334
2696.313578,95.712904,114.855485,-9418.149754
2696.314205,57.427742,133.998066,-9360.722011
2696.314832,114.855485,172.283227,-9341.579430
2696.315460,95.712904,172.283227,-9360.722011
2696.316087,76.570323,172.283227,-9360.722011
2696.316714,114.855485,172.283227,-9360.722011
2696.317341,76.570323,114.855485,-9418.149754
2696.317968,95.712904,153.140646,-9418.149754
2696.318596,95.712904,114.855485,-9418.149754
2696.319223,38.285162,191.425808,-9418.149754
2696.319850,133.998066,114.855485,-9418.149754
2696.320477,133.998066,114.855485,-9360.722011
2696.321105,133.998066,114.855485,-9418.149754
2696.321732,95.712904,133.998066,-9360.722011
2696.322359,19.142581,210.568389,-9418.149754
2696.322986,38.285162,153.140646,-9418.149754
2696.323613,133.998066,114.855485,-9418.149754
2696.324241,38.285162,172.283227,-9418.149754
2696.324868,172.283227,95.712904,-9399.007173
2696.325495,153.140646,133.998066,-9399.007173
2696.326122,76.570323,114.855485,-9418.149754
2696.326750,38.285162,210.568389,-9418.149754
2696.327377,133.998066,153.140646,-9418.149754
2696.328004,38.285162,114.855485,-9418.149754
2696.328631,133.998066,153.140646,-9418.149754
2696.329259,153.140646,172.283227,-9399.007173
2696.329886,76.570323,153.140646,-9418.149754
2696.330513,76.570323,210.568389,-9418.149754
2696.331140,95.712904,114.855485,-9437.292334
2696.331767,76.570323,114.855485,-9418.149754
2696.332395,133.998066,114.855485,-9418.149754
2696.333022,76.570323,114.855485,-9360.722011
2696.333649,133.998066,114.855485,-9418.149754
2696.334276,76.570323,210.568389,-9418.149754
2696.334904,19.142581,133.998066,-9456.434915
2696.335531,76.570323,153.140646,-9418.149754
2696.336158,95.712904,172.283227,-9360.722011
2696.336785,133.998066,114.855485,-9418.149754
2696.337412,38.285162,114.855485,-9418.149754
2696.338040,76.570323,114.855485,-9418.149754
2696.338667,133.998066,114.855485,-9418.149754
2696.339294,95.712904,153.140646,-9360.722011
2696.339921,38.285162,114.855485,-9418.149754
2696.340549,38.285162,172.283227,-9418.149754
2696.341176,133.998066,153.140646,-9437.292334
2696.341803,133.998066,114.855485,-9418.149754
2696.342430,76.570323,114.855485,-9418.149754
2696.343057,133.998066,114.855485,-9418.149754
2696.343685,76.570323,114.855485,-9418.149754
2696.344312,38.285162,172.283227,-9418.149754
2696.344939,95.712904,172.283227,-9418.149754
2696.345566,76.570323,153.140646,-9418.149754
2696.346194,114.855485,172.283227,-9379.864592
2696.346821,76.570323,172.283227,-9418.149754
2696.347448,153.140646,153.140646,-9399.007173
2696.348075,38.285162,114.855485,-9418.149754
2696.348703,76.570323,114.855485,-9418.149754
2696.349330,133.998066,114.855485,-9418.149754
2696.349957,133.998066,210.568389,-9418.149754
2696.350584,114.855485,95.712904,-9399.007173
2696.351211,133.998066,133.998066,-9399.007173
2696.351839,133.998066,114.855485,-9418.149754
2696.352466,114.855485,133.998066,-9341.579430
2696.353093,133.998066,114.855485,-9418.149754
2696.353720,95.712904,114.855485,-9418.149754
2696.354347,76.570323,76.570323,-9379.864592
2696.354975,57.427742,95.712904,-9399.007173
2696.355602,95.712904,133.998066,-9341.579430
2696.356229,172.283227,114.855485,-9399.007173
2696.356856,133.998066,133.998066,-9399.007173
2696.357483,76.570323,191.425808,-9341.579430
2696.358111,76.570323,229.710970,-9360.722011
2696.358738,19.142581,114.855485,-9437.292334
2696.359365,95.712904,133.998066,-9360.722011
2696.359992,76.570323,153.140646,-9418.149754
2696.360619,95.712904,95.712904,-9399.007173
2696.361247,133.998066,133.998066,-9399.007173
2696.361874,133.998066,153.140646,-9418.149754
2696.362501,76.570323,153.140646,-9418.149754
2696.363128,76.570323,114.855485,-9418.149754
2696.363755,172.283227,114.855485,-9379.864592
2696.364383,38.285162,114.855485,-9437.292334
2696.365010,95.712904,172.283227,-9341.579430
2696.365637,76.570323,114.855485,-9475.577496
2696.366264,133.998066,114.855485,-9418.149754
2696.366892,95.712904,133.998066,-9360.722011
2696.367519,76.570323,172.283227,-9418.149754
2696.368146,76.570323,210.568389,-9418.149754
2696.368773,76.570323,172.283227,-9418.149754
2696.369400,172.283227,172.283227,-9379.864592
2696.370028,38.285162,153.140646,-9418.149754
2696.370655,133.998066,133.998066,-9379.864592
2696.371282,38.285162,114.855485,-9418.149754
2696.371909,95.712904,114.855485,-9399.007173
2696.372536,133.998066,153.140646,-9418.149754
2696.373164,95.712904,153.140646,-9418.149754
2696.373791,133.998066,153.140646,-9399.007173
2696.374418,76.570323,76.570323,-9379.864592
2696.375045,76.570323,172.283227,-9418.149754
2696.375672,114.855485,133.998066,-9360.722011
2696.376300,76.570323,95.712904,-9399.007173
2696.376927,76.570323,172.283227,-9360.722011
2696.377554,38.285162,95.712904,-9399.007173
2696.378181,95.712904,114.855485,-9418.149754
2696.378808,133.998066,114.855485,-9418.149754
2696.379436,133.998066,114.855485,-9437.292334
2696.380063,95.712904,114.855485,-9418.149754
2696.380690,76.570323,114.855485,-9418.149754
2696.381317,76.570323,114.855485,-9418.149754
2696.381944,133.998066,114.855485,-9418.149754
2696.382572,114.855485,95.712904,-9399.007173
2696.383199,133.998066,114.855485,-9418.149754
2696.383826,76.570323,114.855485,-9418.149754
2696.384453,133.998066,153.140646,-9437.292334
2696.385080,57.427742,153.140646,-9418.149754
2696.385708,133.998066,172.283227,-9437.292334
2696.386335,133.998066,114.855485,-9418.149754
2696.386962,76.570323,153.140646,-9418.149754
2696.387589,133.998066,114.855485,-9418.149754
2696.388216,133.998066,114.855485,-9418.149754
2696.388844,38.285162,191.425808,-9341.579430
2696.389471,76.570323,114.855485,-9360.722011
2696.390098,76.570323,172.283227,-9360.722011
2696.390725,133.998066,133.998066,-9437.292334
2696.391353,38.285162,172.283227,-9418.149754
2696.391980,38.285162,114.855485,-9418.149754
2696.392607,76.570323,114.855485,-9418.149754
2696.393234,133.998066,172.283227,-9437.292334
2696.393861,95.712904,133.998066,-9341.579430
2696.394489,76.570323,153.140646,-9418.149754
2696.395116,133.998066,172.283227,-9418.149754
2696.395743,133.998066,133.998066,-9399.007173
2696.396370,76.570323,95.712904,-9399.007173
2696.396997,57.427742,172.283227,-9418.149754
2696.397625,95.712904,153.140646,-9341.579430
2696.398252,76.570323,153.140646,-9418.149754
2696.398879,76.570323,114.855485,-9437.292334
2696.399506,133.998066,153.140646,-9399.007173
2696.400133,133.998066,172.283227,-9418.149754
2696.400761,133.998066,210.568389,-9418.149754
2696.401388,133.998066,114.855485,-9418.149754
2696.402015,76.570323,114.855485,-9418.149754
2696.402642,38.285162,210.568389,-9418.149754
2696.403269,95.712904,95.712904,-9399.007173
2696.403897,114.855485,95.712904,-9399.007173
2696.404524,133.998066,114.855485,-9418.149754
2696.405151,95.712904,133.998066,-9360.722011
2696.405778,95.712904,172.283227,-9360.722011
2696.406405,133.998066,191.425808,-9437.292334
2696.407033,76.570323,172.283227,-9418.149754
2696.407660,114.855485,95.712904,-9399.007173
2696.408287,133.998066,114.855485,-9360.722011
2696.408914,95.712904,95.712904,-9399.007173
2696.409541,38.285162,114.855485,-9360.722011
2696.410169,95.712904,133.998066,-9360.722011
2696.410796,114.855485,95.712904,-9399.007173
2696.411423,95.712904,133.998066,-9360.722011
2696.412050,133.998066,172.283227,-9418.149754
2696.412677,133.998066,172.283227,-9418.149754
2696.413305,133.998066,153.140646,-9418.149754
2696.413932,133.998066,114.855485,-9418.149754
2696.414559,76.570323,210.568389,-9456.434915
2696.415186,38.285162,114.855485,-9418.149754
2696.415813,76.570323,191.425808,-9418.149754
2696.416441,76.570323,153.140646,-9418.149754
2696.417068,-38.285162,133.998066,-9399.007173
2696.417695,95.712904,133.998066,-9360.722011
2696.418322,133.998066,133.998066,-9456.434915
2696.418950,76.570323,114.855485,-9437.292334
2696.419577,76.570323,153.140646,-9418.149754
2696.420204,95.712904,95.712904,-9399.007173
2696.420831,133.998066,172.283227,-9418.149754
2696.421458,133.998066,153.140646,-9418.149754
2696.422086,76.570323,153.140646,-9418.149754
2696.422713,76.570323,114.855485,-9418.149754
2696.423340,76.570323,114.855485,-9418.149754
2696.423967,114.855485,210.568389,-9360.722011
2696.424594,114.855485,133.998066,-9360.722011
2696.425222,95.712904,114.855485,-9360.722011
2696.425849,172.283227,114.855485,-9379.864592
2696.426476,133.998066,114.855485,-9418.149754
2696.427103,133.998066,210.568389,-9418.149754
2696.427730,76.570323,114.855485,-9360.722011
2696.428358,133.998066,153.140646,-9418.149754
2696.428985,133.998066,153.140646,-9418.149754
2696.429612,38.285162,114.855485,-9456.434915
2696.430239,114.855485,133.998066,-9360.722011
2696.430866,133.998066,172.283227,-9418.149754
2696.431494,38.285162,133.998066,-9322.436850
2696.432121,133.998066,114.855485,-9418.149754
2696.432748,76.570323,114.855485,-9418.149754
2696.433375,76.570323,191.425808,-9360.722011
2696.434002,95.712904,114.855485,-9418.149754
2696.434630,76.570323,114.855485,-9418.149754
2696.435257,57.427742,133.998066,-9341.579430
2696.435884,133.998066,172.283227,-9418.149754
2696.436511,114.855485,95.712904,-9379.864592
2696.437138,95.712904,114.855485,-9418.149754
2696.437766,133.998066,153.140646,-9418.149754
2696.438393,95.712904,114.855485,-9418.149754
2696.439020,114.855485,95.712904,-9399.007173
2696.439647,76.570323,114.855485,-9418.149754
2696.440274,133.998066,114.855485,-9418.149754
2696.440902,133.998066,153.140646,-9418.149754
2696.441529,114.855485,133.998066,-9360.722011
2696.442156,153.140646,153.140646,-9399.007173
2696.442783,76.570323,114.855485,-9418.149754
2696.443411,76.570323,172.283227,-9418.149754
2696.444038,114.855485,248.853550,-9418.149754
2696.444665,133.998066,172.283227,-9399.007173
2696.445292,133.998066,133.998066,-9456.434915
2696.445919,76.570323,153.140646,-9418.149754
2696.446547,38.285162,153.140646,-9418.149754
2696.447174,38.285162,153.140646,-9437.292334
2696.447801,95.712904,191.425808,-9360.722011
2696.448428,38.285162,153.140646,-9418.149754
2696.449055,76.570323,210.568389,-9418.149754
2696.449683,76.570323,114.855485,-9360.722011
2696.450310,114.855485,191.425808,-9341.579430
2696.450937,76.570323,210.568389,-9418.149754
2696.451565,57.427742,133.998066,-9360.722011
2696.452192,38.285162,114.855485,-9418.149754
2696.452819,76.570323,114.855485,-9437.292334
2696.453447,76.570323,172.283227,-9418.149754
2696.454074,76.570323,172.283227,-9418.149754
2696.454701,76.570323,172.283227,-9360.722011
2696.455329,38.285162,172.283227,-9418.149754
2696.455956,153.140646,133.998066,-9399.007173
2696.456583,133.998066,153.140646,-9360.722011
2696.457211,95.712904,153.140646,-9360.722011
2696.457838,76.570323,114.855485,-9418.149754
2696.458466,153.140646,114.855485,-9418.149754
2696.459093,76.570323,114.855485,-9418.149754
2696.459720,95.712904,95.712904,-9399.007173
2696.460348,76.570323,114.855485,-9418.149754
2696.460975,133.998066,114.855485,-9418.149754
2696.461602,133.998066,191.425808,-9399.007173
2696.462230,76.570323,114.855485,-9418.149754
2696.462857,38.285162,114.855485,-9418.149754
2696.463485,76.570323,133.998066,-9360.722011
2696.464112,172.283227,114.855485,-9379.864592
2696.464739,133.998066,172.283227,-9399.007173
2696.465367,76.570323,114.855485,-9360.722011
2696.465994,95.712904,114.855485,-9418.149754
2696.466621,133.998066,114.855485,-9418.149754
2696.467249,95.712904,133.998066,-9360.722011
2696.467876,38.285162,153.140646,-9418.149754
2696.468503,133.998066,114.855485,-9418.149754
2696.469131,153.140646,133.998066,-9399.007173
2696.469758,95.712904,114.855485,-9418.149754
2696.470386,114.855485,133.998066,-9360.722011
2696.471013,76.570323,114.855485,-9418.149754
2696.471640,133.998066,114.855485,-9437.292334
2696.472268,133.998066,210.568389,-9418.149754
2696.472895,76.570323,114.855485,-9360.722011
2696.473522,133.998066,114.855485,-9418.149754
2696.474150,153.140646,133.998066,-9494.720077
2696.474777,76.570323,114.855485,-9418.149754
2696.475405,76.570323,153.140646,-9418.149754
2696.476032,114.855485,133.998066,-9360.722011
2696.476659,95.712904,133.998066,-9360.722011
2696.477287,57.427742,95.712904,-9399.007173
2696.477914,76.570323,133.998066,-9341.579430
2696.478541,76.570323,172.283227,-9418.149754
2696.479169,76.570323,191.425808,-9418.149754
2696.479796,76.570323,114.855485,-9418.149754
2696.480423,95.712904,114.855485,-9418.149754
2696.481051,153.140646,172.283227,-9379.864592
2696.481678,153.140646,153.140646,-9399.007173
2696.482306,95.712904,114.855485,-9418.149754
2696.482933,133.998066,153.140646,-9360.722011
2696.483560,153.140646,153.140646,-9399.007173
2696.484188,133.998066,114.855485,-9437.292334
2696.484815,133.998066,229.710970,-9437.292334
2696.485442,57.427742,191.425808,-9360.722011
2696.486070,76.570323,114.855485,-9418.149754
2696.486697,133.998066,153.140646,-9418.149754
2696.487325,95.712904,114.855485,-9456.434915
2696.487952,95.712904,153.140646,-9341.579430
2696.488579,114.855485,172.283227,-9360.722011
2696.489207,133.998066,114.855485,-9418.149754
2696.489834,76.570323,172.283227,-9360.722011
2696.490461,133.998066,114.855485,-9494.720077
2696.491089,95.712904,95.712904,-9399.007173
2696.491716,95.712904,95.712904,-9437.292334
2696.492343,133.998066,153.140646,-9418.149754
2696.492971,133.998066,210.568389,-9418.149754
2696.493598,76.570323,114.855485,-9360.722011
2696.494226,133.998066,114.855485,-9418.149754
2696.494853,114.855485,133.998066,-9360.722011
2696.495480,153.140646,133.998066,-9399.007173
2696.496108,114.855485,95.712904,-9379.864592
2696.496735,95.712904,95.712904,-9399.007173
2696.497362,19.142581,114.855485,-9418.149754
2696.497990,38.285162,114.855485,-9437.292334
2696.498617,133.998066,153.140646,-9399.007173
2696.499245,76.570323,210.568389,-9418.149754
2696.499872,133.998066,153.140646,-9418.149754
2696.500499,95.712904,153.140646,-9360.722011
2696.501127,38.285162,191.425808,-9418.149754
2696.501754,133.998066,114.855485,-9418.149754
2696.502381,57.427742,172.283227,-9360.722011
2696.503009,114.855485,133.998066,-9341.579430
2696.503636,95.712904,133.998066,-9341.579430
2696.504263,76.570323,114.855485,-9418.149754
2696.504891,76.570323,153.140646,-9418.149754
2696.505518,38.285162,114.855485,-9418.149754
2696.506146,38.285162,172.283227,-9418.149754
2696.506773,38.285162,153.140646,-9437.292334
2696.507400,76.570323,210.568389,-9418.149754
2696.508028,133.998066,172.283227,-9418.149754
2696.508655,133.998066,172.283227,-9399.007173
2696.509282,114.855485,210.568389,-9379.864592
2696.509910,153.140646,133.998066,-9399.007173
2696.510537,172.283227,133.998066,-9341.579430
2696.511165,76.570323,114.855485,-9418.149754
2696.511792,95.712904,114.855485,-9437.292334
2696.512419,153.140646,95.712904,-9360.722011
2696.513047,133.998066,133.998066,-9399.007173
2696.513674,95.712904,114.855485,-9418.149754
2696.514301,95.712904,95.712904,-9399.007173
2696.514929,133.998066,153.140646,-9418.149754
2696.515556,76.570323,76.570323,-9379.864592
2696.516183,114.855485,95.712904,-9399.007173
2696.516811,76.570323,153.140646,-9418.149754
2696.517438,76.570323,114.855485,-9418.149754
2696.518066,57.427742,133.998066,-9360.722011
2696.518693,19.142581,153.140646,-9418.149754
2696.519320,76.570323,114.855485,-9418.149754
2696.519948,133.998066,210.568389,-9418.149754
2696.520575,133.998066,114.855485,-9437.292334
2696.521202,133.998066,133.998066,-9456.434915
2696.521830,76.570323,114.855485,-9437.292334
2696.522457,133.998066,114.855485,-9456.434915
2696.523085,76.570323,114.855485,-9456.434915
2696.523712,76.570323,172.283227,-9418.149754
2696.524339,133.998066,114.855485,-9418.149754
2696.524967,0.000000,172.283227,-9360.722011
2696.525594,38.285162,210.568389,-9418.149754
2696.526221,95.712904,114.855485,-9456.434915
2696.526849,76.570323,114.855485,-9437.292334
2696.527476,76.570323,191.425808,-9418.149754
2696.528103,133.998066,172.283227,-9418.149754
2696.528731,133.998066,153.140646,-9418.149754
2696.529358,133.998066,114.855485,-9456.434915
2696.529986,133.998066,172.283227,-9360.722011
2696.530613,76.570323,210.568389,-9418.149754
2696.531240,133.998066,153.140646,-9418.149754
2696.531868,76.570323,114.855485,-9418.149754
2696.532495,38.285162,114.855485,-9418.149754
2696.533122,76.570323,114.855485,-9418.149754
2696.533750,76.570323,153.140646,-9360.722011
2696.534377,76.570323,114.855485,-9418.149754
2696.535005,133.998066,114.855485,-9418.149754
2696.535632,76.570323,114.855485,-9418.149754
2696.536259,133.998066,114.855485,-9360.722011
2696.536887,76.570323,210.568389,-9418.149754
2696.537514,153.140646,153.140646,-9437.292334
2696.538141,76.570323,133.998066,-9379.864592
2696.538769,133.998066,114.855485,-9418.149754
2696.539396,76.570323,114.855485,-9418.149754
2696.540023,133.998066,172.283227,-9418.149754
2696.540651,76.570323,114.855485,-9418.149754
2696.541278,95.712904,210.568389,-9360.722011
2696.541906,38.285162,210.568389,-9418.149754
2696.542533,38.285162,114.855485,-9418.149754
2696.543160,95.712904,133.998066,-9341.579430
2696.543788,76.570323,95.712904,-9399.007173
2696.544415,133.998066,172.283227,-9418.149754
2696.545042,153.140646,133.998066,-9456.434915
2696.545670,133.998066,114.855485,-9418.149754
2696.546297,95.712904,95.712904,-9379.864592
2696.546925,95.712904,133.998066,-9360.722011
2696.547552,95.712904,114.855485,-9399.007173
2696.548179,95.712904,114.855485,-9437.292334
2696.548807,38.285162,172.283227,-9418.149754
2696.549434,133.998066,210.568389,-9418.149754
2696.550061,133.998066,133.998066,-9399.007173
2696.550689,114.855485,133.998066,-9360.722011
2696.551316,38.285162,153.140646,-9418.149754
2696.551943,76.570323,114.855485,-9437.292334
2696.552571,76.570323,172.283227,-9418.149754
2696.553198,114.855485,172.283227,-9360.722011
2696.553826,76.570323,114.855485,-9418.149754
2696.554453,133.998066,210.568389,-9418.149754
2696.555080,76.570323,172.283227,-9418.149754
2696.555708,95.712904,133.998066,-9360.722011
2696.556335,95.712904,133.998066,-9341.579430
2696.556962,95.712904,114.855485,-9418.149754
2696.557590,76.570323,76.570323,-9379.864592
2696.558217,76.570323,172.283227,-9418.149754
2696.558845,57.427742,133.998066,-9360.722011
2696.559472,76.570323,114.855485,-9418.149754
2696.560099,172.283227,95.712904,-9399.007173
2696.560727,95.712904,114.855485,-9418.149754
2696.561354,95.712904,153.140646,-9322.436850
2696.561981,76.570323,133.998066,-9360.722011
2696.562609,114.855485,133.998066,-9437.292334
2696.563236,76.570323,114.855485,-9418.149754
2696.563864,133.998066,114.855485,-9418.149754
2696.564491,133.998066,172.283227,-9494.720077
2696.565118,95.712904,133.998066,-9341.579430
2696.565746,95.712904,133.998066,-9360.722011
2696.566373,133.998066,172.283227,-9418.149754
2696.567000,95.712904,191.425808,-9360.722011
2696.567628,114.855485,133.998066,-9360.722011
2696.568255,76.570323,229.710970,-9418.149754
2696.568883,95.712904,133.998066,-9360.722011
2696.569510,57.427742,172.283227,-9360.722011
2696.570137,133.998066,114.855485,-9418.149754
2696.570765,76.570323,114.855485,-9456.434915
2696.571392,114.855485,133.998066,-9360.722011
2696.572019,114.855485,114.855485,-9379.864592
2696.572647,57.427742,210.568389,-9418.149754
2696.573274,76.570323,76.570323,-9379.864592
2696.573902,95.712904,172.283227,-9360.722011
2696.574529,114.855485,76.570323,-9418.149754
2696.575156,76.570323,153.140646,-9418.149754
2696.575784,133.998066,172.283227,-9418.149754
2696.576411,38.285162,153.140646,-9418.149754
2696.577038,38.285162,114.855485,-9418.149754
2696.577666,38.285162,229.710970,-9456.434915
2696.578293,76.570323,210.568389,-9418.149754
2696.578920,76.570323,153.140646,-9437.292334
2696.579548,95.712904,95.712904,-9399.007173
2696.580175,114.855485,153.140646,-9341.579430
2696.580803,114.855485,133.998066,-9360.722011
2696.581430,114.855485,76.570323,-9418.149754
2696.582057,95.712904,133.998066,-9360.722011
2696.582685,133.998066,153.140646,-9418.149754
2696.583312,76.570323,114.855485,-9418.149754
2696.583939,76.570323,114.855485,-9418.149754
2696.584567,38.285162,172.283227,-9418.149754
2696.585194,95.712904,133.998066,-9360.722011
2696.585822,133.998066,114.855485,-9418.149754
2696.586449,76.570323,210.568389,-9418.149754
2696.587076,95.712904,153.140646,-9341.579430
2696.587704,19.142581,114.855485,-9418.149754
2696.588331,19.142581,191.425808,-9418.149754
2696.588958,95.712904,153.140646,-9418.149754
2696.589586,95.712904,191.425808,-9360.722011
2696.590213,172.283227,153.140646,-9379.864592
2696.590841,95.712904,95.712904,-9399.007173
2696.591468,76.570323,114.855485,-9418.149754
2696.592095,76.570323,114.855485,-9418.149754
2696.592723,76.570323,114.855485,-9418.149754
2696.593350,114.855485,95.712904,-9399.007173
2696.593977,114.855485,95.712904,-9494.720077
2696.594605,76.570323,114.855485,-9418.149754
2696.595232,133.998066,114.855485,-9418.149754
2696.595860,76.570323,76.570323,-9379.864592
2696.596487,76.570323,114.855485,-9418.149754
2696.597114,76.570323,114.855485,-9418.149754
2696.597742,114.855485,153.140646,-9360.722011
2696.598369,133.998066,114.855485,-9418.149754
2696.598996,95.712904,133.998066,-9360.722011
2696.599624,76.570323,153.140646,-9418.149754
2696.600251,57.427742,172.283227,-9418.149754
2696.600879,38.285162,114.855485,-9418.149754
2696.601506,76.570323,114.855485,-9418.149754
2696.602133,76.570323,114.855485,-9360.722011
2696.602761,133.998066,114.855485,-9418.149754
2696.603388,114.855485,191.425808,-9360.722011
2696.604015,95.712904,114.855485,-9418.149754
2696.604643,76.570323,95.712904,-9418.149754
2696.605270,114.855485,172.283227,-9360.722011
2696.605897,114.855485,95.712904,-9399.007173
2696.606525,133.998066,114.855485,-9418.149754
2696.607152,172.283227,172.283227,-9379.864592
2696.607780,133.998066,114.855485,-9418.149754
2696.608407,95.712904,210.568389,-9418.149754
2696.609034,95.712904,114.855485,-9437.292334
2696.609662,38.285162,172.283227,-9418.149754
2696.610289,95.712904,114.855485,-9418.149754
2696.610916,133.998066,114.855485,-9418.149754
2696.611544,133.998066,133.998066,-9399.007173
2696.612171,76.570323,114.855485,-9360.722011
2696.612799,95.712904,153.140646,-9360.722011
2696.613426,76.570323,172.283227,-9360.722011
2696.614053,114.855485,133.998066,-9360.722011
2696.614681,133.998066,114.855485,-9418.149754
2696.615308,133.998066,76.570323,-9322.436850
2696.615935,114.855485,172.283227,-9360.722011
2696.616563,38.285162,133.998066,-9360.722011
2696.617190,19.142581,114.855485,-9437.292334
2696.617818,95.712904,114.855485,-9418.149754
2696.618445,38.285162,114.855485,-9418.149754
2696.619072,76.570323,114.855485,-9418.149754
2696.619700,76.570323,114.855485,-9418.149754
2696.620327,133.998066,114.855485,-9418.149754
2696.620954,95.712904,172.283227,-9399.007173
2696.621582,76.570323,114.855485,-9418.149754
2696.622209,95.712904,153.140646,-9360.722011
2696.622837,114.855485,95.712904,-9399.007173
2696.623464,133.998066,114.855485,-9418.149754
2696.624091,133.998066,114.855485,-9418.149754
2696.624719,153.140646,153.140646,-9494.720077
2696.625346,153.140646,153.140646,-9437.292334
2696.625973,76.570323,172.283227,-9418.149754
2696.626601,76.570323,114.855485,-9418.149754
2696.627228,76.570323,114.855485,-9418.149754
2696.627856,38.285162,114.855485,-9418.149754
2696.628483,76.570323,76.570323,-9379.864592
2696.629110,38.285162,133.998066,-9360.722011
2696.629738,114.855485,95.712904,-9399.007173
2696.630365,76.570323,76.570323,-9379.864592
2696.630992,57.427742,114.855485,-9437.292334
2696.631620,76.570323,153.140646,-9437.292334
2696.632247,57.427742,210.568389,-9360.722011
2696.632874,133.998066,153.140646,-9418.149754
2696.633502,38.285162,114.855485,-9418.149754
2696.634129,114.855485,133.998066,-9360.722011
2696.634757,172.283227,76.570323,-9418.149754
2696.635384,76.570323,153.140646,-9418.149754
2696.636011,38.285162,114.855485,-9418.149754
2696.636639,38.285162,172.283227,-9418.149754
2696.637266,76.570323,153.140646,-9418.149754
2696.637893,95.712904,172.283227,-9360.722011
2696.638521,76.570323,76.570323,-9379.864592
2696.639148,114.855485,133.998066,-9360.722011
2696.639776,133.998066,76.570323,-9399.007173
2696.640403,76.570323,153.140646,-9418.149754
2696.641030,0.000000,76.570323,-9418.149754
2696.641658,114.855485,172.283227,-9360.722011
2696.642285,133.998066,153.140646,-9418.149754
2696.642912,38.285162,172.283227,-9418.149754
2696.643540,133.998066,114.855485,-9418.149754
2696.644167,133.998066,114.855485,-9418.149754
2696.644795,95.712904,172.283227,-9341.579430
2696.645422,114.855485,133.998066,-9360.722011
2696.646049,38.285162,114.855485,-9418.149754
2696.646677,95.712904,172.283227,-9360.722011
2696.647304,38.285162,114.855485,-9456.434915
2696.647931,38.285162,114.855485,-9418.149754
2696.648559,76.570323,114.855485,-9418.149754
2696.649186,57.427742,172.283227,-9360.722011
2696.649814,133.998066,114.855485,-9418.149754
2696.650441,76.570323,172.283227,-9418.149754
2696.651068,76.570323,114.855485,-9418.149754
2696.651696,76.570323,114.855485,-9418.149754
2696.652323,95.712904,114.855485,-9437.292334
2696.652950,153.140646,114.855485,-9418.149754
2696.653577,76.570323,76.570323,-9379.864592
2696.654205,133.998066,114.855485,-9418.149754
2696.654832,95.712904,95.712904,-9399.007173
2696.655459,133.998066,153.140646,-9418.149754
2696.656087,114.855485,172.283227,-9360.722011
2696.656714,133.998066,153.140646,-9399.007173
2696.657341,38.285162,153.140646,-9360.722011
2696.657969,76.570323,114.855485,-9437.292334
2696.658596,76.570323,210.568389,-9418.149754
2696.659223,76.570323,210.568389,-9418.149754
2696.659850,133.998066,153.140646,-9399.007173
2696.660478,95.712904,172.283227,-9322.436850
2696.661105,76.570323,210.568389,-9360.722011
2696.661732,76.570323,114.855485,-9418.149754
2696.662360,114.855485,153.140646,-9360.722011
2696.662987,38.285162,210.568389,-9437.292334
2696.663614,76.570323,114.855485,-9418.149754
2696.664242,76.570323,114.855485,-9418.149754
2696.664869,153.140646,114.855485,-9456.434915
2696.665496,133.998066,114.855485,-9418.149754
2696.666123,76.570323,172.283227,-9418.149754
2696.666751,133.998066,114.855485,-9360.722011
2696.667378,38.285162,172.283227,-9418.149754
2696.668005,95.712904,95.712904,-9399.007173
2696.668633,133.998066,114.855485,-9456.434915
2696.669260,133.998066,133.998066,-9399.007173
2696.669887,76.570323,114.855485,-9456.434915
2696.670515,76.570323,114.855485,-9418.149754
2696.671142,133.998066,172.283227,-9418.149754
2696.671769,210.568389,133.998066,-9399.007173
2696.672396,133.998066,210.568389,-9456.434915
2696.673024,76.570323,114.855485,-9456.434915
2696.673651,76.570323,114.855485,-9418.149754
2696.674278,76.570323,172.283227,-9418.149754
2696.674906,38.285162,153.140646,-9418.149754
2696.675533,76.570323,172.283227,-9418.149754
2696.676160,133.998066,172.283227,-9437.292334
2696.676787,133.998066,210.568389,-9418.149754
2696.677415,76.570323,114.855485,-9418.149754
2696.678042,57.427742,133.998066,-9341.579430
2696.678669,76.570323,153.140646,-9418.149754
2696.679297,133.998066,114.855485,-9418.149754
2696.679924,133.998066,153.140646,-9437.292334
2696.680551,133.998066,153.140646,-9399.007173
2696.681179,133.998066,114.855485,-9418.149754
2696.681806,153.140646,133.998066,-9437.292334
2696.682433,95.712904,133.998066,-9360.722011
2696.683060,133.998066,210.568389,-9456.434915
2696.683688,133.998066,114.855485,-9418.149754
2696.684315,76.570323,114.855485,-9494.720077
2696.684942,133.998066,172.283227,-9418.149754
2696.685570,76.570323,153.140646,-9418.149754
2696.686197,57.427742,133.998066,-9360.722011
2696.686824,95.712904,133.998066,-9360.722011
2696.687452,38.285162,191.425808,-9418.149754
2696.688079,57.427742,133.998066,-9360.722011
2696.688706,133.998066,114.855485,-9418.149754
2696.689333,153.140646,153.140646,-9456.434915
2696.689961,153.140646,133.998066,-9399.007173
2696.690588,76.570323,114.855485,-9418.149754
2696.691215,114.855485,95.712904,-9399.007173
2696.691843,133.998066,153.140646,-9418.149754
2696.692470,114.855485,133.998066,-9360.722011
2696.693097,95.712904,133.998066,-9360.722011
2696.693725,38.285162,172.283227,-9418.149754
2696.694352,76.570323,114.855485,-9418.149754
2696.694979,114.855485,191.425808,-9360.722011
2696.695606,76.570323,114.855485,-9418.149754
2696.696234,133.998066,114.855485,-9418.149754
2696.696861,38.285162,114.855485,-9418.149754
2696.697488,95.712904,114.855485,-9437.292334
2696.698116,114.855485,172.283227,-9360.722011
2696.698743,76.570323,153.140646,-9418.149754
2696.699370,114.855485,172.283227,-9360.722011
2696.699997,95.712904,76.570323,-9399.007173
2696.700625,76.570323,114.855485,-9437.292334
2696.701252,95.712904,172.283227,-9437.292334
2696.701879,76.570323,172.283227,-9475.577496
2696.702507,76.570323,153.140646,-9418.149754
2696.703134,133.998066,153.140646,-9418.149754
2696.703761,38.285162,114.855485,-9418.149754
2696.704389,76.570323,114.855485,-9418.149754
2696.705016,153.140646,133.998066,-9399.007173
2696.705643,95.712904,153.140646,-9360.722011
2696.706270,133.998066,114.855485,-9418.149754
2696.706898,76.570323,114.855485,-9437.292334
2696.707525,133.998066,210.568389,-9418.149754
2696.708152,76.570323,95.712904,-9399.007173
2696.708780,133.998066,172.283227,-9399.007173
2696.709407,114.855485,133.998066,-9360.722011
2696.710034,153.140646,133.998066,-9399.007173
2696.710662,76.570323,153.140646,-9341.579430
2696.711289,133.998066,114.855485,-9418.149754
2696.711916,76.570323,172.283227,-9418.149754
2696.712543,95.712904,114.855485,-9418.149754
2696.713171,133.998066,153.140646,-9418.149754
2696.713798,133.998066,210.568389,-9418.149754
2696.714425,114.855485,153.140646,-9360.722011
2696.715053,133.998066,153.140646,-9418.149754
2696.715680,76.570323,172.283227,-9418.149754
2696.716307,114.855485,133.998066,-9360.722011
2696.716935,76.570323,114.855485,-9418.149754
2696.717562,76.570323,114.855485,-9418.149754
2696.718189,38.285162,153.140646,-9418.149754
2696.718816,76.570323,210.568389,-9456.434915
2696.719444,114.855485,172.283227,-9360.722011
2696.720071,133.998066,114.855485,-9418.149754
2696.720698,76.570323,133.998066,-9360.722011
2696.721326,133.998066,114.855485,-9418.149754
2696.721953,76.570323,114.855485,-9437.292334
2696.722580,133.998066,114.855485,-9418.149754
2696.723207,114.855485,133.998066,-9360.722011
2696.723835,114.855485,114.855485,-9379.864592
2696.724462,133.998066,191.425808,-9399.007173
2696.725089,172.283227,153.140646,-9379.864592
2696.725717,95.712904,114.855485,-9399.007173
2696.726344,95.712904,191.425808,-9360.722011
2696.726971,76.570323,114.855485,-9418.149754
2696.727599,76.570323,210.568389,-9418.149754
2696.728226,76.570323,172.283227,-9360.722011
2696.728853,38.285162,172.283227,-9418.149754
2696.729480,38.285162,172.283227,-9437.292334
2696.730108,38.285162,172.283227,-9418.149754
2696.730735,76.570323,114.855485,-9418.149754
2696.731362,76.570323,172.283227,-9418.149754
2696.731990,38.285162,114.855485,-9418.149754
2696.732617,76.570323,114.855485,-9418.149754
2696.733244,95.712904,133.998066,-9360.722011
2696.733872,76.570323,76.570323,-9341.579430
2696.734499,95.712904,95.712904,-9399.007173
2696.735126,38.285162,172.283227,-9418.149754
2696.735753,133.998066,172.283227,-9418.149754
2696.736381,95.712904,191.425808,-9360.722011
2696.737008,133.998066,153.140646,-9418.149754
2696.737635,19.142581,133.998066,-9399.007173
2696.738263,38.285162,114.855485,-9437.292334
2696.738890,133.998066,114.855485,-9418.149754
2696.739517,38.285162,114.855485,-9418.149754
2696.740145,38.285162,114.855485,-9418.149754
2696.740772,133.998066,153.140646,-9418.149754
2696.741399,95.712904,133.998066,-9360.722011
2696.742026,38.285162,114.855485,-9437.292334
2696.742654,76.570323,210.568389,-9360.722011
2696.743281,76.570323,114.855485,-9418.149754
2696.743908,76.570323,114.855485,-9418.149754
2696.744536,38.285162,114.855485,-9418.149754
2696.745163,133.998066,114.855485,-9418.149754
2696.745790,76.570323,114.855485,-9418.149754
2696.746417,133.998066,114.855485,-9418.149754
2696.747045,114.855485,133.998066,-9360.722011
2696.747672,95.712904,133.998066,-9360.722011
2696.748299,76.570323,153.140646,-9418.149754
2696.748927,38.285162,114.855485,-9437.292334
2696.749554,95.712904,114.855485,-9418.149754
2696.750181,95.712904,114.855485,-9418.149754
2696.750809,133.998066,210.568389,-9418.149754
2696.751436,76.570323,153.140646,-9418.149754
2696.752064,95.712904,133.998066,-9341.579430
2696.752691,114.855485,133.998066,-9360.722011
2696.753319,38.285162,114.855485,-9418.149754
2696.753947,153.140646,133.998066,-9399.007173
2696.754574,133.998066,114.855485,-9437.292334
2696.755202,133.998066,114.855485,-9418.149754
2696.755830,76.570323,114.855485,-9456.434915
2696.756457,38.285162,114.855485,-9437.292334
2696.757085,76.570323,153.140646,-9437.292334
2696.757713,95.712904,114.855485,-9418.149754
2696.758340,95.712904,133.998066,-9360.722011
2696.758968,95.712904,153.140646,-9418.149754
2696.759596,76.570323,114.855485,-9418.149754
2696.760223,95.712904,76.570323,-9379.864592
2696.760851,76.570323,153.140646,-9418.149754
2696.761479,95.712904,95.712904,-9399.007173
2696.762107,76.570323,172.283227,-9360.722011
2696.762734,114.855485,172.283227,-9360.722011
2696.763362,76.570323,95.712904,-9399.007173
2696.763990,76.570323,248.853550,-9360.722011
2696.764617,38.285162,114.855485,-9360.722011
2696.765245,95.712904,95.712904,-9399.007173
2696.765873,38.285162,114.855485,-9418.149754
2696.766500,38.285162,114.855485,-9418.149754
2696.767128,38.285162,114.855485,-9418.149754
2696.767756,95.712904,114.855485,-9418.149754
2696.768383,38.285162,153.140646,-9418.149754
2696.769011,114.855485,133.998066,-9360.722011
2696.769639,210.568389,133.998066,-9399.007173
2696.770266,153.140646,133.998066,-9399.007173
2696.770894,172.283227,153.140646,-9379.864592
2696.771522,133.998066,172.283227,-9418.149754
2696.772150,133.998066,153.140646,-9437.292334
2696.772777,38.285162,114.855485,-9418.149754
2696.773405,114.855485,133.998066,-9360.722011
2696.774033,76.570323,153.140646,-9418.149754
2696.774660,76.570323,172.283227,-9437.292334
2696.775288,76.570323,76.570323,-9379.864592
2696.775916,57.427742,114.855485,-9399.007173
2696.776543,133.998066,114.855485,-9418.149754
2696.777171,133.998066,76.570323,-9379.864592
2696.777799,114.855485,191.425808,-9360.722011
2696.778426,76.570323,114.855485,-9418.149754
2696.779054,76.570323,114.855485,-9418.149754
2696.779682,38.285162,76.570323,-9379.864592
2696.780309,76.570323,114.855485,-9418.149754
2696.780937,38.285162,114.855485,-9360.722011
2696.781565,114.855485,172.283227,-9418.149754
2696.782193,114.855485,133.998066,-9360.722011
2696.782820,114.855485,114.855485,-9418.149754
2696.783448,95.712904,114.855485,-9418.149754
2696.784076,133.998066,133.998066,-9399.007173
2696.784703,76.570323,172.283227,-9418.149754
2696.785331,114.855485,95.712904,-9399.007173
2696.785959,133.998066,114.855485,-9418.149754
2696.786586,153.140646,114.855485,-9418.149754
2696.787214,114.855485,153.140646,-9360.722011
2696.787842,133.998066,172.283227,-9456.434915
2696.788469,76.570323,153.140646,-9456.434915
2696.789097,38.285162,114.855485,-9418.149754
2696.789725,114.855485,95.712904,-9399.007173
2696.790352,95.712904,133.998066,-9360.722011
2696.790980,133.998066,172.283227,-9418.149754
2696.791608,133.998066,153.140646,-9456.434915
2696.792235,114.855485,95.712904,-9399.007173
2696.792863,153.140646,153.140646,-9437.292334
2696.793491,57.427742,172.283227,-9418.149754
2696.794119,76.570323,114.855485,-9418.149754
2696.794746,114.855485,133.998066,-9341.579430
2696.795374,38.285162,114.855485,-9418.149754
2696.796002,114.855485,153.140646,-9360.722011
2696.796629,153.140646,133.998066,-9379.864592
2696.797257,133.998066,172.283227,-9418.149754
2696.797885,133.998066,114.855485,-9437.292334
2696.798512,133.998066,172.283227,-9399.007173
2696.799140,95.712904,114.855485,-9418.149754
2696.799768,153.140646,153.140646,-9399.007173
2696.800395,133.998066,172.283227,-9418.149754
2696.801023,153.140646,133.998066,-9399.007173
2696.801651,133.998066,114.855485,-9418.149754
2696.802278,76.570323,114.855485,-9418.149754
2696.802906,76.570323,172.283227,-9418.149754
2696.803534,38.285162,114.855485,-9418.149754
2696.804162,95.712904,210.568389,-9418.149754
2696.804789,133.998066,114.855485,-9418.149754
2696.805417,76.570323,76.570323,-9399.007173
2696.806045,133.998066,114.855485,-9418.149754
2696.806672,153.140646,133.998066,-9399.007173
2696.807300,76.570323,172.283227,-9360.722011
2696.807928,38.285162,172.283227,-9418.149754
2696.808555,38.285162,114.855485,-9418.149754
2696.809183,76.570323,114.855485,-9418.149754
2696.809811,76.570323,114.855485,-9437.292334
2696.810438,76.570323,114.855485,-9418.149754
2696.811066,76.570323,114.855485,-9437.292334
2696.811694,95.712904,172.283227,-9418.149754
2696.812321,95.712904,153.140646,-9360.722011
2696.812949,133.998066,114.855485,-9418.149754
2696.813577,76.570323,114.855485,-9418.149754
2696.814205,76.570323,76.570323,-9399.007173
2696.814832,38.285162,114.855485,-9418.149754
2696.815460,38.285162,114.855485,-9418.149754
2696.816088,114.855485,133.998066,-9360.722011
2696.816715,114.855485,172.283227,-9360.722011
2696.817343,76.570323,210.568389,-9418.149754
2696.817971,38.285162,114.855485,-9418.149754
2696.818598,114.855485,191.425808,-9418.149754
2696.819226,76.570323,153.140646,-9418.149754
2696.819854,76.570323,172.283227,-9418.149754
2696.820481,76.570323,133.998066,-9360.722011
2696.821109,133.998066,114.855485,-9418.149754
2696.821737,38.285162,114.855485,-9418.149754
2696.822364,133.998066,153.140646,-9418.149754
2696.822992,95.712904,172.283227,-9418.149754
2696.823620,76.570323,114.855485,-9360.722011
2696.824247,133.998066,133.998066,-9399.007173
2696.824875,95.712904,210.568389,-9360.722011
2696.825503,133.998066,210.568389,-9418.149754
2696.826131,114.855485,153.140646,-9360.722011
2696.826758,133.998066,172.283227,-9399.007173
2696.827386,114.855485,133.998066,-9360.722011
2696.828014,95.712904,153.140646,-9360.722011
2696.828641,76.570323,210.568389,-9418.149754
2696.829269,210.568389,172.283227,-9399.007173
2696.829897,133.998066,210.568389,-9418.149754
2696.830524,133.998066,191.425808,-9418.149754
2696.831152,76.570323,172.283227,-9456.434915
2696.831780,76.570323,114.855485,-9418.149754
2696.832407,133.998066,172.283227,-9418.149754
2696.833035,76.570323,114.855485,-9456.434915
2696.833663,114.855485,95.712904,-9399.007173
2696.834290,76.570323,114.855485,-9418.149754
2696.834918,95.712904,114.855485,-9418.149754
2696.835546,133.998066,114.855485,-9475.577496
2696.836174,133.998066,153.140646,-9418.149754
2696.836801,76.570323,114.855485,-9418.149754
2696.837429,76.570323,76.570323,-9379.864592
2696.838057,38.285162,153.140646,-9418.149754
2696.838684,95.712904,133.998066,-9360.722011
2696.839312,76.570323,172.283227,-9418.149754
2696.839940,76.570323,114.855485,-9418.149754
2696.840567,114.855485,95.712904,-9399.007173
2696.841195,153.140646,133.998066,-9399.007173
2696.841823,76.570323,114.855485,-9418.149754
2696.842450,133.998066,114.855485,-9360.722011
2696.843078,114.855485,76.570323,-9418.149754
2696.843706,76.570323,114.855485,-9437.292334
2696.844333,133.998066,133.998066,-9379.864592
2696.844961,38.285162,153.140646,-9437.292334
2696.845589,76.570323,172.283227,-9418.149754
2696.846217,133.998066,114.855485,-9418.149754
2696.846844,114.855485,133.998066,-9360.722011
2696.847472,133.998066,210.568389,-9418.149754
2696.848100,95.712904,133.998066,-9360.722011
2696.848727,76.570323,133.998066,-9360.722011
2696.849355,133.998066,229.710970,-9418.149754
2696.849983,57.427742,229.710970,-9399.007173
2696.850610,76.570323,210.568389,-9418.149754
2696.851238,76.570323,210.568389,-9418.149754
2696.851866,76.570323,114.855485,-9456.434915
2696.852493,38.285162,114.855485,-9418.149754
2696.853120,76.570323,153.140646,-9418.149754
2696.853748,95.712904,133.998066,-9418.149754
2696.854375,76.570323,114.855485,-9418.149754
2696.855003,38.285162,114.855485,-9418.149754
2696.855630,133.998066,153.140646,-9360.722011
2696.856257,95.712904,133.998066,-9360.722011
2696.856885,57.427742,114.855485,-9399.007173
2696.857512,57.427742,191.425808,-9360.722011
2696.858139,57.427742,172.283227,-9341.579430
2696.858767,95.712904,133.998066,-9360.722011
2696.859394,76.570323,153.140646,-9418.149754
2696.860022,95.712904,153.140646,-9360.722011
2696.860649,76.570323,153.140646,-9418.149754
2696.861276,38.285162,76.570323,-9379.864592
2696.861904,76.570323,114.855485,-9418.149754
2696.862531,95.712904,133.998066,-9360.722011
2696.863158,95.712904,114.855485,-9399.007173
2696.863786,76.570323,172.283227,-9418.149754
2696.864413,114.855485,172.283227,-9360.722011
2696.865041,172.283227,114.855485,-9379.864592
2696.865668,95.712904,210.568389,-9418.149754
2696.866295,76.570323,114.855485,-9418.149754
2696.866923,19.142581,153.140646,-9399.007173
2696.867550,38.285162,153.140646,-9418.149754
2696.868177,38.285162,210.568389,-9418.149754
2696.868805,57.427742,287.138712,-9399.007173
2696.869432,76.570323,172.283227,-9456.434915
2696.870060,133.998066,114.855485,-9418.149754
2696.870687,133.998066,210.568389,-9418.149754
2696.871314,76.570323,133.998066,-9360.722011
2696.871942,95.712904,133.998066,-9360.722011
2696.872569,95.712904,153.140646,-9360.722011
2696.873196,95.712904,133.998066,-9360.722011
2696.873824,57.427742,210.568389,-9360.722011
2696.874451,38.285162,114.855485,-9418.149754
2696.875079,114.855485,153.140646,-9360.722011
2696.875706,76.570323,114.855485,-9418.149754
2696.876333,76.570323,172.283227,-9418.149754
2696.876961,114.855485,133.998066,-9341.579430
2696.877588,76.570323,114.855485,-9418.149754
2696.878216,76.570323,114.855485,-9418.149754
2696.878843,114.855485,133.998066,-9360.722011
2696.879470,95.712904,114.855485,-9418.149754
2696.880098,133.998066,114.855485,-9418.149754
2696.880725,133.998066,114.855485,-9418.149754
2696.881352,133.998066,153.140646,-9437.292334
2696.881980,76.570323,114.855485,-9418.149754
2696.882607,95.712904,153.140646,-9341.579430
2696.883235,76.570323,172.283227,-9418.149754
2696.883862,76.570323,114.855485,-9418.149754
2696.884489,76.570323,114.855485,-9418.149754
2696.885117,95.712904,153.140646,-9418.149754
2696.885744,95.712904,95.712904,-9399.007173
2696.886371,114.855485,133.998066,-9360.722011
2696.886999,76.570323,114.855485,-9418.149754
2696.887626,95.712904,191.425808,-9360.722011
2696.888254,57.427742,114.855485,-9418.149754
2696.888881,95.712904,133.998066,-9360.722011
2696.889508,95.712904,172.283227,-9360.722011
2696.890136,95.712904,133.998066,-9360.722011
2696.890763,38.285162,114.855485,-9418.149754
2696.891390,114.855485,133.998066,-9360.722011
2696.892018,133.998066,114.855485,-9418.149754
2696.892645,95.712904,95.712904,-9456.434915
2696.893273,76.570323,76.570323,-9379.864592
2696.893900,133.998066,114.855485,-9418.149754
2696.894527,133.998066,114.855485,-9418.149754
2696.895155,76.570323,153.140646,-9418.149754
2696.895782,95.712904,114.855485,-9418.149754
2696.896409,114.855485,191.425808,-9418.149754
2696.897037,133.998066,172.283227,-9418.149754
2696.897664,76.570323,172.283227,-9418.149754
2696.898292,95.712904,172.283227,-9360.722011
2696.898919,76.570323,114.855485,-9418.149754
2696.899546,76.570323,172.283227,-9418.149754
2696.900174,133.998066,114.855485,-9418.149754
2696.900801,95.712904,210.568389,-9360.722011
2696.901428,76.570323,114.855485,-9418.149754
2696.902056,95.712904,153.140646,-9437.292334
2696.902683,95.712904,95.712904,-9399.007173
2696.903311,76.570323,114.855485,-9418.149754
2696.903938,114.855485,95.712904,-9399.007173
2696.904565,95.712904,57.427742,-9399.007173
2696.905193,76.570323,76.570323,-9379.864592
2696.905820,95.712904,114.855485,-9418.149754
2696.906447,133.998066,191.425808,-9322.436850
2696.907075,95.712904,191.425808,-9360.722011
2696.907702,95.712904,172.283227,-9418.149754
2696.908330,95.712904,95.712904,-9399.007173
2696.908957,133.998066,191.425808,-9418.149754
2696.909584,76.570323,172.283227,-9418.149754
2696.910212,133.998066,210.568389,-9418.149754
2696.910839,133.998066,114.855485,-9418.149754
2696.911466,38.285162,114.855485,-9418.149754
2696.912094,95.712904,95.712904,-9399.007173
2696.912721,153.140646,76.570323,-9399.007173
2696.913349,76.570323,76.570323,-9379.864592
2696.913976,133.998066,114.855485,-9418.149754
2696.914603,76.570323,172.283227,-9418.149754
2696.915231,133.998066,114.855485,-9418.149754
2696.915858,57.427742,133.998066,-9360.722011
2696.916485,38.285162,114.855485,-9418.149754
2696.917113,133.998066,172.283227,-9418.149754
2696.917740,172.283227,172.283227,-9379.864592
2696.918368,153.140646,114.855485,-9418.149754
2696.918995,76.570323,114.855485,-9418.149754
2696.919622,76.570323,210.568389,-9418.149754
2696.920250,95.712904,133.998066,-9360.722011
2696.920877,133.998066,114.855485,-9418.149754
2696.921504,57.427742,172.283227,-9360.722011
2696.922132,133.998066,114.855485,-9418.149754
2696.922759,95.712904,95.712904,-9399.007173
2696.923387,114.855485,133.998066,-9360.722011
2696.924014,153.140646,114.855485,-9456.434915
2696.924641,133.998066,114.855485,-9418.149754
2696.925269,133.998066,153.140646,-9379.864592
2696.925896,19.142581,114.855485,-9437.292334
2696.926523,133.998066,210.568389,-9418.149754
2696.927151,76.570323,210.568389,-9418.149754
2696.927778,133.998066,191.425808,-9418.149754
2696.928406,133.998066,133.998066,-9399.007173
2696.929033,76.570323,114.855485,-9418.149754
2696.929660,133.998066,114.855485,-9360.722011
2696.930288,95.712904,172.283227,-9360.722011
2696.930915,95.712904,153.140646,-9360.722011
2696.931542,133.998066,191.425808,-9399.007173
2696.932170,76.570323,172.283227,-9418.149754
2696.932797,95.712904,153.140646,-9360.722011
2696.933425,114.855485,133.998066,-9360.722011
2696.934052,76.570323,114.855485,-9418.149754
2696.934679,95.712904,95.712904,-9456.434915
2696.935307,133.998066,133.998066,-9399.007173
2696.935934,76.570323,114.855485,-9360.722011
2696.936562,38.285162,114.855485,-9418.149754
2696.937189,76.570323,172.283227,-9418.149754
2696.937816,57.427742,133.998066,-9360.722011
2696.938444,57.427742,95.712904,-9399.007173
2696.939071,76.570323,114.855485,-9418.149754
2696.939698,76.570323,114.855485,-9418.149754
2696.940326,76.570323,114.855485,-9418.149754
2696.940953,95.712904,229.710970,-9456.434915
2696.941581,133.998066,114.855485,-9418.149754
2696.942208,38.285162,153.140646,-9418.149754
2696.942835,95.712904,153.140646,-9360.722011
2696.943463,133.998066,114.855485,-9418.149754
2696.944090,95.712904,133.998066,-9360.722011
2696.944717,57.427742,95.712904,-9399.007173
2696.945345,76.570323,114.855485,-9418.149754
2696.945972,76.570323,114.855485,-9456.434915
2696.946600,38.285162,114.855485,-9418.149754
2696.947227,133.998066,153.140646,-9418.149754
2696.947854,76.570323,172.283227,-9418.149754
2696.948482,76.570323,95.712904,-9456.434915
2696.949109,95.712904,95.712904,-9399.007173
2696.949736,76.570323,114.855485,-9418.149754
2696.950364,19.142581,114.855485,-9456.434915
2696.950991,57.427742,95.712904,-9399.007173
2696.951619,133.998066,114.855485,-9418.149754
2696.952246,133.998066,153.140646,-9418.149754
2696.952874,76.570323,114.855485,-9418.149754
2696.953501,133.998066,114.855485,-9418.149754
2696.954129,133.998066,153.140646,-9418.149754
2696.954756,153.140646,172.283227,-9399.007173
2696.955384,95.712904,191.425808,-9360.722011
2696.956012,76.570323,210.568389,-9418.149754
2696.956639,57.427742,191.425808,-9360.722011
2696.957267,76.570323,153.140646,-9418.149754
2696.957894,76.570323,172.283227,-9418.149754
2696.958522,76.570323,114.855485,-9418.149754
2696.959150,38.285162,114.855485,-9418.149754
2696.959777,76.570323,191.425808,-9418.149754
2696.960405,76.570323,172.283227,-9418.149754
2696.961033,133.998066,114.855485,-9456.434915
2696.961660,133.998066,133.998066,-9399.007173
2696.962288,114.855485,95.712904,-9399.007173
2696.962915,57.427742,95.712904,-9399.007173
2696.963543,153.140646,133.998066,-9399.007173
2696.964171,153.140646,133.998066,-9399.007173
2696.964798,153.140646,133.998066,-9399.007173
2696.965426,133.998066,114.855485,-9360.722011
2696.966054,114.855485,114.855485,-9379.864592
2696.966681,76.570323,153.140646,-9418.149754
2696.967309,153.140646,133.998066,-9399.007173
2696.967936,95.712904,114.855485,-9379.864592
2696.968564,114.855485,153.140646,-9360.722011
2696.969192,76.570323,172.283227,-9418.149754
2696.969819,114.855485,172.283227,-9360.722011
2696.970447,57.427742,153.140646,-9360.722011
2696.971074,76.570323,114.855485,-9418.149754
2696.971702,133.998066,133.998066,-9399.007173
2696.972330,95.712904,153.140646,-9360.722011
2696.972957,38.285162,172.283227,-9418.149754
2696.973585,153.140646,172.283227,-9399.007173
2696.974213,133.998066,153.140646,-9418.149754
2696.974840,133.998066,153.140646,-9418.149754
2696.975468,76.570323,114.855485,-9418.149754
2696.976095,76.570323,153.140646,-9418.149754
2696.976723,76.570323,172.283227,-9418.149754
2696.977351,133.998066,133.998066,-9399.007173
2696.977978,114.855485,133.998066,-9360.722011
2696.978606,38.285162,172.283227,-9418.149754
2696.979233,95.712904,133.998066,-9360.722011
2696.979861,38.285162,229.710970,-9418.149754
2696.980489,38.285162,172.283227,-9418.149754
2696.981116,95.712904,133.998066,-9360.722011
2696.981744,38.285162,172.283227,-9418.149754
2696.982372,76.570323,114.855485,-9418.149754
2696.982999,133.998066,172.283227,-9418.149754
2696.983627,95.712904,133.998066,-9360.722011
2696.984254,95.712904,133.998066,-9360.722011
2696.984882,95.712904,95.712904,-9399.007173
2696.985510,95.712904,95.712904,-9399.007173
2696.986137,76.570323,114.855485,-9418.149754
2696.986765,76.570323,114.855485,-9418.149754
2696.987393,76.570323,114.855485,-9418.149754
2696.988020,133.998066,172.283227,-9418.149754
2696.988648,57.427742,114.855485,-9418.149754
2696.989275,76.570323,114.855485,-9418.149754
2696.989903,95.712904,114.855485,-9418.149754
2696.990531,153.140646,133.998066,-9399.007173
2696.991158,172.283227,114.855485,-9379.864592
2696.991786,153.140646,133.998066,-9399.007173
2696.992413,133.998066,114.855485,-9418.149754
2696.993041,76.570323,172.283227,-9418.149754
2696.993669,76.570323,172.283227,-9418.149754
2696.994296,95.712904,133.998066,-9360.722011
2696.994924,76.570323,114.855485,-9418.149754
2696.995552,153.140646,153.140646,-9399.007173
2696.996179,38.285162,114.855485,-9418.149754
2696.996807,76.570323,76.570323,-9379.864592
2696.997434,76.570323,114.855485,-9456.434915
2696.998062,76.570323,114.855485,-9418.149754
2696.998690,76.570323,114.855485,-9418.149754
2696.999317,38.285162,114.855485,-9418.149754
2696.999945,38.285162,172.283227,-9418.149754
2697.000572,38.285162,114.855485,-9418.149754
2697.001200,114.855485,95.712904,-9399.007173
2697.001828,95.712904,248.853550,-9360.722011
2697.002455,57.427742,153.140646,-9418.149754
2697.003083,38.285162,76.570323,-9379.864592
2697.003711,95.712904,114.855485,-9418.149754
2697.004338,95.712904,153.140646,-9360.722011
2697.004966,133.998066,172.283227,-9418.149754
2697.005593,95.712904,153.140646,-9360.722011
2697.006221,76.570323,153.140646,-9360.722011
2697.006849,76.570323,210.568389,-9418.149754
2697.007476,38.285162,210.568389,-9360.722011
2697.008104,57.427742,172.283227,-9360.722011
2697.008732,38.285162,153.140646,-9418.149754
2697.009359,133.998066,114.855485,-9418.149754
2697.009987,172.283227,114.855485,-9379.864592
2697.010614,114.855485,172.283227,-9379.864592
2697.011242,76.570323,114.855485,-9418.149754
2697.011870,38.285162,172.283227,-9456.434915
2697.012497,133.998066,210.568389,-9341.579430
2697.013125,133.998066,210.568389,-9418.149754
2697.013752,76.570323,114.855485,-9418.149754
2697.014380,133.998066,191.425808,-9418.149754
2697.015008,38.285162,114.855485,-9418.149754
2697.015635,38.285162,153.140646,-9418.149754
2697.016263,57.427742,172.283227,-9360.722011
2697.016891,76.570323,133.998066,-9360.722011
2697.017518,76.570323,114.855485,-9418.149754
2697.018146,95.712904,153.140646,-9360.722011
2697.018773,38.285162,76.570323,-9379.864592
2697.019401,133.998066,114.855485,-9437.292334
2697.020029,153.140646,133.998066,-9399.007173
2697.020656,153.140646,95.712904,-9341.579430
2697.021284,95.712904,133.998066,-9360.722011
2697.021912,38.285162,114.855485,-9437.292334
2697.022539,38.285162,114.855485,-9418.149754
2697.023167,114.855485,95.712904,-9399.007173
2697.023794,95.712904,114.855485,-9437.292334
2697.024422,133.998066,114.855485,-9418.149754
2697.025050,76.570323,153.140646,-9418.149754
2697.025677,133.998066,114.855485,-9418.149754
2697.026305,57.427742,133.998066,-9360.722011
2697.026932,114.855485,133.998066,-9360.722011
2697.027560,133.998066,114.855485,-9418.149754
2697.028188,76.570323,114.855485,-9418.149754
2697.028815,133.998066,172.283227,-9456.434915
2697.029443,38.285162,172.283227,-9418.149754
2697.030071,133.998066,153.140646,-9418.149754
2697.030698,191.425808,114.855485,-9379.864592
2697.031326,133.998066,172.283227,-9418.149754
2697.031953,133.998066,172.283227,-9418.149754
2697.032581,133.998066,153.140646,-9418.149754
2697.033209,133.998066,114.855485,-9418.149754
2697.033836,133.998066,114.855485,-9418.149754
2697.034464,76.570323,153.140646,-9418.149754
2697.035091,114.855485,133.998066,-9360.722011
2697.035719,95.712904,191.425808,-9360.722011
2697.036347,76.570323,210.568389,-9418.149754
2697.036974,76.570323,172.283227,-9360.722011
2697.037602,114.855485,133.998066,-9322.436850
2697.038230,114.855485,133.998066,-9360.722011
2697.038857,76.570323,172.283227,-9456.434915
2697.039485,76.570323,114.855485,-9418.149754
2697.040112,76.570323,153.140646,-9360.722011
2697.040740,38.285162,114.855485,-9456.434915
2697.041368,38.285162,153.140646,-9418.149754
2697.041995,95.712904,172.283227,-9360.722011
2697.042623,57.427742,153.140646,-9360.722011
2697.043251,114.855485,95.712904,-9399.007173
2697.043878,133.998066,153.140646,-9418.149754
2697.044506,76.570323,210.568389,-9418.149754
2697.045133,133.998066,153.140646,-9399.007173
2697.045761,95.712904,172.283227,-9360.722011
2697.046389,153.140646,133.998066,-9399.007173
2697.047016,76.570323,114.855485,-9418.149754
2697.047644,95.712904,95.712904,-9399.007173
2697.048271,57.427742,133.998066,-9360.722011
2697.048899,76.570323,114.855485,-9418.149754
2697.049527,95.712904,95.712904,-9399.007173
2697.050154,76.570323,191.425808,-9418.149754
2697.050782,95.712904,114.855485,-9437.292334
2697.051410,38.285162,114.855485,-9418.149754
2697.052037,133.998066,153.140646,-9418.149754
2697.052665,153.140646,133.998066,-9399.007173
2697.053292,114.855485,95.712904,-9399.007173
2697.053920,76.570323,114.855485,-9418.149754
2697.054547,95.712904,114.855485,-9418.149754
2697.055175,133.998066,114.855485,-9456.434915
2697.055802,38.285162,114.855485,-9456.434915
2697.056430,133.998066,133.998066,-9399.007173
2697.057057,38.285162,76.570323,-9379.864592
2697.057685,133.998066,191.425808,-9418.149754
2697.058312,133.998066,210.568389,-9418.149754
2697.058940,95.712904,133.998066,-9341.579430
2697.059567,38.285162,114.855485,-9418.149754
2697.060195,95.712904,153.140646,-9360.722011
2697.060822,114.855485,210.568389,-9418.149754
2697.061450,133.998066,114.855485,-9418.149754
2697.062077,95.712904,153.140646,-9418.149754
2697.062705,76.570323,114.855485,-9418.149754
2697.063332,133.998066,191.425808,-9418.149754
2697.063960,95.712904,172.283227,-9360.722011
2697.064587,133.998066,153.140646,-9399.007173
2697.065215,95.712904,95.712904,-9399.007173
2697.065842,133.998066,133.998066,-9399.007173
2697.066470,76.570323,114.855485,-9418.149754
2697.067097,38.285162,114.855485,-9437.292334
2697.067725,76.570323,210.568389,-9418.149754
2697.068352,153.140646,133.998066,-9399.007173
2697.068980,76.570323,114.855485,-9437.292334
2697.069607,76.570323,210.568389,-9418.149754
2697.070235,38.285162,172.283227,-9418.149754
2697.070862,95.712904,153.140646,-9456.434915
2697.071490,76.570323,133.998066,-9379.864592
2697.072117,153.140646,172.283227,-9399.007173
2697.072745,172.283227,76.570323,-9418.149754
2697.073372,153.140646,133.998066,-9399.007173
2697.074000,95.712904,95.712904,-9399.007173
2697.074627,76.570323,114.855485,-9418.149754
2697.075255,76.570323,114.855485,-9418.149754
2697.075882,95.712904,172.283227,-9360.722011
2697.076510,76.570323,153.140646,-9418.149754
2697.077137,76.570323,114.855485,-9418.149754
2697.077765,95.712904,153.140646,-9418.149754
2697.078392,133.998066,153.140646,-9399.007173
2697.079020,76.570323,114.855485,-9475.577496
2697.079647,133.998066,114.855485,-9418.149754
2697.080275,114.855485,172.283227,-9379.864592
2697.080902,95.712904,172.283227,-9322.436850
2697.081530,76.570323,114.855485,-9418.149754
2697.082157,114.855485,114.855485,-9399.007173
2697.082785,153.140646,153.140646,-9399.007173
2697.083412,133.998066,114.855485,-9418.149754
2697.084040,76.570323,114.855485,-9418.149754
2697.084667,76.570323,114.855485,-9456.434915
2697.085295,133.998066,210.568389,-9360.722011
2697.085922,76.570323,172.283227,-9418.149754
2697.086550,76.570323,76.570323,-9379.864592
2697.087177,38.285162,114.855485,-9418.149754
2697.087805,76.570323,114.855485,-9456.434915
2697.088432,133.998066,133.998066,-9399.007173
2697.089060,133.998066,76.570323,-9322.436850
2697.089687,38.285162,114.855485,-9418.149754
2697.090315,38.285162,114.855485,-9360.722011
2697.090942,38.285162,172.283227,-9360.722011
2697.091570,38.285162,114.855485,-9418.149754
2697.092197,38.285162,114.855485,-9418.149754
2697.092825,76.570323,114.855485,-9437.292334
2697.093452,95.712904,172.283227,-9418.149754
2697.094080,76.570323,172.283227,-9418.149754
2697.094707,76.570323,114.855485,-9418.149754
2697.095335,76.570323,114.855485,-9418.149754
2697.095962,133.998066,114.855485,-9418.149754
2697.096590,57.427742,133.998066,-9418.149754
2697.097217,133.998066,172.283227,-9418.149754
2697.097845,133.998066,114.855485,-9418.149754
2697.098472,95.712904,133.998066,-9418.149754
2697.099100,133.998066,153.140646,-9437.292334
2697.099727,76.570323,114.855485,-9456.434915
2697.100355,57.427742,95.712904,-9399.007173
2697.100982,153.140646,172.283227,-9399.007173
2697.101610,114.855485,153.140646,-9360.722011
2697.102237,133.998066,114.855485,-9456.434915
2697.102865,133.998066,114.855485,-9418.149754
2697.103492,114.855485,172.283227,-9360.722011
2697.104120,172.283227,114.855485,-9379.864592
2697.104747,133.998066,114.855485,-9418.149754
2697.105375,76.570323,114.855485,-9418.149754
2697.106002,57.427742,172.283227,-9360.722011
2697.106630,38.285162,229.710970,-9418.149754
2697.107257,76.570323,153.140646,-9418.149754
2697.107885,76.570323,114.855485,-9418.149754
2697.108512,114.855485,172.283227,-9360.722011
2697.109140,38.285162,153.140646,-9418.149754
2697.109767,95.712904,172.283227,-9418.149754
2697.110395,19.142581,114.855485,-9418.149754
2697.111022,38.285162,153.140646,-9418.149754
2697.111650,95.712904,114.855485,-9360.722011
2697.112277,133.998066,114.855485,-9437.292334
2697.112905,76.570323,95.712904,-9399.007173
2697.113532,210.568389,172.283227,-9399.007173
2697.114160,133.998066,114.855485,-9418.149754
2697.114787,172.283227,76.570323,-9418.149754
2697.115415,76.570323,114.855485,-9418.149754
2697.116042,95.712904,153.140646,-9360.722011
2697.116670,133.998066,114.855485,-9418.149754
2697.117297,76.570323,114.855485,-9418.149754
2697.117925,95.712904,133.998066,-9418.149754
2697.118552,153.140646,133.998066,-9399.007173
2697.119180,76.570323,114.855485,-9456.434915
2697.119807,76.570323,229.710970,-9437.292334
2697.120435,76.570323,172.283227,-9418.149754
2697.121062,57.427742,172.283227,-9360.722011
2697.121690,76.570323,172.283227,-9418.149754
2697.122317,133.998066,114.855485,-9418.149754
2697.122945,95.712904,114.855485,-9418.149754
2697.123572,76.570323,114.855485,-9418.149754
2697.124200,76.570323,114.855485,-9418.149754
2697.124827,76.570323,133.998066,-9360.722011
2697.125455,38.285162,114.855485,-9418.149754
2697.126082,95.712904,133.998066,-9360.722011
2697.126710,76.570323,76.570323,-9379.864592
2697.127337,57.427742,153.140646,-9341.579430
2697.127965,95.712904,114.855485,-9418.149754
2697.128592,76.570323,229.710970,-9456.434915
2697.129220,38.285162,114.855485,-9418.149754
2697.129847,38.285162,114.855485,-9418.149754
2697.130475,38.285162,114.855485,-9418.149754
2697.131102,133.998066,114.855485,-9418.149754
2697.131730,114.855485,95.712904,-9399.007173
2697.132357,76.570323,114.855485,-9418.149754
2697.132985,76.570323,153.140646,-9360.722011
2697.133612,95.712904,153.140646,-9360.722011
2697.134240,133.998066,172.283227,-9437.292334
2697.134867,76.570323,153.140646,-9437.292334
2697.135495,76.570323,114.855485,-9418.149754
2697.136122,76.570323,114.855485,-9494.720077
2697.136750,95.712904,114.855485,-9418.149754
2697.137377,133.998066,114.855485,-9418.149754
2697.138005,76.570323,114.855485,-9418.149754
2697.138632,76.570323,114.855485,-9418.149754
2697.139260,76.570323,210.568389,-9418.149754
2697.139887,57.427742,191.425808,-9360.722011
2697.140515,114.855485,153.140646,-9360.722011
2697.141142,76.570323,153.140646,-9418.149754
2697.141770,76.570323,153.140646,-9360.722011
2697.142397,76.570323,114.855485,-9418.149754
2697.143025,76.570323,114.855485,-9418.149754
2697.143652,153.140646,133.998066,-9399.007173
2697.144280,153.140646,114.855485,-9418.149754
2697.144907,76.570323,153.140646,-9418.149754
2697.145535,76.570323,114.855485,-9418.149754
2697.146162,38.285162,153.140646,-9360.722011
2697.146790,95.712904,133.998066,-9360.722011
2697.147417,114.855485,153.140646,-9360.722011
2697.148045,38.285162,114.855485,-9360.722011
2697.148672,133.998066,210.568389,-9360.722011
2697.149300,76.570323,210.568389,-9418.149754
2697.149927,76.570323,114.855485,-9418.149754
2697.150555,95.712904,95.712904,-9399.007173
2697.151182,76.570323,76.570323,-9322.436850
2697.151810,95.712904,133.998066,-9360.722011
2697.152437,133.998066,114.855485,-9418.149754
2697.153065,133.998066,172.283227,-9456.434915
2697.153692,95.712904,95.712904,-9399.007173
2697.154320,133.998066,114.855485,-9418.149754
2697.154947,95.712904,133.998066,-9360.722011
2697.155575,38.285162,153.140646,-9418.149754
2697.156202,76.570323,172.283227,-9418.149754
2697.156830,95.712904,191.425808,-9360.722011
2697.157457,76.570323,114.855485,-9418.149754
2697.158085,38.285162,76.570323,-9379.864592
2697.158712,133.998066,114.855485,-9456.434915
2697.159340,76.570323,172.283227,-9418.149754
2697.159967,133.998066,267.996131,-9379.864592
2697.160595,95.712904,153.140646,-9456.434915
2697.161223,38.285162,172.283227,-9437.292334
2697.161850,95.712904,133.998066,-9360.722011
2697.162478,76.570323,114.855485,-9418.149754
2697.163105,133.998066,210.568389,-9437.292334
2697.163733,38.285162,114.855485,-9437.292334
2697.164360,133.998066,114.855485,-9437.292334
2697.164988,114.855485,133.998066,-9360.722011
2697.165615,76.570323,172.283227,-9418.149754
2697.166243,76.570323,210.568389,-9418.149754
2697.166870,95.712904,114.855485,-9418.149754
2697.167498,76.570323,114.855485,-9418.149754
2697.168125,172.283227,76.570323,-9418.149754
2697.168753,133.998066,114.855485,-9418.149754
2697.169380,95.712904,114.855485,-9418.149754
2697.170008,114.855485,114.855485,-9379.864592
2697.170635,76.570323,210.568389,-9418.149754
2697.171263,95.712904,114.855485,-9418.149754
2697.171891,76.570323,210.568389,-9418.149754
2697.172518,153.140646,133.998066,-9399.007173
2697.173146,76.570323,114.855485,-9418.149754
2697.173773,133.998066,114.855485,-9418.149754
2697.174401,95.712904,153.140646,-9360.722011
2697.175028,133.998066,114.855485,-9418.149754
2697.175656,133.998066,172.283227,-9456.434915
2697.176283,133.998066,133.998066,-9399.007173
2697.176911,95.712904,114.855485,-9418.149754
2697.177538,133.998066,153.140646,-9418.149754
2697.178166,114.855485,153.140646,-9360.722011
2697.178793,95.712904,95.712904,-9399.007173
2697.179421,153.140646,133.998066,-9399.007173
2697.180048,76.570323,172.283227,-9418.149754
2697.180676,133.998066,153.140646,-9418.149754
2697.181303,133.998066,114.855485,-9418.149754
2697.181931,133.998066,153.140646,-9418.149754
2697.182559,114.855485,95.712904,-9399.007173
2697.183186,153.140646,133.998066,-9399.007173
2697.183814,133.998066,114.855485,-9418.149754
2697.184441,133.998066,133.998066,-9399.007173
2697.185069,76.570323,114.855485,-9418.149754
2697.185696,153.140646,114.855485,-9418.149754
2697.186324,76.570323,114.855485,-9418.149754
2697.186951,133.998066,114.855485,-9360.722011
2697.187579,95.712904,172.283227,-9360.722011
2697.188206,76.570323,153.140646,-9418.149754
2697.188834,95.712904,114.855485,-9418.149754
2697.189461,133.998066,133.998066,-9399.007173
2697.190089,133.998066,172.283227,-9418.149754
2697.190716,76.570323,172.283227,-9418.149754
2697.191344,133.998066,114.855485,-9418.149754
2697.191972,76.570323,114.855485,-9437.292334
2697.192599,133.998066,153.140646,-9418.149754
2697.193227,76.570323,114.855485,-9418.149754
2697.193854,57.427742,133.998066,-9360.722011
2697.194482,76.570323,114.855485,-9418.149754
2697.195109,76.570323,172.283227,-9456.434915
2697.195737,19.142581,153.140646,-9418.149754
2697.196364,76.570323,114.855485,-9418.149754
2697.196992,76.570323,114.855485,-9437.292334
2697.197619,114.855485,114.855485,-9379.864592
2697.198247,114.855485,114.855485,-9322.436850
2697.198874,38.285162,114.855485,-9418.149754
2697.199502,133.998066,114.855485,-9418.149754
2697.200129,114.855485,95.712904,-9399.007173
2697.200757,133.998066,133.998066,-9399.007173
2697.201384,38.285162,114.855485,-9418.149754
2697.202012,133.998066,210.568389,-9418.149754
2697.202640,76.570323,172.283227,-9456.434915
2697.203267,38.285162,114.855485,-9418.149754
2697.203895,133.998066,153.140646,-9418.149754
2697.204522,133.998066,114.855485,-9418.149754
2697.205150,38.285162,114.855485,-9418.149754
2697.205777,76.570323,210.568389,-9418.149754
2697.206405,38.285162,153.140646,-9418.149754
2697.207032,57.427742,114.855485,-9418.149754
2697.207660,133.998066,114.855485,-9418.149754
2697.208287,38.285162,153.140646,-9418.149754
2697.208915,38.285162,114.855485,-9418.149754
2697.209542,114.855485,133.998066,-9360.722011
2697.210170,133.998066,133.998066,-9399.007173
2697.210797,76.570323,114.855485,-9437.292334
2697.211425,133.998066,114.855485,-9437.292334
2697.212053,114.855485,57.427742,-9399.007173
2697.212680,114.855485,114.855485,-9379.864592
2697.213308,114.855485,153.140646,-9360.722011
2697.213935,38.285162,153.140646,-9418.149754
2697.214563,114.855485,114.855485,-9418.149754
2697.215190,133.998066,172.283227,-9418.149754
2697.215818,95.712904,95.712904,-9399.007173
