#time,accel_x,accel_y,accel_z
2772.073779,57.427742,153.140646,-9360.722011
2772.074406,38.285162,153.140646,-9418.149754
2772.075033,133.998066,114.855485,-9437.292334
2772.075659,76.570323,114.855485,-9437.292334
2772.076286,76.570323,210.568389,-9418.149754
2772.076913,114.855485,153.140646,-9341.579430
2772.077540,76.570323,114.855485,-9418.149754
2772.078166,153.140646,172.283227,-9399.007173
2772.078793,133.998066,114.855485,-9456.434915
2772.079420,172.283227,114.855485,-9379.864592
2772.080047,153.140646,133.998066,-9456.434915
2772.080673,57.427742,95.712904,-9399.007173
2772.081300,76.570323,114.855485,-9418.149754
2772.081927,76.570323,133.998066,-9379.864592
2772.082554,0.000000,95.712904,-9322.436850
2772.083180,76.570323,133.998066,-9322.436850
2772.083807,95.712904,114.855485,-9418.149754
2772.084434,95.712904,133.998066,-9360.722011
2772.085061,76.570323,114.855485,-9418.149754
2772.085687,76.570323,172.283227,-9456.434915
2772.086314,95.712904,133.998066,-9360.722011
2772.086941,133.998066,114.855485,-9418.149754
2772.087568,133.998066,114.855485,-9418.149754
2772.088194,114.855485,172.283227,-9379.864592
2772.088821,114.855485,133.998066,-9341.579430
2772.089448,76.570323,210.568389,-9418.149754
2772.090075,95.712904,114.855485,-9418.149754
2772.090701,133.998066,210.568389,-9418.149754
2772.091328,76.570323,114.855485,-9418.149754
2772.091955,95.712904,133.998066,-9360.722011
2772.092581,76.570323,76.570323,-9379.864592
2772.093208,76.570323,114.855485,-9418.149754
2772.093835,76.570323,114.855485,-9418.149754
2772.094462,95.712904,133.998066,-9360.722011
2772.095088,76.570323,114.855485,-9418.149754
2772.095715,133.998066,114.855485,-9418.149754
2772.096342,76.570323,210.568389,-9418.149754
2772.096969,57.427742,133.998066,-9360.722011
2772.097595,133.998066,153.140646,-9418.149754
2772.098222,95.712904,133.998066,-9360.722011
2772.098849,114.855485,95.712904,-9399.007173
2772.099476,76.570323,114.855485,-9418.149754
2772.100102,57.427742,172.283227,-9418.149754
2772.100729,153.140646,153.140646,-9399.007173
2772.101356,133.998066,172.283227,-9360.722011
2772.101983,76.570323,172.283227,-9360.722011
2772.102609,95.712904,133.998066,-9360.722011
2772.103236,76.570323,114.855485,-9360.722011
2772.103863,76.570323,114.855485,-9418.149754
2772.104490,133.998066,114.855485,-9418.149754
2772.105116,76.570323,114.855485,-9418.149754
2772.105743,76.570323,114.855485,-9418.149754
2772.106370,114.855485,95.712904,-9399.007173
2772.106997,172.283227,76.570323,-9418.149754
2772.107623,76.570323,114.855485,-9437.292334
2772.108250,57.427742,133.998066,-9360.722011
2772.108877,133.998066,210.568389,-9418.149754
2772.109504,76.570323,76.570323,-9322.436850
2772.110130,133.998066,114.855485,-9418.149754
2772.110757,76.570323,153.140646,-9418.149754
2772.111384,95.712904,114.855485,-9360.722011
2772.112010,114.855485,133.998066,-9360.722011
2772.112637,133.998066,114.855485,-9418.149754
2772.113264,114.855485,95.712904,-9399.007173
2772.113891,38.285162,114.855485,-9418.149754
2772.114517,76.570323,114.855485,-9418.149754
2772.115144,95.712904,229.710970,-9418.149754
2772.115771,133.998066,153.140646,-9418.149754
2772.116398,153.140646,133.998066,-9399.007173
2772.117024,153.140646,153.140646,-9399.007173
2772.117651,76.570323,210.568389,-9360.722011
2772.118278,57.427742,153.140646,-9360.722011
2772.118905,133.998066,114.855485,-9418.149754
2772.119531,95.712904,153.140646,-9360.722011
2772.120158,76.570323,210.568389,-9418.149754
2772.120785,133.998066,172.283227,-9399.007173
2772.121412,76.570323,114.855485,-9418.149754
2772.122038,95.712904,114.855485,-9456.434915
2772.122665,153.140646,114.855485,-9418.149754
2772.123292,95.712904,133.998066,-9360.722011
2772.123919,133.998066,114.855485,-9418.149754
2772.124545,76.570323,114.855485,-9456.434915
2772.125172,38.285162,114.855485,-9418.149754
2772.125799,76.570323,229.710970,-9418.149754
2772.126426,57.427742,133.998066,-9360.722011
2772.127052,76.570323,210.568389,-9360.722011
2772.127679,133.998066,191.425808,-9418.149754
2772.128306,133.998066,172.283227,-9418.149754
2772.128933,133.998066,172.283227,-9418.149754
2772.129559,76.570323,114.855485,-9456.434915
2772.130186,76.570323,114.855485,-9418.149754
2772.130813,76.570323,191.425808,-9341.579430
2772.131439,133.998066,114.855485,-9360.722011
2772.132066,114.855485,133.998066,-9360.722011
2772.132693,133.998066,114.855485,-9418.149754
2772.133320,133.998066,114.855485,-9475.577496
2772.133947,76.570323,114.855485,-9418.149754
2772.134574,57.427742,95.712904,-9399.007173
2772.135201,153.140646,133.998066,-9437.292334
2772.135828,76.570323,153.140646,-9418.149754
2772.136455,38.285162,114.855485,-9418.149754
2772.137082,95.712904,114.855485,-9399.007173
2772.137709,133.998066,153.140646,-9418.149754
2772.138336,95.712904,133.998066,-9360.722011
2772.138963,76.570323,210.568389,-9418.149754
2772.139590,114.855485,133.998066,-9360.722011
2772.140217,76.570323,114.855485,-9418.149754
2772.140844,95.712904,153.140646,-9341.579430
2772.141471,76.570323,210.568389,-9418.149754
2772.142098,76.570323,114.855485,-9418.149754
2772.142725,133.998066,153.140646,-9418.149754
2772.143352,172.283227,114.855485,-9379.864592
2772.143979,133.998066,172.283227,-9418.149754
2772.144606,133.998066,114.855485,-9418.149754
2772.145233,57.427742,153.140646,-9360.722011
2772.145860,76.570323,114.855485,-9418.149754
2772.146487,95.712904,153.140646,-9418.149754
2772.147114,76.570323,114.855485,-9418.149754
2772.147741,38.285162,114.855485,-9418.149754
2772.148368,133.998066,114.855485,-9360.722011
2772.148995,114.855485,133.998066,-9360.722011
2772.149622,76.570323,114.855485,-9418.149754
2772.150249,114.855485,153.140646,-9360.722011
2772.150876,114.855485,172.283227,-9379.864592
2772.151503,95.712904,114.855485,-9418.149754
2772.152130,95.712904,114.855485,-9418.149754
2772.152757,133.998066,114.855485,-9437.292334
2772.153384,172.283227,114.855485,-9379.864592
2772.154011,133.998066,153.140646,-9418.149754
2772.154638,153.140646,133.998066,-9399.007173
2772.155265,38.285162,153.140646,-9418.149754
2772.155892,57.427742,133.998066,-9360.722011
2772.156519,95.712904,210.568389,-9418.149754
2772.157145,133.998066,114.855485,-9418.149754
2772.157772,76.570323,114.855485,-9418.149754
2772.158399,38.285162,114.855485,-9456.434915
2772.159026,76.570323,114.855485,-9418.149754
2772.159653,133.998066,114.855485,-9418.149754
2772.160280,76.570323,114.855485,-9418.149754
2772.160907,76.570323,172.283227,-9418.149754
2772.161534,133.998066,153.140646,-9418.149754
2772.162161,172.283227,133.998066,-9360.722011
2772.162788,133.998066,133.998066,-9399.007173
2772.163415,133.998066,114.855485,-9437.292334
2772.164042,76.570323,210.568389,-9418.149754
2772.164669,172.283227,76.570323,-9418.149754
2772.165296,38.285162,114.855485,-9418.149754
2772.165923,95.712904,133.998066,-9360.722011
2772.166550,172.283227,153.140646,-9379.864592
2772.167177,95.712904,133.998066,-9360.722011
2772.167804,76.570323,172.283227,-9360.722011
2772.168431,76.570323,114.855485,-9418.149754
2772.169058,133.998066,114.855485,-9456.434915
2772.169685,172.283227,153.140646,-9379.864592
2772.170312,153.140646,153.140646,-9379.864592
2772.170939,95.712904,191.425808,-9360.722011
2772.171566,114.855485,153.140646,-9379.864592
2772.172193,38.285162,153.140646,-9418.149754
2772.172820,76.570323,114.855485,-9418.149754
2772.173447,95.712904,153.140646,-9360.722011
2772.174074,95.712904,191.425808,-9360.722011
2772.174701,38.285162,210.568389,-9418.149754
2772.175328,95.712904,191.425808,-9360.722011
2772.175955,153.140646,210.568389,-9379.864592
2772.176582,172.283227,210.568389,-9360.722011
2772.177209,95.712904,114.855485,-9360.722011
2772.177836,153.140646,133.998066,-9399.007173
2772.178463,76.570323,114.855485,-9418.149754
2772.179090,133.998066,191.425808,-9418.149754
2772.179717,76.570323,172.283227,-9418.149754
2772.180344,114.855485,114.855485,-9379.864592
2772.180971,57.427742,133.998066,-9418.149754
2772.181598,114.855485,210.568389,-9456.434915
2772.182225,95.712904,153.140646,-9494.720077
2772.182851,133.998066,153.140646,-9418.149754
2772.183478,76.570323,172.283227,-9418.149754
2772.184105,95.712904,114.855485,-9418.149754
2772.184732,76.570323,153.140646,-9418.149754
2772.185359,133.998066,210.568389,-9418.149754
2772.185986,95.712904,172.283227,-9360.722011
2772.186613,19.142581,210.568389,-9418.149754
2772.187240,76.570323,114.855485,-9418.149754
2772.187867,38.285162,114.855485,-9418.149754
2772.188494,133.998066,114.855485,-9418.149754
2772.189121,57.427742,114.855485,-9418.149754
2772.189748,95.712904,95.712904,-9399.007173
2772.190375,133.998066,114.855485,-9418.149754
2772.191002,133.998066,114.855485,-9456.434915
2772.191629,76.570323,172.283227,-9418.149754
2772.192256,172.283227,114.855485,-9379.864592
2772.192883,114.855485,153.140646,-9341.579430
2772.193510,153.140646,133.998066,-9399.007173
2772.194137,133.998066,210.568389,-9418.149754
2772.194764,133.998066,210.568389,-9418.149754
2772.195391,133.998066,172.283227,-9418.149754
2772.196018,95.712904,114.855485,-9418.149754
2772.196645,114.855485,133.998066,-9360.722011
2772.197272,38.285162,114.855485,-9418.149754
2772.197899,95.712904,95.712904,-9399.007173
2772.198526,95.712904,133.998066,-9360.722011
2772.199153,133.998066,114.855485,-9418.149754
2772.199780,76.570323,210.568389,-9418.149754
2772.200407,114.855485,133.998066,-9360.722011
2772.201034,95.712904,133.998066,-9360.722011
2772.201661,95.712904,133.998066,-9360.722011
2772.202288,133.998066,172.283227,-9437.292334
2772.202915,133.998066,133.998066,-9456.434915
2772.203542,133.998066,114.855485,-9418.149754
2772.204169,114.855485,153.140646,-9379.864592
2772.204796,76.570323,114.855485,-9418.149754
2772.205423,133.998066,114.855485,-9418.149754
2772.206050,114.855485,210.568389,-9379.864592
2772.206677,153.140646,191.425808,-9399.007173
2772.207304,19.142581,114.855485,-9360.722011
2772.207931,95.712904,172.283227,-9360.722011
2772.208557,133.998066,172.283227,-9399.007173
2772.209184,38.285162,153.140646,-9418.149754
2772.209811,133.998066,114.855485,-9418.149754
2772.210438,95.712904,95.712904,-9399.007173
2772.211065,76.570323,153.140646,-9341.579430
2772.211692,76.570323,210.568389,-9437.292334
2772.212319,95.712904,153.140646,-9360.722011
2772.212946,133.998066,133.998066,-9399.007173
2772.213573,76.570323,229.710970,-9418.149754
2772.214200,133.998066,114.855485,-9360.722011
2772.214827,114.855485,133.998066,-9360.722011
2772.215454,133.998066,114.855485,-9437.292334
2772.216081,38.285162,114.855485,-9456.434915
2772.216708,114.855485,133.998066,-9360.722011
2772.217335,76.570323,172.283227,-9360.722011
2772.217962,95.712904,133.998066,-9360.722011
2772.218589,172.283227,133.998066,-9360.722011
2772.219216,133.998066,133.998066,-9399.007173
2772.219843,114.855485,153.140646,-9360.722011
2772.220470,95.712904,133.998066,-9360.722011
2772.221097,133.998066,114.855485,-9418.149754
2772.221724,76.570323,172.283227,-9418.149754
2772.222351,153.140646,133.998066,-9399.007173
2772.222978,76.570323,153.140646,-9418.149754
2772.223605,76.570323,114.855485,-9418.149754
2772.224232,95.712904,172.283227,-9360.722011
2772.224859,76.570323,114.855485,-9418.149754
2772.225486,19.142581,114.855485,-9418.149754
2772.226113,95.712904,114.855485,-9418.149754
2772.226740,57.427742,95.712904,-9494.720077
2772.227367,38.285162,114.855485,-9437.292334
2772.227994,76.570323,114.855485,-9418.149754
2772.228621,153.140646,153.140646,-9456.434915
2772.229248,95.712904,248.853550,-9360.722011
2772.229875,114.855485,172.283227,-9360.722011
2772.230502,133.998066,114.855485,-9418.149754
2772.231129,76.570323,191.425808,-9418.149754
2772.231756,38.285162,114.855485,-9418.149754
2772.232383,76.570323,133.998066,-9360.722011
2772.233010,133.998066,191.425808,-9399.007173
2772.233636,76.570323,114.855485,-9437.292334
2772.234263,95.712904,114.855485,-9418.149754
2772.234890,76.570323,114.855485,-9418.149754
2772.235517,76.570323,114.855485,-9418.149754
2772.236144,76.570323,114.855485,-9418.149754
2772.236771,38.285162,114.855485,-9418.149754
2772.237399,76.570323,210.568389,-9418.149754
2772.238027,133.998066,114.855485,-9456.434915
2772.238655,76.570323,153.140646,-9418.149754
2772.239283,133.998066,114.855485,-9418.149754
2772.239910,172.283227,114.855485,-9379.864592
2772.240538,153.140646,172.283227,-9399.007173
2772.241166,172.283227,76.570323,-9418.149754
2772.241794,114.855485,76.570323,-9418.149754
2772.242422,133.998066,133.998066,-9399.007173
2772.243050,133.998066,114.855485,-9418.149754
2772.243677,133.998066,114.855485,-9437.292334
2772.244305,76.570323,114.855485,-9418.149754
2772.244933,172.283227,114.855485,-9379.864592
2772.245561,114.855485,76.570323,-9418.149754
2772.246189,76.570323,114.855485,-9418.149754
2772.246816,95.712904,114.855485,-9418.149754
2772.247444,76.570323,153.140646,-9418.149754
2772.248072,95.712904,210.568389,-9341.579430
2772.248700,133.998066,114.855485,-9360.722011
2772.249328,114.855485,172.283227,-9360.722011
2772.249955,76.570323,114.855485,-9418.149754
2772.250583,95.712904,172.283227,-9418.149754
2772.251211,153.140646,133.998066,-9399.007173
2772.251839,153.140646,133.998066,-9399.007173
2772.252467,133.998066,114.855485,-9418.149754
2772.253095,95.712904,133.998066,-9360.722011
2772.253722,76.570323,210.568389,-9418.149754
2772.254350,114.855485,133.998066,-9341.579430
2772.254978,210.568389,133.998066,-9399.007173
2772.255606,95.712904,210.568389,-9418.149754
2772.256234,76.570323,114.855485,-9418.149754
2772.256861,76.570323,114.855485,-9418.149754
2772.257489,76.570323,114.855485,-9418.149754
2772.258117,76.570323,153.140646,-9418.149754
2772.258745,76.570323,153.140646,-9418.149754
2772.259373,114.855485,153.140646,-9360.722011
2772.260001,133.998066,114.855485,-9456.434915
2772.260628,76.570323,114.855485,-9456.434915
2772.261256,95.712904,95.712904,-9437.292334
2772.261884,95.712904,114.855485,-9418.149754
2772.262512,19.142581,210.568389,-9437.292334
2772.263140,133.998066,114.855485,-9418.149754
2772.263767,114.855485,114.855485,-9399.007173
2772.264395,153.140646,210.568389,-9399.007173
2772.265023,76.570323,210.568389,-9418.149754
2772.265651,114.855485,133.998066,-9360.722011
2772.266279,153.140646,133.998066,-9399.007173
2772.266906,76.570323,172.283227,-9418.149754
2772.267534,38.285162,153.140646,-9418.149754
2772.268162,95.712904,133.998066,-9360.722011
2772.268790,76.570323,114.855485,-9418.149754
2772.269418,38.285162,172.283227,-9418.149754
2772.270046,38.285162,114.855485,-9418.149754
2772.270673,95.712904,210.568389,-9360.722011
2772.271301,153.140646,133.998066,-9399.007173
2772.271929,95.712904,114.855485,-9418.149754
2772.272557,38.285162,114.855485,-9418.149754
2772.273185,38.285162,114.855485,-9418.149754
2772.273812,76.570323,153.140646,-9437.292334
2772.274440,133.998066,172.283227,-9399.007173
2772.275068,172.283227,76.570323,-9418.149754
2772.275696,133.998066,114.855485,-9418.149754
2772.276324,38.285162,172.283227,-9418.149754
2772.276952,95.712904,153.140646,-9456.434915
2772.277579,133.998066,114.855485,-9418.149754
2772.278207,133.998066,114.855485,-9418.149754
2772.278835,114.855485,172.283227,-9360.722011
2772.279463,153.140646,133.998066,-9456.434915
2772.280091,133.998066,210.568389,-9418.149754
2772.280718,133.998066,210.568389,-9418.149754
2772.281346,76.570323,172.283227,-9418.149754
2772.281974,38.285162,114.855485,-9418.149754
2772.282602,76.570323,76.570323,-9379.864592
2772.283230,95.712904,95.712904,-9399.007173
2772.283857,38.285162,210.568389,-9418.149754
2772.284485,133.998066,114.855485,-9437.292334
2772.285113,133.998066,133.998066,-9399.007173
2772.285741,38.285162,114.855485,-9418.149754
2772.286369,57.427742,191.425808,-9360.722011
2772.286997,114.855485,133.998066,-9341.579430
2772.287624,38.285162,114.855485,-9418.149754
2772.288252,76.570323,153.140646,-9418.149754
2772.288880,76.570323,172.283227,-9418.149754
2772.289508,76.570323,114.855485,-9418.149754
2772.290136,133.998066,133.998066,-9399.007173
2772.290763,95.712904,114.855485,-9418.149754
2772.291391,153.140646,172.283227,-9399.007173
2772.292019,38.285162,114.855485,-9418.149754
2772.292647,133.998066,172.283227,-9418.149754
2772.293275,133.998066,114.855485,-9418.149754
2772.293903,76.570323,114.855485,-9437.292334
2772.294530,38.285162,114.855485,-9418.149754
2772.295158,133.998066,114.855485,-9418.149754
2772.295786,76.570323,153.140646,-9418.149754
2772.296414,114.855485,133.998066,-9360.722011
2772.297042,133.998066,172.283227,-9418.149754
2772.297669,114.855485,153.140646,-9322.436850
2772.298297,172.283227,114.855485,-9379.864592
2772.298925,133.998066,114.855485,-9418.149754
2772.299553,153.140646,133.998066,-9399.007173
2772.300181,133.998066,172.283227,-9418.149754
2772.300808,114.855485,153.140646,-9379.864592
2772.301436,95.712904,95.712904,-9437.292334
2772.302064,76.570323,153.140646,-9360.722011
2772.302692,133.998066,153.140646,-9418.149754
2772.303320,76.570323,114.855485,-9418.149754
2772.303948,95.712904,95.712904,-9399.007173
2772.304575,153.140646,114.855485,-9360.722011
2772.305203,114.855485,114.855485,-9456.434915
2772.305831,133.998066,114.855485,-9418.149754
2772.306459,57.427742,153.140646,-9360.722011
2772.307087,38.285162,210.568389,-9418.149754
2772.307714,133.998066,229.710970,-9418.149754
2772.308342,38.285162,114.855485,-9418.149754
2772.308970,133.998066,153.140646,-9437.292334
2772.309598,133.998066,114.855485,-9418.149754
2772.310226,133.998066,114.855485,-9437.292334
2772.310854,133.998066,172.283227,-9399.007173
2772.311481,133.998066,114.855485,-9456.434915
2772.312109,76.570323,172.283227,-9418.149754
2772.312737,133.998066,153.140646,-9418.149754
2772.313365,153.140646,133.998066,-9456.434915
2772.313993,76.570323,114.855485,-9418.149754
2772.314620,133.998066,114.855485,-9360.722011
2772.315248,114.855485,95.712904,-9399.007173
2772.315876,38.285162,76.570323,-9379.864592
2772.316504,95.712904,133.998066,-9360.722011
2772.317132,57.427742,210.568389,-9418.149754
2772.317759,133.998066,114.855485,-9418.149754
2772.318387,76.570323,114.855485,-9418.149754
2772.319015,76.570323,153.140646,-9418.149754
2772.319643,133.998066,114.855485,-9437.292334
2772.320271,153.140646,172.283227,-9399.007173
2772.320899,76.570323,114.855485,-9418.149754
2772.321526,76.570323,114.855485,-9456.434915
2772.322154,133.998066,133.998066,-9399.007173
2772.322782,95.712904,95.712904,-9399.007173
2772.323410,133.998066,114.855485,-9418.149754
2772.324038,114.855485,95.712904,-9399.007173
2772.324665,57.427742,153.140646,-9360.722011
2772.325293,76.570323,114.855485,-9418.149754
2772.325921,95.712904,133.998066,-9360.722011
2772.326549,76.570323,153.140646,-9418.149754
2772.327177,76.570323,114.855485,-9418.149754
2772.327805,95.712904,133.998066,-9418.149754
2772.328432,76.570323,153.140646,-9360.722011
2772.329060,95.712904,153.140646,-9418.149754
2772.329688,153.140646,133.998066,-9399.007173
2772.330316,95.712904,133.998066,-9360.722011
2772.330944,38.285162,191.425808,-9418.149754
2772.331571,114.855485,133.998066,-9360.722011
2772.332199,76.570323,114.855485,-9418.149754
2772.332827,76.570323,114.855485,-9418.149754
2772.333455,172.283227,133.998066,-9360.722011
2772.334083,95.712904,191.425808,-9360.722011
2772.334710,153.140646,191.425808,-9399.007173
2772.335338,76.570323,172.283227,-9418.149754
2772.335966,76.570323,153.140646,-9418.149754
2772.336594,76.570323,172.283227,-9456.434915
2772.337222,133.998066,210.568389,-9437.292334
2772.337850,114.855485,95.712904,-9399.007173
2772.338477,133.998066,172.283227,-9418.149754
2772.339105,76.570323,172.283227,-9437.292334
2772.339733,76.570323,114.855485,-9418.149754
2772.340361,38.285162,114.855485,-9418.149754
2772.340989,95.712904,114.855485,-9399.007173
2772.341617,95.712904,172.283227,-9418.149754
2772.342245,95.712904,210.568389,-9418.149754
2772.342873,210.568389,191.425808,-9399.007173
2772.343501,172.283227,114.855485,-9379.864592
2772.344128,114.855485,133.998066,-9360.722011
2772.344756,133.998066,114.855485,-9418.149754
2772.345384,133.998066,114.855485,-9418.149754
2772.346012,76.570323,210.568389,-9437.292334
2772.346640,95.712904,114.855485,-9418.149754
2772.347268,76.570323,114.855485,-9418.149754
2772.347896,114.855485,133.998066,-9360.722011
2772.348524,95.712904,133.998066,-9360.722011
2772.349151,38.285162,114.855485,-9418.149754
2772.349779,57.427742,114.855485,-9418.149754
2772.350407,19.142581,133.998066,-9399.007173
2772.351035,95.712904,133.998066,-9360.722011
2772.351663,76.570323,114.855485,-9418.149754
2772.352291,95.712904,114.855485,-9418.149754
2772.352919,95.712904,153.140646,-9494.720077
2772.353547,76.570323,114.855485,-9418.149754
2772.354174,38.285162,172.283227,-9418.149754
2772.354802,133.998066,114.855485,-9418.149754
2772.355430,133.998066,114.855485,-9418.149754
2772.356058,114.855485,133.998066,-9360.722011
2772.356686,95.712904,153.140646,-9360.722011
2772.357314,38.285162,114.855485,-9360.722011
2772.357942,19.142581,114.855485,-9437.292334
2772.358570,133.998066,210.568389,-9418.149754
2772.359197,133.998066,210.568389,-9399.007173
2772.359825,114.855485,229.710970,-9379.864592
2772.360453,76.570323,153.140646,-9418.149754
2772.361081,76.570323,114.855485,-9418.149754
2772.361709,76.570323,114.855485,-9437.292334
2772.362337,76.570323,210.568389,-9418.149754
2772.362965,133.998066,191.425808,-9418.149754
2772.363593,133.998066,172.283227,-9418.149754
2772.364220,133.998066,114.855485,-9418.149754
2772.364848,114.855485,114.855485,-9379.864592
2772.365476,76.570323,191.425808,-9360.722011
2772.366104,133.998066,172.283227,-9418.149754
2772.366732,57.427742,210.568389,-9456.434915
2772.367360,76.570323,114.855485,-9418.149754
2772.367988,95.712904,133.998066,-9360.722011
2772.368616,133.998066,114.855485,-9418.149754
2772.369243,95.712904,153.140646,-9360.722011
2772.369871,133.998066,114.855485,-9418.149754
2772.370499,153.140646,95.712904,-9418.149754
2772.371127,76.570323,172.283227,-9418.149754
2772.371755,76.570323,114.855485,-9418.149754
2772.372383,76.570323,114.855485,-9418.149754
2772.373011,133.998066,114.855485,-9418.149754
2772.373639,114.855485,95.712904,-9437.292334
2772.374267,133.998066,153.140646,-9418.149754
2772.374894,153.140646,133.998066,-9399.007173
2772.375522,114.855485,133.998066,-9341.579430
2772.376150,114.855485,95.712904,-9399.007173
2772.376778,95.712904,153.140646,-9360.722011
2772.377406,95.712904,153.140646,-9360.722011
2772.378034,95.712904,133.998066,-9360.722011
2772.378662,133.998066,114.855485,-9418.149754
2772.379290,38.285162,114.855485,-9437.292334
2772.379917,133.998066,172.283227,-9418.149754
2772.380545,76.570323,114.855485,-9418.149754
2772.381173,114.855485,95.712904,-9399.007173
2772.381801,114.855485,95.712904,-9456.434915
2772.382429,95.712904,95.712904,-9399.007173
2772.383057,133.998066,114.855485,-9418.149754
2772.383685,172.283227,133.998066,-9360.722011
2772.384313,76.570323,114.855485,-9418.149754
2772.384940,133.998066,229.710970,-9418.149754
2772.385568,153.140646,172.283227,-9379.864592
2772.386196,57.427742,172.283227,-9360.722011
2772.386824,114.855485,172.283227,-9360.722011
2772.387452,114.855485,133.998066,-9360.722011
2772.388080,95.712904,133.998066,-9360.722011
2772.388708,114.855485,153.140646,-9341.579430
2772.389336,76.570323,153.140646,-9418.149754
2772.389963,114.855485,172.283227,-9360.722011
2772.390591,76.570323,210.568389,-9418.149754
2772.391219,133.998066,114.855485,-9418.149754
2772.391847,172.283227,114.855485,-9379.864592
2772.392475,95.712904,172.283227,-9360.722011
2772.393103,76.570323,114.855485,-9475.577496
2772.393731,133.998066,114.855485,-9418.149754
2772.394359,76.570323,114.855485,-9418.149754
2772.394986,57.427742,95.712904,-9399.007173
2772.395614,19.142581,153.140646,-9418.149754
2772.396242,76.570323,114.855485,-9418.149754
2772.396870,133.998066,114.855485,-9418.149754
2772.397498,76.570323,114.855485,-9418.149754
2772.398126,76.570323,114.855485,-9418.149754
2772.398754,95.712904,133.998066,-9341.579430
2772.399382,95.712904,133.998066,-9360.722011
2772.400009,133.998066,114.855485,-9418.149754
2772.400637,133.998066,210.568389,-9399.007173
2772.401265,133.998066,172.283227,-9418.149754
2772.401893,133.998066,191.425808,-9399.007173
2772.402521,76.570323,172.283227,-9418.149754
2772.403149,114.855485,133.998066,-9360.722011
2772.403777,95.712904,114.855485,-9475.577496
2772.404405,133.998066,153.140646,-9418.149754
2772.405032,114.855485,95.712904,-9399.007173
2772.405660,133.998066,114.855485,-9418.149754
2772.406288,95.712904,114.855485,-9418.149754
2772.406916,76.570323,114.855485,-9418.149754
2772.407544,95.712904,114.855485,-9418.149754
2772.408172,95.712904,153.140646,-9360.722011
2772.408800,95.712904,133.998066,-9341.579430
2772.409428,76.570323,210.568389,-9418.149754
2772.410056,76.570323,153.140646,-9418.149754
2772.410683,114.855485,95.712904,-9399.007173
2772.411311,133.998066,133.998066,-9399.007173
2772.411939,133.998066,172.283227,-9418.149754
2772.412567,172.283227,153.140646,-9379.864592
2772.413195,95.712904,153.140646,-9418.149754
2772.413823,38.285162,210.568389,-9418.149754
2772.414451,76.570323,133.998066,-9360.722011
2772.415079,95.712904,133.998066,-9360.722011
2772.415706,133.998066,172.283227,-9418.149754
2772.416334,133.998066,114.855485,-9418.149754
2772.416962,95.712904,95.712904,-9399.007173
2772.417590,76.570323,114.855485,-9418.149754
2772.418218,133.998066,172.283227,-9418.149754
2772.418846,133.998066,153.140646,-9399.007173
2772.419474,76.570323,114.855485,-9418.149754
2772.420102,172.283227,172.283227,-9379.864592
2772.420729,114.855485,114.855485,-9399.007173
2772.421357,114.855485,133.998066,-9360.722011
2772.421985,76.570323,114.855485,-9418.149754
2772.422613,172.283227,76.570323,-9418.149754
2772.423241,133.998066,114.855485,-9418.149754
2772.423869,133.998066,153.140646,-9418.149754
2772.424497,38.285162,172.283227,-9418.149754
2772.425125,133.998066,114.855485,-9418.149754
2772.425752,95.712904,133.998066,-9360.722011
2772.426380,133.998066,133.998066,-9379.864592
2772.427008,133.998066,114.855485,-9418.149754
2772.427636,172.283227,95.712904,-9399.007173
2772.428264,114.855485,95.712904,-9456.434915
2772.428892,114.855485,95.712904,-9437.292334
2772.429520,153.140646,114.855485,-9437.292334
2772.430148,95.712904,95.712904,-9379.864592
2772.430775,76.570323,114.855485,-9418.149754
2772.431403,76.570323,114.855485,-9456.434915
2772.432031,133.998066,114.855485,-9418.149754
2772.432659,76.570323,114.855485,-9418.149754
2772.433286,133.998066,114.855485,-9418.149754
2772.433913,114.855485,95.712904,-9399.007173
2772.434541,172.283227,133.998066,-9360.722011
2772.435168,172.283227,114.855485,-9379.864592
2772.435795,153.140646,153.140646,-9399.007173
2772.436422,95.712904,172.283227,-9360.722011
2772.437049,38.285162,114.855485,-9418.149754
2772.437677,95.712904,133.998066,-9360.722011
2772.438304,133.998066,172.283227,-9437.292334
2772.438931,133.998066,210.568389,-9456.434915
2772.439558,95.712904,114.855485,-9399.007173
2772.440185,133.998066,114.855485,-9418.149754
2772.440812,133.998066,76.570323,-9379.864592
2772.441440,133.998066,114.855485,-9418.149754
2772.442067,133.998066,210.568389,-9418.149754
2772.442694,114.855485,114.855485,-9379.864592
2772.443321,76.570323,114.855485,-9418.149754
2772.443948,57.427742,133.998066,-9360.722011
2772.444575,133.998066,210.568389,-9418.149754
2772.445203,95.712904,114.855485,-9418.149754
2772.445830,133.998066,133.998066,-9456.434915
2772.446457,133.998066,114.855485,-9418.149754
2772.447084,133.998066,114.855485,-9418.149754
2772.447711,95.712904,133.998066,-9360.722011
2772.448339,133.998066,114.855485,-9437.292334
2772.448966,153.140646,133.998066,-9399.007173
2772.449593,95.712904,229.710970,-9418.149754
2772.450220,57.427742,133.998066,-9360.722011
2772.450847,114.855485,153.140646,-9360.722011
2772.451474,133.998066,153.140646,-9418.149754
2772.452102,76.570323,114.855485,-9399.007173
2772.452729,76.570323,114.855485,-9418.149754
2772.453356,133.998066,114.855485,-9418.149754
2772.453983,57.427742,133.998066,-9360.722011
2772.454610,95.712904,133.998066,-9360.722011
2772.455237,114.855485,95.712904,-9399.007173
2772.455865,76.570323,114.855485,-9418.149754
2772.456492,133.998066,114.855485,-9418.149754
2772.457119,133.998066,153.140646,-9418.149754
2772.457746,95.712904,133.998066,-9360.722011
2772.458373,133.998066,133.998066,-9399.007173
2772.459001,76.570323,114.855485,-9418.149754
2772.459628,114.855485,133.998066,-9360.722011
2772.460255,95.712904,172.283227,-9360.722011
2772.460882,95.712904,191.425808,-9341.579430
2772.461509,76.570323,210.568389,-9437.292334
2772.462136,153.140646,153.140646,-9399.007173
2772.462764,95.712904,172.283227,-9418.149754
2772.463391,133.998066,133.998066,-9399.007173
2772.464018,133.998066,153.140646,-9437.292334
2772.464645,95.712904,133.998066,-9360.722011
2772.465272,95.712904,133.998066,-9360.722011
2772.465899,95.712904,133.998066,-9360.722011
2772.466527,38.285162,114.855485,-9418.149754
2772.467154,76.570323,153.140646,-9456.434915
2772.467781,133.998066,114.855485,-9418.149754
2772.468408,133.998066,172.283227,-9418.149754
2772.469035,76.570323,153.140646,-9456.434915
2772.469663,133.998066,114.855485,-9437.292334
2772.470290,38.285162,114.855485,-9418.149754
2772.470917,76.570323,114.855485,-9418.149754
2772.471544,76.570323,114.855485,-9418.149754
2772.472171,38.285162,114.855485,-9456.434915
2772.472798,95.712904,133.998066,-9341.579430
2772.473426,95.712904,114.855485,-9437.292334
2772.474053,133.998066,114.855485,-9418.149754
2772.474680,57.427742,133.998066,-9360.722011
2772.475307,38.285162,114.855485,-9418.149754
2772.475934,114.855485,95.712904,-9456.434915
2772.476561,153.140646,114.855485,-9418.149754
2772.477189,133.998066,114.855485,-9418.149754
2772.477816,76.570323,153.140646,-9418.149754
2772.478443,57.427742,172.283227,-9360.722011
2772.479070,114.855485,133.998066,-9360.722011
2772.479697,133.998066,114.855485,-9418.149754
2772.480325,38.285162,114.855485,-9418.149754
2772.480952,76.570323,191.425808,-9418.149754
2772.481579,95.712904,191.425808,-9341.579430
2772.482206,57.427742,153.140646,-9360.722011
2772.482833,76.570323,114.855485,-9418.149754
2772.483460,38.285162,114.855485,-9418.149754
2772.484088,76.570323,133.998066,-9360.722011
2772.484715,133.998066,76.570323,-9379.864592
2772.485342,114.855485,95.712904,-9399.007173
2772.485969,114.855485,76.570323,-9418.149754
2772.486596,172.283227,133.998066,-9360.722011
2772.487223,133.998066,114.855485,-9418.149754
2772.487851,76.570323,114.855485,-9456.434915
2772.488478,38.285162,114.855485,-9418.149754
2772.489105,133.998066,133.998066,-9399.007173
2772.489732,153.140646,133.998066,-9399.007173
2772.490359,133.998066,133.998066,-9437.292334
2772.490987,76.570323,210.568389,-9456.434915
2772.491614,38.285162,114.855485,-9418.149754
2772.492241,114.855485,133.998066,-9360.722011
2772.492868,172.283227,210.568389,-9379.864592
2772.493495,133.998066,172.283227,-9418.149754
2772.494122,172.283227,133.998066,-9360.722011
2772.494750,133.998066,133.998066,-9399.007173
2772.495377,76.570323,191.425808,-9418.149754
2772.496004,95.712904,133.998066,-9360.722011
2772.496631,153.140646,133.998066,-9399.007173
2772.497258,38.285162,95.712904,-9399.007173
2772.497885,95.712904,114.855485,-9418.149754
2772.498513,114.855485,133.998066,-9360.722011
2772.499140,76.570323,114.855485,-9399.007173
2772.499767,133.998066,172.283227,-9418.149754
2772.500394,133.998066,172.283227,-9418.149754
2772.501021,114.855485,172.283227,-9360.722011
2772.501649,76.570323,133.998066,-9379.864592
2772.502276,38.285162,114.855485,-9418.149754
2772.502903,19.142581,172.283227,-9418.149754
2772.503530,76.570323,76.570323,-9322.436850
2772.504157,76.570323,114.855485,-9418.149754
2772.504784,76.570323,153.140646,-9456.434915
2772.505412,38.285162,114.855485,-9418.149754
2772.506039,172.283227,133.998066,-9360.722011
2772.506666,172.283227,133.998066,-9360.722011
2772.507293,76.570323,76.570323,-9379.864592
2772.507920,133.998066,114.855485,-9437.292334
2772.508547,133.998066,114.855485,-9418.149754
2772.509175,114.855485,114.855485,-9379.864592
2772.509802,133.998066,172.283227,-9418.149754
2772.510429,95.712904,114.855485,-9418.149754
2772.511056,133.998066,172.283227,-9418.149754
2772.511683,133.998066,114.855485,-9399.007173
2772.512311,133.998066,114.855485,-9360.722011
2772.512938,153.140646,133.998066,-9399.007173
2772.513565,76.570323,114.855485,-9418.149754
2772.514192,57.427742,133.998066,-9360.722011
2772.514819,133.998066,114.855485,-9418.149754
2772.515446,95.712904,153.140646,-9360.722011
2772.516074,76.570323,76.570323,-9379.864592
2772.516701,95.712904,153.140646,-9456.434915
2772.517328,95.712904,95.712904,-9456.434915
2772.517955,153.140646,133.998066,-9399.007173
2772.518582,57.427742,191.425808,-9360.722011
2772.519210,38.285162,114.855485,-9418.149754
2772.519837,133.998066,153.140646,-9418.149754
2772.520464,76.570323,114.855485,-9418.149754
2772.521091,76.570323,153.140646,-9418.149754
2772.521718,76.570323,95.712904,-9399.007173
2772.522345,133.998066,114.855485,-9456.434915
2772.522973,76.570323,210.568389,-9437.292334
2772.523600,133.998066,210.568389,-9418.149754
2772.524227,95.712904,133.998066,-9360.722011
2772.524854,133.998066,153.140646,-9437.292334
2772.525481,172.283227,76.570323,-9418.149754
2772.526108,133.998066,114.855485,-9418.149754
2772.526736,133.998066,210.568389,-9456.434915
2772.527363,133.998066,114.855485,-9418.149754
2772.527990,114.855485,191.425808,-9360.722011
2772.528617,114.855485,172.283227,-9360.722011
2772.529244,76.570323,114.855485,-9418.149754
2772.529872,76.570323,114.855485,-9418.149754
2772.530499,76.570323,114.855485,-9418.149754
2772.531126,95.712904,95.712904,-9399.007173
2772.531753,95.712904,133.998066,-9418.149754
2772.532380,133.998066,172.283227,-9494.720077
2772.533007,76.570323,114.855485,-9418.149754
2772.533634,76.570323,114.855485,-9418.149754
2772.534262,76.570323,114.855485,-9418.149754
2772.534889,133.998066,76.570323,-9379.864592
2772.535516,114.855485,133.998066,-9360.722011
2772.536143,133.998066,114.855485,-9418.149754
2772.536770,76.570323,114.855485,-9418.149754
2772.537397,38.285162,114.855485,-9437.292334
2772.538024,38.285162,172.283227,-9418.149754
2772.538651,38.285162,114.855485,-9437.292334
2772.539278,76.570323,114.855485,-9456.434915
2772.539905,38.285162,114.855485,-9437.292334
2772.540533,0.000000,95.712904,-9399.007173
2772.541160,114.855485,153.140646,-9360.722011
2772.541787,76.570323,153.140646,-9360.722011
2772.542414,133.998066,114.855485,-9418.149754
2772.543041,76.570323,76.570323,-9379.864592
2772.543668,133.998066,172.283227,-9360.722011
2772.544295,133.998066,153.140646,-9418.149754
2772.544922,38.285162,172.283227,-9418.149754
2772.545549,57.427742,172.283227,-9437.292334
2772.546176,76.570323,114.855485,-9418.149754
2772.546803,57.427742,172.283227,-9360.722011
2772.547431,114.855485,172.283227,-9418.149754
2772.548058,76.570323,153.140646,-9418.149754
2772.548685,133.998066,114.855485,-9418.149754
2772.549312,38.285162,114.855485,-9418.149754
2772.549939,95.712904,114.855485,-9418.149754
2772.550566,133.998066,172.283227,-9360.722011
2772.551193,133.998066,172.283227,-9418.149754
2772.551820,153.140646,133.998066,-9399.007173
2772.552447,76.570323,114.855485,-9437.292334
2772.553074,76.570323,114.855485,-9418.149754
2772.553702,76.570323,76.570323,-9379.864592
2772.554329,76.570323,114.855485,-9418.149754
2772.554956,76.570323,114.855485,-9418.149754
2772.555583,76.570323,114.855485,-9418.149754
2772.556210,133.998066,114.855485,-9418.149754
2772.556837,95.712904,95.712904,-9399.007173
2772.557464,95.712904,133.998066,-9418.149754
2772.558091,38.285162,114.855485,-9456.434915
2772.558718,95.712904,133.998066,-9360.722011
2772.559345,38.285162,210.568389,-9418.149754
2772.559972,57.427742,133.998066,-9360.722011
2772.560600,38.285162,114.855485,-9418.149754
2772.561227,38.285162,114.855485,-9418.149754
2772.561854,76.570323,114.855485,-9456.434915
2772.562481,153.140646,133.998066,-9399.007173
2772.563108,133.998066,114.855485,-9456.434915
2772.563735,95.712904,172.283227,-9360.722011
2772.564362,114.855485,95.712904,-9399.007173
2772.564989,133.998066,114.855485,-9418.149754
2772.565616,133.998066,114.855485,-9360.722011
2772.566243,95.712904,172.283227,-9360.722011
2772.566870,76.570323,114.855485,-9437.292334
2772.567498,95.712904,172.283227,-9418.149754
2772.568125,114.855485,95.712904,-9399.007173
2772.568752,153.140646,172.283227,-9456.434915
2772.569379,133.998066,114.855485,-9418.149754
2772.570006,114.855485,172.283227,-9360.722011
2772.570633,133.998066,114.855485,-9418.149754
2772.571260,19.142581,114.855485,-9456.434915
2772.571887,38.285162,153.140646,-9437.292334
2772.572514,57.427742,172.283227,-9418.149754
2772.573141,133.998066,114.855485,-9437.292334
2772.573769,133.998066,172.283227,-9437.292334
2772.574396,76.570323,210.568389,-9418.149754
2772.575023,133.998066,114.855485,-9418.149754
2772.575650,133.998066,210.568389,-9418.149754
2772.576277,38.285162,114.855485,-9418.149754
2772.576904,133.998066,191.425808,-9399.007173
2772.577531,38.285162,172.283227,-9418.149754
2772.578158,38.285162,114.855485,-9418.149754
2772.578785,76.570323,114.855485,-9360.722011
2772.579412,133.998066,114.855485,-9418.149754
2772.580039,133.998066,172.283227,-9418.149754
2772.580667,76.570323,114.855485,-9418.149754
2772.581294,38.285162,114.855485,-9418.149754
2772.581921,95.712904,114.855485,-9418.149754
2772.582548,133.998066,114.855485,-9418.149754
2772.583175,95.712904,133.998066,-9360.722011
2772.583802,133.998066,153.140646,-9418.149754
2772.584429,153.140646,114.855485,-9418.149754
2772.585056,133.998066,172.283227,-9418.149754
2772.585683,114.855485,133.998066,-9360.722011
2772.586310,76.570323,114.855485,-9418.149754
2772.586937,76.570323,210.568389,-9418.149754
2772.587565,76.570323,114.855485,-9418.149754
2772.588192,76.570323,114.855485,-9418.149754
2772.588819,38.285162,114.855485,-9418.149754
2772.589446,76.570323,191.425808,-9418.149754
2772.590073,76.570323,114.855485,-9418.149754
2772.590700,95.712904,114.855485,-9360.722011
2772.591327,133.998066,172.283227,-9418.149754
2772.591954,133.998066,114.855485,-9418.149754
2772.592581,133.998066,114.855485,-9360.722011
2772.593208,133.998066,153.140646,-9418.149754
2772.593836,38.285162,114.855485,-9418.149754
2772.594463,38.285162,153.140646,-9418.149754
2772.595090,76.570323,114.855485,-9418.149754
2772.595717,57.427742,95.712904,-9399.007173
2772.596344,114.855485,114.855485,-9399.007173
2772.596971,38.285162,153.140646,-9437.292334
2772.597598,114.855485,153.140646,-9360.722011
2772.598225,76.570323,114.855485,-9418.149754
2772.598852,76.570323,114.855485,-9418.149754
2772.599479,153.140646,172.283227,-9399.007173
2772.600106,172.283227,114.855485,-9379.864592
2772.600734,133.998066,114.855485,-9418.149754
2772.601361,114.855485,172.283227,-9418.149754
2772.601988,76.570323,114.855485,-9418.149754
2772.602615,133.998066,114.855485,-9418.149754
2772.603242,133.998066,114.855485,-9437.292334
2772.603869,57.427742,114.855485,-9437.292334
2772.604496,76.570323,114.855485,-9456.434915
2772.605123,76.570323,114.855485,-9418.149754
2772.605750,76.570323,172.283227,-9418.149754
2772.606377,133.998066,172.283227,-9418.149754
2772.607005,133.998066,153.140646,-9399.007173
2772.607632,133.998066,114.855485,-9437.292334
2772.608259,76.570323,172.283227,-9418.149754
2772.608886,95.712904,153.140646,-9360.722011
2772.609513,38.285162,172.283227,-9418.149754
2772.610140,57.427742,172.283227,-9360.722011
2772.610767,133.998066,114.855485,-9360.722011
2772.611394,114.855485,133.998066,-9360.722011
2772.612021,76.570323,114.855485,-9437.292334
2772.612648,95.712904,172.283227,-9360.722011
2772.613275,133.998066,172.283227,-9456.434915
2772.613903,57.427742,133.998066,-9322.436850
2772.614530,76.570323,172.283227,-9418.149754
2772.615157,0.000000,114.855485,-9322.436850
2772.615784,57.427742,95.712904,-9399.007173
2772.616411,76.570323,76.570323,-9379.864592
2772.617038,114.855485,133.998066,-9341.579430
2772.617665,133.998066,114.855485,-9418.149754
2772.618292,133.998066,114.855485,-9418.149754
2772.618919,133.998066,133.998066,-9399.007173
2772.619546,114.855485,114.855485,-9399.007173
2772.620173,95.712904,114.855485,-9494.720077
2772.620801,76.570323,153.140646,-9437.292334
2772.621428,76.570323,114.855485,-9418.149754
2772.622055,95.712904,172.283227,-9360.722011
2772.622682,76.570323,114.855485,-9418.149754
2772.623309,95.712904,133.998066,-9418.149754
2772.623936,76.570323,114.855485,-9418.149754
2772.624563,95.712904,172.283227,-9360.722011
2772.625190,76.570323,153.140646,-9418.149754
2772.625817,153.140646,133.998066,-9399.007173
2772.626444,76.570323,172.283227,-9456.434915
2772.627072,76.570323,172.283227,-9418.149754
2772.627699,38.285162,114.855485,-9418.149754
2772.628326,133.998066,153.140646,-9399.007173
2772.628953,76.570323,114.855485,-9360.722011
2772.629580,38.285162,153.140646,-9418.149754
2772.630207,76.570323,114.855485,-9418.149754
2772.630834,153.140646,114.855485,-9360.722011
2772.631461,133.998066,76.570323,-9379.864592
2772.632088,133.998066,153.140646,-9399.007173
2772.632715,76.570323,114.855485,-9418.149754
2772.633342,76.570323,114.855485,-9418.149754
2772.633970,95.712904,95.712904,-9399.007173
2772.634597,172.283227,95.712904,-9379.864592
2772.635224,114.855485,95.712904,-9399.007173
2772.635851,76.570323,172.283227,-9456.434915
2772.636478,57.427742,172.283227,-9418.149754
2772.637105,76.570323,172.283227,-9494.720077
2772.637732,114.855485,191.425808,-9341.579430
2772.638359,133.998066,210.568389,-9418.149754
2772.638986,95.712904,153.140646,-9418.149754
2772.639614,133.998066,114.855485,-9418.149754
2772.640241,57.427742,95.712904,-9399.007173
2772.640868,95.712904,114.855485,-9418.149754
2772.641496,76.570323,114.855485,-9418.149754
2772.642123,38.285162,153.140646,-9418.149754
2772.642750,76.570323,114.855485,-9418.149754
2772.643377,114.855485,133.998066,-9360.722011
2772.644005,95.712904,114.855485,-9418.149754
2772.644632,76.570323,153.140646,-9418.149754
2772.645259,153.140646,114.855485,-9418.149754
2772.645886,76.570323,172.283227,-9418.149754
2772.646514,95.712904,133.998066,-9360.722011
2772.647141,133.998066,153.140646,-9418.149754
2772.647768,76.570323,114.855485,-9418.149754
2772.648396,133.998066,114.855485,-9418.149754
2772.649023,133.998066,114.855485,-9418.149754
2772.649650,95.712904,133.998066,-9360.722011
2772.650277,133.998066,172.283227,-9399.007173
2772.650905,133.998066,210.568389,-9418.149754
2772.651532,133.998066,114.855485,-9418.149754
2772.652159,133.998066,172.283227,-9418.149754
2772.652786,95.712904,210.568389,-9418.149754
2772.653414,114.855485,133.998066,-9360.722011
2772.654041,76.570323,114.855485,-9418.149754
2772.654668,133.998066,114.855485,-9418.149754
2772.655296,114.855485,133.998066,-9360.722011
2772.655923,114.855485,95.712904,-9399.007173
2772.656550,38.285162,210.568389,-9418.149754
2772.657177,95.712904,114.855485,-9418.149754
2772.657805,133.998066,114.855485,-9418.149754
2772.658432,95.712904,172.283227,-9418.149754
2772.659059,38.285162,172.283227,-9418.149754
2772.659686,76.570323,114.855485,-9418.149754
2772.660314,95.712904,95.712904,-9399.007173
2772.660941,76.570323,114.855485,-9456.434915
2772.661568,76.570323,172.283227,-9418.149754
2772.662196,153.140646,210.568389,-9399.007173
2772.662823,133.998066,172.283227,-9399.007173
2772.663450,133.998066,114.855485,-9418.149754
2772.664077,76.570323,114.855485,-9418.149754
2772.664705,76.570323,172.283227,-9418.149754
2772.665332,76.570323,210.568389,-9437.292334
2772.665959,95.712904,95.712904,-9494.720077
2772.666586,133.998066,114.855485,-9437.292334
2772.667214,133.998066,153.140646,-9399.007173
2772.667841,76.570323,114.855485,-9360.722011
2772.668468,57.427742,133.998066,-9360.722011
2772.669096,95.712904,114.855485,-9418.149754
2772.669723,114.855485,114.855485,-9418.149754
2772.670350,76.570323,114.855485,-9418.149754
2772.670977,95.712904,114.855485,-9418.149754
2772.671605,133.998066,133.998066,-9399.007173
2772.672232,76.570323,76.570323,-9379.864592
2772.672859,95.712904,153.140646,-9360.722011
2772.673486,133.998066,114.855485,-9418.149754
2772.674114,76.570323,114.855485,-9418.149754
2772.674741,95.712904,210.568389,-9456.434915
2772.675368,19.142581,133.998066,-9399.007173
2772.675996,38.285162,114.855485,-9418.149754
2772.676623,38.285162,114.855485,-9418.149754
2772.677250,133.998066,114.855485,-9418.149754
2772.677877,95.712904,172.283227,-9418.149754
2772.678505,153.140646,114.855485,-9418.149754
2772.679132,153.140646,133.998066,-9399.007173
2772.679759,76.570323,114.855485,-9418.149754
2772.680386,95.712904,133.998066,-9360.722011
2772.681014,76.570323,172.283227,-9475.577496
2772.681641,76.570323,114.855485,-9418.149754
2772.682268,57.427742,114.855485,-9379.864592
2772.682895,95.712904,133.998066,-9360.722011
2772.683523,38.285162,114.855485,-9418.149754
2772.684150,38.285162,114.855485,-9418.149754
2772.684777,133.998066,114.855485,-9418.149754
2772.685405,133.998066,172.283227,-9418.149754
2772.686032,133.998066,114.855485,-9456.434915
2772.686659,76.570323,114.855485,-9418.149754
2772.687286,76.570323,114.855485,-9418.149754
2772.687914,38.285162,95.712904,-9399.007173
2772.688541,133.998066,114.855485,-9360.722011
2772.689168,95.712904,153.140646,-9360.722011
2772.689795,76.570323,172.283227,-9360.722011
2772.690423,153.140646,133.998066,-9456.434915
2772.691050,133.998066,133.998066,-9399.007173
2772.691677,76.570323,153.140646,-9418.149754
2772.692305,38.285162,114.855485,-9360.722011
2772.692932,114.855485,153.140646,-9360.722011
2772.693559,133.998066,114.855485,-9437.292334
2772.694186,95.712904,114.855485,-9418.149754
2772.694814,133.998066,133.998066,-9399.007173
2772.695441,38.285162,114.855485,-9418.149754
2772.696068,76.570323,114.855485,-9418.149754
2772.696695,76.570323,153.140646,-9418.149754
2772.697323,133.998066,172.283227,-9418.149754
2772.697950,114.855485,172.283227,-9379.864592
2772.698577,95.712904,133.998066,-9360.722011
2772.699205,76.570323,172.283227,-9418.149754
2772.699832,95.712904,95.712904,-9437.292334
2772.700459,38.285162,191.425808,-9418.149754
2772.701086,19.142581,114.855485,-9456.434915
2772.701714,76.570323,114.855485,-9360.722011
2772.702341,76.570323,114.855485,-9418.149754
2772.702968,153.140646,172.283227,-9399.007173
2772.703595,133.998066,210.568389,-9418.149754
2772.704223,114.855485,153.140646,-9341.579430
2772.704850,114.855485,133.998066,-9360.722011
2772.705477,133.998066,133.998066,-9399.007173
2772.706105,95.712904,133.998066,-9360.722011
2772.706732,114.855485,95.712904,-9399.007173
2772.707359,133.998066,114.855485,-9418.149754
2772.707986,95.712904,172.283227,-9360.722011
2772.708614,57.427742,153.140646,-9360.722011
2772.709241,133.998066,114.855485,-9418.149754
2772.709868,95.712904,172.283227,-9360.722011
2772.710495,38.285162,114.855485,-9418.149754
2772.711123,133.998066,114.855485,-9418.149754
2772.711750,133.998066,172.283227,-9418.149754
2772.712377,95.712904,133.998066,-9360.722011
2772.713005,153.140646,133.998066,-9399.007173
2772.713632,76.570323,172.283227,-9360.722011
2772.714259,95.712904,133.998066,-9360.722011
2772.714886,95.712904,114.855485,-9418.149754
2772.715514,114.855485,95.712904,-9399.007173
2772.716141,95.712904,133.998066,-9360.722011
2772.716768,76.570323,114.855485,-9418.149754
2772.717395,57.427742,133.998066,-9360.722011
2772.718023,19.142581,172.283227,-9399.007173
2772.718650,114.855485,133.998066,-9360.722011
2772.719277,114.855485,153.140646,-9360.722011
2772.719905,133.998066,114.855485,-9456.434915
2772.720532,133.998066,114.855485,-9418.149754
2772.721159,76.570323,172.283227,-9418.149754
2772.721786,76.570323,210.568389,-9418.149754
2772.722414,57.427742,133.998066,-9360.722011
2772.723041,76.570323,153.140646,-9418.149754
2772.723668,133.998066,133.998066,-9399.007173
2772.724295,76.570323,114.855485,-9418.149754
2772.724923,76.570323,191.425808,-9418.149754
2772.725550,133.998066,191.425808,-9437.292334
2772.726177,133.998066,114.855485,-9418.149754
2772.726805,38.285162,172.283227,-9418.149754
2772.727432,133.998066,114.855485,-9418.149754
2772.728059,38.285162,114.855485,-9418.149754
2772.728686,76.570323,114.855485,-9418.149754
2772.729314,76.570323,114.855485,-9437.292334
2772.729941,76.570323,133.998066,-9360.722011
2772.730568,133.998066,114.855485,-9418.149754
2772.731195,38.285162,153.140646,-9418.149754
2772.731823,133.998066,172.283227,-9418.149754
2772.732450,76.570323,114.855485,-9418.149754
2772.733077,76.570323,114.855485,-9418.149754
2772.733704,76.570323,114.855485,-9456.434915
2772.734332,38.285162,114.855485,-9418.149754
2772.734959,172.283227,114.855485,-9379.864592
2772.735586,95.712904,153.140646,-9360.722011
2772.736214,95.712904,172.283227,-9418.149754
2772.736841,76.570323,153.140646,-9437.292334
2772.737468,133.998066,76.570323,-9379.864592
2772.738095,76.570323,210.568389,-9418.149754
2772.738723,133.998066,114.855485,-9418.149754
2772.739350,95.712904,133.998066,-9418.149754
2772.739977,114.855485,114.855485,-9379.864592
2772.740604,133.998066,114.855485,-9418.149754
2772.741231,76.570323,114.855485,-9418.149754
2772.741858,95.712904,133.998066,-9360.722011
2772.742485,57.427742,133.998066,-9360.722011
2772.743112,172.283227,248.853550,-9418.149754
2772.743739,38.285162,153.140646,-9418.149754
2772.744367,38.285162,114.855485,-9418.149754
2772.744994,133.998066,133.998066,-9399.007173
2772.745621,133.998066,133.998066,-9379.864592
2772.746248,57.427742,153.140646,-9360.722011
2772.746875,133.998066,153.140646,-9418.149754
2772.747502,114.855485,133.998066,-9360.722011
2772.748129,114.855485,95.712904,-9379.864592
2772.748756,172.283227,172.283227,-9379.864592
2772.749383,133.998066,133.998066,-9399.007173
2772.750010,76.570323,172.283227,-9418.149754
2772.750638,114.855485,114.855485,-9418.149754
2772.751265,172.283227,114.855485,-9456.434915
2772.751892,76.570323,172.283227,-9437.292334
2772.752519,133.998066,114.855485,-9437.292334
2772.753146,76.570323,114.855485,-9418.149754
2772.753773,76.570323,114.855485,-9418.149754
2772.754400,133.998066,114.855485,-9418.149754
2772.755027,95.712904,114.855485,-9456.434915
2772.755654,76.570323,114.855485,-9437.292334
2772.756281,133.998066,114.855485,-9418.149754
2772.756909,133.998066,172.283227,-9456.434915
2772.757536,133.998066,114.855485,-9418.149754
2772.758163,133.998066,114.855485,-9437.292334
2772.758790,76.570323,114.855485,-9437.292334
2772.759417,76.570323,172.283227,-9418.149754
2772.760044,38.285162,153.140646,-9418.149754
2772.760671,133.998066,172.283227,-9418.149754
2772.761298,76.570323,133.998066,-9360.722011
2772.761925,76.570323,153.140646,-9360.722011
2772.762553,172.283227,172.283227,-9379.864592
2772.763180,133.998066,114.855485,-9418.149754
2772.763807,133.998066,114.855485,-9418.149754
2772.764434,133.998066,114.855485,-9437.292334
2772.765061,133.998066,114.855485,-9418.149754
2772.765688,76.570323,172.283227,-9418.149754
2772.766315,76.570323,172.283227,-9418.149754
2772.766942,133.998066,153.140646,-9418.149754
2772.767569,95.712904,95.712904,-9399.007173
2772.768196,95.712904,95.712904,-9399.007173
2772.768824,153.140646,114.855485,-9418.149754
2772.769451,95.712904,114.855485,-9379.864592
2772.770078,95.712904,153.140646,-9360.722011
2772.770705,76.570323,114.855485,-9360.722011
2772.771332,95.712904,133.998066,-9418.149754
2772.771959,38.285162,114.855485,-9418.149754
2772.772586,133.998066,210.568389,-9360.722011
2772.773213,76.570323,172.283227,-9418.149754
2772.773840,114.855485,191.425808,-9360.722011
2772.774467,76.570323,210.568389,-9418.149754
2772.775095,76.570323,172.283227,-9418.149754
2772.775722,38.285162,114.855485,-9418.149754
2772.776349,95.712904,114.855485,-9418.149754
2772.776976,114.855485,95.712904,-9437.292334
2772.777603,76.570323,114.855485,-9456.434915
2772.778230,95.712904,114.855485,-9418.149754
2772.778857,133.998066,172.283227,-9437.292334
2772.779484,76.570323,114.855485,-9418.149754
2772.780111,76.570323,114.855485,-9418.149754
2772.780738,153.140646,191.425808,-9456.434915
2772.781366,133.998066,114.855485,-9418.149754
2772.781993,76.570323,114.855485,-9418.149754
2772.782620,38.285162,114.855485,-9418.149754
2772.783247,38.285162,114.855485,-9418.149754
2772.783874,76.570323,133.998066,-9360.722011
2772.784501,19.142581,114.855485,-9418.149754
2772.785128,38.285162,114.855485,-9418.149754
2772.785755,57.427742,133.998066,-9360.722011
2772.786382,133.998066,153.140646,-9418.149754
2772.787009,57.427742,133.998066,-9360.722011
2772.787637,133.998066,153.140646,-9418.149754
2772.788264,114.855485,114.855485,-9379.864592
2772.788891,153.140646,133.998066,-9399.007173
2772.789518,95.712904,172.283227,-9360.722011
2772.790145,76.570323,172.283227,-9418.149754
2772.790772,133.998066,153.140646,-9418.149754
2772.791399,76.570323,210.568389,-9360.722011
2772.792026,95.712904,210.568389,-9418.149754
2772.792653,76.570323,114.855485,-9418.149754
2772.793280,38.285162,114.855485,-9418.149754
2772.793908,133.998066,172.283227,-9360.722011
2772.794535,95.712904,133.998066,-9341.579430
2772.795162,133.998066,114.855485,-9418.149754
2772.795789,95.712904,133.998066,-9360.722011
2772.796416,38.285162,114.855485,-9437.292334
2772.797043,133.998066,153.140646,-9418.149754
2772.797670,133.998066,114.855485,-9456.434915
2772.798297,95.712904,95.712904,-9399.007173
2772.798924,57.427742,133.998066,-9360.722011
2772.799551,133.998066,133.998066,-9399.007173
2772.800179,95.712904,95.712904,-9399.007173
2772.800806,38.285162,172.283227,-9418.149754
2772.801433,133.998066,172.283227,-9418.149754
2772.802060,76.570323,114.855485,-9418.149754
2772.802687,114.855485,133.998066,-9360.722011
2772.803314,133.998066,172.283227,-9418.149754
2772.803941,38.285162,114.855485,-9418.149754
2772.804568,76.570323,76.570323,-9379.864592
2772.805195,133.998066,172.283227,-9418.149754
2772.805822,38.285162,114.855485,-9456.434915
2772.806450,153.140646,133.998066,-9399.007173
2772.807077,95.712904,133.998066,-9360.722011
2772.807704,76.570323,114.855485,-9418.149754
2772.808331,76.570323,153.140646,-9418.149754
2772.808958,76.570323,114.855485,-9456.434915
2772.809585,38.285162,114.855485,-9418.149754
2772.810212,38.285162,191.425808,-9418.149754
2772.810839,153.140646,95.712904,-9360.722011
2772.811466,76.570323,153.140646,-9418.149754
2772.812093,153.140646,172.283227,-9399.007173
2772.812721,133.998066,114.855485,-9418.149754
2772.813348,133.998066,114.855485,-9418.149754
2772.813975,38.285162,114.855485,-9418.149754
2772.814602,133.998066,210.568389,-9360.722011
2772.815229,133.998066,114.855485,-9418.149754
2772.815856,133.998066,114.855485,-9341.579430
2772.816483,133.998066,76.570323,-9379.864592
2772.817110,114.855485,133.998066,-9341.579430
2772.817737,153.140646,133.998066,-9399.007173
2772.818364,114.855485,114.855485,-9379.864592
2772.818992,95.712904,95.712904,-9399.007173
2772.819619,38.285162,95.712904,-9418.149754
2772.820246,133.998066,114.855485,-9456.434915
2772.820873,76.570323,114.855485,-9418.149754
2772.821500,76.570323,76.570323,-9379.864592
2772.822127,38.285162,114.855485,-9437.292334
2772.822754,95.712904,133.998066,-9360.722011
2772.823381,76.570323,172.283227,-9418.149754
2772.824008,133.998066,153.140646,-9418.149754
2772.824636,133.998066,114.855485,-9341.579430
2772.825263,133.998066,114.855485,-9418.149754
2772.825890,114.855485,95.712904,-9399.007173
2772.826517,133.998066,114.855485,-9418.149754
2772.827144,95.712904,153.140646,-9360.722011
2772.827771,153.140646,133.998066,-9399.007173
2772.828398,95.712904,114.855485,-9418.149754
2772.829025,76.570323,172.283227,-9360.722011
2772.829652,95.712904,210.568389,-9341.579430
2772.830279,38.285162,172.283227,-9437.292334
2772.830907,76.570323,210.568389,-9418.149754
2772.831534,114.855485,133.998066,-9418.149754
2772.832161,95.712904,153.140646,-9360.722011
2772.832788,76.570323,172.283227,-9360.722011
2772.833415,95.712904,153.140646,-9418.149754
2772.834042,133.998066,114.855485,-9418.149754
2772.834669,133.998066,114.855485,-9418.149754
2772.835296,95.712904,133.998066,-9360.722011
2772.835923,172.283227,114.855485,-9379.864592
2772.836550,76.570323,153.140646,-9418.149754
2772.837178,133.998066,172.283227,-9399.007173
2772.837805,38.285162,114.855485,-9418.149754
2772.838432,76.570323,114.855485,-9418.149754
2772.839059,76.570323,172.283227,-9418.149754
2772.839686,114.855485,133.998066,-9360.722011
2772.840313,76.570323,172.283227,-9418.149754
2772.840941,133.998066,153.140646,-9418.149754
2772.841568,95.712904,76.570323,-9379.864592
2772.842195,38.285162,114.855485,-9418.149754
2772.842822,114.855485,95.712904,-9399.007173
2772.843450,133.998066,114.855485,-9418.149754
2772.844077,95.712904,153.140646,-9418.149754
2772.844704,76.570323,210.568389,-9418.149754
2772.845332,133.998066,210.568389,-9418.149754
2772.845959,76.570323,114.855485,-9418.149754
2772.846586,95.712904,95.712904,-9399.007173
2772.847213,95.712904,114.855485,-9418.149754
2772.847841,133.998066,172.283227,-9418.149754
2772.848468,38.285162,114.855485,-9360.722011
2772.849095,133.998066,172.283227,-9418.149754
2772.849723,133.998066,153.140646,-9418.149754
2772.850350,95.712904,133.998066,-9360.722011
2772.850977,133.998066,172.283227,-9399.007173
2772.851604,57.427742,153.140646,-9360.722011
2772.852232,38.285162,114.855485,-9360.722011
2772.852859,172.283227,114.855485,-9379.864592
2772.853486,19.142581,172.283227,-9437.292334
2772.854113,38.285162,172.283227,-9418.149754
2772.854741,38.285162,210.568389,-9418.149754
2772.855368,114.855485,172.283227,-9360.722011
2772.855995,76.570323,114.855485,-9418.149754
2772.856623,133.998066,133.998066,-9456.434915
2772.857250,76.570323,114.855485,-9418.149754
2772.857877,57.427742,210.568389,-9418.149754
2772.858504,38.285162,114.855485,-9494.720077
2772.859132,76.570323,153.140646,-9437.292334
2772.859759,133.998066,114.855485,-9437.292334
2772.860386,133.998066,210.568389,-9437.292334
2772.861013,133.998066,114.855485,-9418.149754
2772.861641,133.998066,114.855485,-9418.149754
2772.862268,76.570323,114.855485,-9418.149754
2772.862895,38.285162,114.855485,-9418.149754
2772.863523,133.998066,114.855485,-9360.722011
2772.864150,114.855485,133.998066,-9360.722011
2772.864777,133.998066,210.568389,-9418.149754
2772.865404,76.570323,210.568389,-9437.292334
2772.866032,133.998066,172.283227,-9437.292334
2772.866659,133.998066,172.283227,-9418.149754
2772.867286,153.140646,133.998066,-9399.007173
2772.867914,76.570323,114.855485,-9418.149754
2772.868541,114.855485,95.712904,-9456.434915
2772.869168,76.570323,172.283227,-9418.149754
2772.869795,133.998066,172.283227,-9418.149754
2772.870423,95.712904,210.568389,-9360.722011
2772.871050,95.712904,133.998066,-9360.722011
2772.871677,76.570323,114.855485,-9418.149754
2772.872304,76.570323,114.855485,-9437.292334
2772.872932,133.998066,114.855485,-9418.149754
2772.873559,76.570323,153.140646,-9437.292334
2772.874186,95.712904,114.855485,-9456.434915
2772.874814,95.712904,172.283227,-9360.722011
2772.875441,133.998066,114.855485,-9418.149754
2772.876068,133.998066,95.712904,-9418.149754
2772.876695,57.427742,172.283227,-9360.722011
2772.877323,76.570323,191.425808,-9360.722011
2772.877950,114.855485,172.283227,-9360.722011
2772.878577,153.140646,172.283227,-9456.434915
2772.879204,38.285162,114.855485,-9456.434915
2772.879832,76.570323,114.855485,-9456.434915
2772.880459,76.570323,114.855485,-9418.149754
2772.881086,38.285162,191.425808,-9418.149754
2772.881714,133.998066,153.140646,-9418.149754
2772.882341,95.712904,210.568389,-9341.579430
2772.882968,95.712904,172.283227,-9360.722011
2772.883595,95.712904,153.140646,-9360.722011
2772.884223,133.998066,114.855485,-9418.149754
2772.884850,133.998066,114.855485,-9418.149754
2772.885477,76.570323,153.140646,-9418.149754
2772.886105,57.427742,95.712904,-9399.007173
2772.886732,133.998066,114.855485,-9418.149754
2772.887359,76.570323,172.283227,-9437.292334
2772.887986,114.855485,76.570323,-9437.292334
2772.888614,76.570323,172.283227,-9418.149754
2772.889241,133.998066,153.140646,-9418.149754
2772.889868,133.998066,114.855485,-9418.149754
2772.890495,133.998066,210.568389,-9418.149754
2772.891123,133.998066,153.140646,-9418.149754
2772.891750,153.140646,133.998066,-9399.007173
2772.892377,133.998066,114.855485,-9418.149754
2772.893005,76.570323,114.855485,-9418.149754
2772.893632,133.998066,114.855485,-9418.149754
2772.894259,133.998066,172.283227,-9418.149754
2772.894886,95.712904,114.855485,-9418.149754
2772.895514,76.570323,210.568389,-9418.149754
2772.896141,95.712904,114.855485,-9418.149754
2772.896768,76.570323,172.283227,-9456.434915
2772.897395,76.570323,210.568389,-9418.149754
2772.898023,95.712904,133.998066,-9360.722011
2772.898650,57.427742,95.712904,-9399.007173
2772.899277,95.712904,114.855485,-9418.149754
2772.899905,133.998066,210.568389,-9360.722011
2772.900532,114.855485,172.283227,-9360.722011
2772.901159,153.140646,133.998066,-9399.007173
2772.901786,76.570323,172.283227,-9418.149754
2772.902414,133.998066,172.283227,-9418.149754
2772.903041,76.570323,114.855485,-9418.149754
2772.903668,38.285162,153.140646,-9418.149754
2772.904296,76.570323,172.283227,-9418.149754
2772.904923,76.570323,153.140646,-9418.149754
2772.905550,114.855485,133.998066,-9360.722011
2772.906177,133.998066,114.855485,-9437.292334
2772.906805,133.998066,114.855485,-9418.149754
2772.907432,76.570323,114.855485,-9418.149754
2772.908059,76.570323,114.855485,-9418.149754
2772.908686,114.855485,95.712904,-9399.007173
2772.909314,153.140646,248.853550,-9399.007173
2772.909941,133.998066,210.568389,-9418.149754
2772.910568,133.998066,133.998066,-9399.007173
2772.911196,76.570323,172.283227,-9418.149754
2772.911823,76.570323,114.855485,-9418.149754
2772.912450,95.712904,133.998066,-9284.151688
2772.913077,95.712904,114.855485,-9418.149754
2772.913705,95.712904,133.998066,-9341.579430
2772.914332,38.285162,114.855485,-9437.292334
2772.914959,95.712904,95.712904,-9399.007173
2772.915586,95.712904,95.712904,-9456.434915
2772.916214,133.998066,114.855485,-9418.149754
2772.916841,76.570323,114.855485,-9418.149754
2772.917468,38.285162,114.855485,-9418.149754
2772.918096,133.998066,191.425808,-9399.007173
2772.918723,38.285162,114.855485,-9360.722011
2772.919350,95.712904,133.998066,-9360.722011
2772.919977,76.570323,114.855485,-9360.722011
2772.920605,76.570323,114.855485,-9418.149754
2772.921232,153.140646,133.998066,-9399.007173
2772.921859,19.142581,114.855485,-9437.292334
2772.922487,76.570323,114.855485,-9456.434915
2772.923114,133.998066,114.855485,-9418.149754
2772.923741,76.570323,114.855485,-9418.149754
2772.924368,95.712904,95.712904,-9399.007173
2772.924996,76.570323,133.998066,-9360.722011
2772.925623,76.570323,114.855485,-9418.149754
2772.926250,133.998066,153.140646,-9418.149754
2772.926877,76.570323,114.855485,-9418.149754
2772.927505,133.998066,114.855485,-9418.149754
2772.928132,133.998066,114.855485,-9475.577496
2772.928759,153.140646,133.998066,-9399.007173
2772.929387,95.712904,172.283227,-9418.149754
2772.930014,76.570323,114.855485,-9418.149754
2772.930641,95.712904,172.283227,-9360.722011
2772.931268,95.712904,95.712904,-9399.007173
2772.931896,76.570323,172.283227,-9360.722011
2772.932523,95.712904,133.998066,-9379.864592
2772.933150,114.855485,133.998066,-9360.722011
2772.933778,133.998066,114.855485,-9418.149754
2772.934405,153.140646,133.998066,-9399.007173
2772.935032,76.570323,114.855485,-9456.434915
2772.935659,19.142581,114.855485,-9456.434915
2772.936287,95.712904,153.140646,-9360.722011
2772.936914,133.998066,172.283227,-9418.149754
2772.937541,19.142581,153.140646,-9418.149754
2772.938168,95.712904,133.998066,-9360.722011
2772.938796,76.570323,172.283227,-9418.149754
2772.939423,153.140646,172.283227,-9399.007173
2772.940051,153.140646,172.283227,-9399.007173
2772.940678,38.285162,133.998066,-9360.722011
2772.941306,95.712904,153.140646,-9437.292334
2772.941934,153.140646,133.998066,-9399.007173
2772.942562,133.998066,114.855485,-9418.149754
2772.943189,133.998066,114.855485,-9418.149754
2772.943817,133.998066,114.855485,-9418.149754
2772.944445,133.998066,133.998066,-9399.007173
2772.945073,76.570323,114.855485,-9418.149754
2772.945701,114.855485,191.425808,-9341.579430
2772.946328,114.855485,172.283227,-9360.722011
2772.946956,38.285162,153.140646,-9418.149754
2772.947584,153.140646,133.998066,-9399.007173
2772.948212,76.570323,114.855485,-9418.149754
2772.948839,76.570323,114.855485,-9418.149754
2772.949467,133.998066,153.140646,-9418.149754
2772.950095,76.570323,153.140646,-9418.149754
2772.950723,133.998066,210.568389,-9418.149754
2772.951350,38.285162,114.855485,-9360.722011
2772.951978,95.712904,210.568389,-9418.149754
2772.952606,95.712904,153.140646,-9418.149754
2772.953234,95.712904,133.998066,-9360.722011
2772.953861,95.712904,95.712904,-9399.007173
2772.954489,133.998066,76.570323,-9379.864592
2772.955117,76.570323,95.712904,-9399.007173
2772.955745,76.570323,114.855485,-9418.149754
2772.956372,153.140646,133.998066,-9399.007173
2772.957000,95.712904,95.712904,-9399.007173
2772.957628,133.998066,114.855485,-9418.149754
2772.958256,76.570323,191.425808,-9456.434915
2772.958883,57.427742,114.855485,-9418.149754
2772.959511,172.283227,114.855485,-9379.864592
2772.960139,133.998066,114.855485,-9360.722011
2772.960767,172.283227,210.568389,-9379.864592
2772.961394,114.855485,172.283227,-9360.722011
2772.962022,133.998066,114.855485,-9418.149754
2772.962650,76.570323,114.855485,-9418.149754
2772.963278,133.998066,153.140646,-9418.149754
2772.963905,57.427742,133.998066,-9360.722011
2772.964533,95.712904,153.140646,-9360.722011
2772.965161,76.570323,172.283227,-9418.149754
2772.965789,133.998066,191.425808,-9494.720077
2772.966416,133.998066,172.283227,-9418.149754
2772.967044,133.998066,133.998066,-9399.007173
2772.967672,133.998066,114.855485,-9418.149754
2772.968300,133.998066,114.855485,-9418.149754
2772.968927,114.855485,133.998066,-9360.722011
2772.969555,210.568389,172.283227,-9399.007173
2772.970183,133.998066,153.140646,-9360.722011
2772.970811,38.285162,114.855485,-9418.149754
2772.971438,133.998066,133.998066,-9437.292334
2772.972066,76.570323,172.283227,-9418.149754
2772.972694,114.855485,172.283227,-9379.864592
2772.973322,76.570323,172.283227,-9418.149754
2772.973949,133.998066,153.140646,-9418.149754
2772.974577,133.998066,114.855485,-9418.149754
2772.975205,114.855485,95.712904,-9399.007173
2772.975833,114.855485,95.712904,-9399.007173
2772.976460,76.570323,153.140646,-9437.292334
2772.977088,38.285162,114.855485,-9437.292334
2772.977716,76.570323,114.855485,-9456.434915
2772.978344,76.570323,153.140646,-9418.149754
2772.978971,153.140646,133.998066,-9399.007173
2772.979599,133.998066,133.998066,-9399.007173
2772.980227,133.998066,153.140646,-9418.149754
2772.980855,76.570323,191.425808,-9418.149754
2772.981482,95.712904,133.998066,-9341.579430
2772.982110,133.998066,153.140646,-9418.149754
2772.982738,114.855485,153.140646,-9360.722011
2772.983366,133.998066,172.283227,-9418.149754
2772.983993,76.570323,172.283227,-9418.149754
2772.984621,133.998066,114.855485,-9418.149754
2772.985249,133.998066,114.855485,-9418.149754
2772.985877,114.855485,95.712904,-9399.007173
2772.986504,133.998066,133.998066,-9399.007173
2772.987132,95.712904,133.998066,-9360.722011
2772.987760,95.712904,95.712904,-9399.007173
2772.988388,114.855485,248.853550,-9360.722011
2772.989015,95.712904,133.998066,-9360.722011
2772.989643,95.712904,114.855485,-9399.007173
2772.990271,57.427742,95.712904,-9456.434915
2772.990899,95.712904,95.712904,-9456.434915
2772.991526,76.570323,114.855485,-9437.292334
2772.992154,153.140646,133.998066,-9399.007173
2772.992782,76.570323,114.855485,-9418.149754
2772.993410,95.712904,153.140646,-9456.434915
2772.994037,19.142581,114.855485,-9418.149754
2772.994665,95.712904,114.855485,-9399.007173
2772.995293,114.855485,76.570323,-9418.149754
2772.995921,57.427742,133.998066,-9360.722011
2772.996548,76.570323,76.570323,-9322.436850
2772.997176,95.712904,133.998066,-9360.722011
2772.997804,57.427742,210.568389,-9360.722011
2772.998432,38.285162,191.425808,-9418.149754
2772.999059,76.570323,172.283227,-9418.149754
2772.999687,114.855485,133.998066,-9360.722011
2773.000315,76.570323,114.855485,-9418.149754
2773.000943,76.570323,114.855485,-9437.292334
2773.001570,38.285162,153.140646,-9418.149754
2773.002198,76.570323,172.283227,-9418.149754
2773.002826,133.998066,133.998066,-9399.007173
2773.003454,95.712904,133.998066,-9360.722011
2773.004081,95.712904,114.855485,-9418.149754
2773.004709,57.427742,172.283227,-9418.149754
2773.005337,133.998066,172.283227,-9418.149754
2773.005965,95.712904,210.568389,-9418.149754
2773.006592,76.570323,210.568389,-9418.149754
2773.007220,57.427742,172.283227,-9360.722011
2773.007848,133.998066,172.283227,-9418.149754
2773.008476,76.570323,153.140646,-9418.149754
2773.009103,76.570323,114.855485,-9418.149754
2773.009731,153.140646,133.998066,-9399.007173
2773.010359,76.570323,114.855485,-9418.149754
2773.010987,133.998066,114.855485,-9494.720077
2773.011614,95.712904,153.140646,-9418.149754
2773.012242,114.855485,95.712904,-9399.007173
2773.012870,114.855485,95.712904,-9399.007173
2773.013498,95.712904,95.712904,-9399.007173
2773.014125,153.140646,172.283227,-9418.149754
2773.014753,95.712904,133.998066,-9341.579430
2773.015381,114.855485,191.425808,-9360.722011
2773.016009,133.998066,153.140646,-9418.149754
2773.016636,114.855485,133.998066,-9360.722011
2773.017264,57.427742,95.712904,-9399.007173
2773.017892,76.570323,172.283227,-9418.149754
2773.018520,133.998066,191.425808,-9399.007173
2773.019147,172.283227,172.283227,-9379.864592
2773.019775,95.712904,95.712904,-9399.007173
2773.020403,76.570323,114.855485,-9418.149754
2773.021031,76.570323,133.998066,-9341.579430
2773.021658,76.570323,114.855485,-9418.149754
2773.022286,114.855485,76.570323,-9360.722011
2773.022914,133.998066,172.283227,-9399.007173
2773.023542,172.283227,172.283227,-9360.722011
2773.024169,133.998066,153.140646,-9418.149754
2773.024797,153.140646,153.140646,-9399.007173
2773.025425,133.998066,172.283227,-9437.292334
2773.026053,133.998066,114.855485,-9456.434915
2773.026680,133.998066,210.568389,-9418.149754
2773.027308,133.998066,172.283227,-9418.149754
2773.027936,95.712904,229.710970,-9399.007173
2773.028564,76.570323,153.140646,-9418.149754
2773.029191,153.140646,133.998066,-9437.292334
2773.029819,153.140646,114.855485,-9418.149754
2773.030447,133.998066,114.855485,-9437.292334
2773.031075,76.570323,114.855485,-9418.149754
2773.031702,95.712904,95.712904,-9399.007173
2773.032330,153.140646,133.998066,-9399.007173
2773.032958,76.570323,114.855485,-9418.149754
2773.033586,133.998066,153.140646,-9456.434915
2773.034213,133.998066,114.855485,-9418.149754
2773.034841,76.570323,114.855485,-9418.149754
2773.035469,76.570323,153.140646,-9418.149754
2773.036097,38.285162,114.855485,-9418.149754
2773.036725,76.570323,172.283227,-9418.149754
2773.037352,133.998066,114.855485,-9418.149754
2773.037980,76.570323,172.283227,-9418.149754
2773.038608,210.568389,172.283227,-9399.007173
2773.039236,133.998066,210.568389,-9418.149754
2773.039863,133.998066,114.855485,-9418.149754
2773.040491,76.570323,114.855485,-9456.434915
2773.041119,76.570323,153.140646,-9437.292334
2773.041747,95.712904,114.855485,-9418.149754
2773.042374,133.998066,133.998066,-9399.007173
2773.043002,38.285162,114.855485,-9437.292334
2773.043630,76.570323,153.140646,-9418.149754
2773.044258,95.712904,114.855485,-9399.007173
2773.044885,114.855485,95.712904,-9399.007173
2773.045513,114.855485,114.855485,-9322.436850
2773.046141,76.570323,114.855485,-9360.722011
2773.046769,95.712904,133.998066,-9360.722011
2773.047396,114.855485,153.140646,-9341.579430
2773.048024,114.855485,153.140646,-9379.864592
2773.048652,76.570323,114.855485,-9456.434915
2773.049280,133.998066,114.855485,-9418.149754
2773.049907,114.855485,133.998066,-9360.722011
2773.050535,95.712904,153.140646,-9360.722011
2773.051163,133.998066,114.855485,-9418.149754
2773.051791,57.427742,153.140646,-9360.722011
2773.052419,76.570323,114.855485,-9456.434915
2773.053047,133.998066,114.855485,-9456.434915
2773.053674,76.570323,114.855485,-9456.434915
2773.054302,76.570323,114.855485,-9418.149754
2773.054930,114.855485,76.570323,-9418.149754
2773.055558,76.570323,114.855485,-9437.292334
2773.056186,153.140646,133.998066,-9399.007173
2773.056814,76.570323,114.855485,-9418.149754
2773.057442,114.855485,95.712904,-9399.007173
2773.058069,133.998066,114.855485,-9418.149754
2773.058697,172.283227,114.855485,-9379.864592
2773.059325,76.570323,114.855485,-9418.149754
2773.059953,114.855485,114.855485,-9379.864592
2773.060581,133.998066,153.140646,-9418.149754
2773.061209,133.998066,114.855485,-9418.149754
2773.061837,114.855485,95.712904,-9494.720077
2773.062464,114.855485,95.712904,-9456.434915
2773.063092,153.140646,133.998066,-9399.007173
2773.063720,133.998066,114.855485,-9418.149754
2773.064348,76.570323,114.855485,-9418.149754
2773.064976,133.998066,114.855485,-9418.149754
2773.065604,76.570323,76.570323,-9341.579430
2773.066232,114.855485,95.712904,-9399.007173
2773.066859,114.855485,95.712904,-9399.007173
2773.067487,95.712904,210.568389,-9418.149754
2773.068115,133.998066,191.425808,-9399.007173
2773.068743,133.998066,114.855485,-9418.149754
2773.069371,153.140646,133.998066,-9399.007173
2773.069999,172.283227,95.712904,-9399.007173
2773.070627,153.140646,133.998066,-9399.007173
2773.071254,95.712904,114.855485,-9418.149754
2773.071882,114.855485,95.712904,-9437.292334
2773.072510,76.570323,172.283227,-9418.149754
2773.073138,19.142581,114.855485,-9418.149754
2773.073766,76.570323,114.855485,-9360.722011
2773.074394,133.998066,172.283227,-9456.434915
2773.075022,95.712904,153.140646,-9360.722011
2773.075649,114.855485,191.425808,-9418.149754
2773.076277,76.570323,210.568389,-9418.149754
2773.076905,114.855485,133.998066,-9360.722011
2773.077533,95.712904,133.998066,-9360.722011
2773.078161,57.427742,191.425808,-9360.722011
2773.078789,133.998066,114.855485,-9360.722011
2773.079417,133.998066,114.855485,-9418.149754
2773.080044,76.570323,114.855485,-9418.149754
2773.080672,76.570323,114.855485,-9418.149754
2773.081300,114.855485,153.140646,-9360.722011
2773.081928,76.570323,114.855485,-9418.149754
2773.082556,133.998066,114.855485,-9437.292334
2773.083184,114.855485,95.712904,-9399.007173
2773.083812,76.570323,114.855485,-9418.149754
2773.084439,76.570323,114.855485,-9418.149754
2773.085067,95.712904,133.998066,-9360.722011
2773.085695,95.712904,95.712904,-9399.007173
2773.086323,114.855485,153.140646,-9379.864592
2773.086951,38.285162,114.855485,-9418.149754
2773.087579,133.998066,191.425808,-9437.292334
2773.088207,76.570323,114.855485,-9437.292334
2773.088835,95.712904,133.998066,-9360.722011
2773.089462,133.998066,76.570323,-9379.864592
2773.090090,133.998066,114.855485,-9360.722011
2773.090718,76.570323,114.855485,-9418.149754
2773.091346,95.712904,191.425808,-9341.579430
2773.091974,76.570323,114.855485,-9418.149754
2773.092602,95.712904,153.140646,-9360.722011
2773.093230,76.570323,114.855485,-9418.149754
2773.093857,95.712904,133.998066,-9360.722011
2773.094485,57.427742,95.712904,-9399.007173
2773.095113,114.855485,133.998066,-9303.294269
2773.095741,95.712904,172.283227,-9360.722011
2773.096369,38.285162,114.855485,-9418.149754
2773.096997,133.998066,114.855485,-9418.149754
2773.097625,57.427742,133.998066,-9360.722011
2773.098252,114.855485,133.998066,-9360.722011
2773.098880,38.285162,114.855485,-9418.149754
2773.099508,38.285162,210.568389,-9418.149754
2773.100136,76.570323,114.855485,-9418.149754
2773.100764,153.140646,153.140646,-9418.149754
2773.101392,133.998066,172.283227,-9418.149754
2773.102020,76.570323,114.855485,-9418.149754
2773.102647,133.998066,114.855485,-9418.149754
2773.103275,95.712904,133.998066,-9360.722011
2773.103903,133.998066,153.140646,-9418.149754
2773.104531,114.855485,133.998066,-9360.722011
2773.105159,114.855485,95.712904,-9399.007173
2773.105787,133.998066,114.855485,-9418.149754
2773.106415,76.570323,153.140646,-9418.149754
2773.107042,133.998066,210.568389,-9418.149754
2773.107670,95.712904,133.998066,-9360.722011
2773.108298,133.998066,172.283227,-9418.149754
2773.108926,95.712904,133.998066,-9360.722011
2773.109554,153.140646,133.998066,-9399.007173
2773.110182,153.140646,133.998066,-9379.864592
2773.110810,76.570323,153.140646,-9360.722011
2773.111437,114.855485,95.712904,-9456.434915
2773.112065,133.998066,114.855485,-9418.149754
2773.112693,76.570323,153.140646,-9437.292334
2773.113321,114.855485,153.140646,-9360.722011
2773.113949,114.855485,133.998066,-9360.722011
2773.114577,76.570323,114.855485,-9418.149754
2773.115205,76.570323,114.855485,-9418.149754
2773.115832,133.998066,114.855485,-9418.149754
2773.116460,114.855485,172.283227,-9360.722011
2773.117088,133.998066,114.855485,-9418.149754
2773.117716,191.425808,114.855485,-9322.436850
2773.118344,95.712904,133.998066,-9341.579430
2773.118972,19.142581,172.283227,-9418.149754
2773.119600,38.285162,229.710970,-9418.149754
2773.120227,38.285162,210.568389,-9437.292334
2773.120855,133.998066,114.855485,-9437.292334
2773.121483,57.427742,133.998066,-9360.722011
2773.122111,57.427742,133.998066,-9360.722011
2773.122739,76.570323,114.855485,-9418.149754
2773.123367,76.570323,114.855485,-9418.149754
2773.123995,57.427742,38.285162,-9379.864592
2773.124622,133.998066,153.140646,-9341.579430
2773.125250,95.712904,133.998066,-9360.722011
2773.125878,114.855485,114.855485,-9399.007173
2773.126506,133.998066,133.998066,-9399.007173
2773.127134,133.998066,114.855485,-9418.149754
2773.127762,114.855485,95.712904,-9399.007173
2773.128390,133.998066,133.998066,-9456.434915
2773.129017,95.712904,153.140646,-9418.149754
2773.129645,76.570323,153.140646,-9418.149754
2773.130273,133.998066,114.855485,-9418.149754
2773.130901,133.998066,114.855485,-9418.149754
2773.131529,76.570323,153.140646,-9418.149754
2773.132157,76.570323,172.283227,-9418.149754
2773.132785,95.712904,114.855485,-9418.149754
2773.133412,133.998066,114.855485,-9418.149754
2773.134040,114.855485,153.140646,-9360.722011
2773.134668,133.998066,210.568389,-9418.149754
2773.135296,133.998066,114.855485,-9418.149754
2773.135924,95.712904,95.712904,-9399.007173
2773.136552,95.712904,114.855485,-9418.149754
2773.137180,172.283227,133.998066,-9360.722011
2773.137807,153.140646,191.425808,-9399.007173
2773.138435,76.570323,172.283227,-9418.149754
2773.139063,114.855485,95.712904,-9399.007173
2773.139691,38.285162,114.855485,-9418.149754
2773.140319,95.712904,172.283227,-9360.722011
2773.140946,95.712904,133.998066,-9360.722011
2773.141574,76.570323,153.140646,-9437.292334
2773.142201,38.285162,153.140646,-9418.149754
2773.142829,172.283227,114.855485,-9379.864592
2773.143456,95.712904,114.855485,-9418.149754
2773.144084,133.998066,114.855485,-9437.292334
2773.144712,95.712904,172.283227,-9418.149754
2773.145339,76.570323,114.855485,-9418.149754
2773.145967,76.570323,153.140646,-9437.292334
2773.146594,133.998066,114.855485,-9456.434915
2773.147222,95.712904,95.712904,-9456.434915
2773.147849,114.855485,114.855485,-9399.007173
2773.148477,133.998066,172.283227,-9418.149754
2773.149104,38.285162,76.570323,-9379.864592
2773.149732,76.570323,172.283227,-9418.149754
2773.150359,153.140646,191.425808,-9399.007173
2773.150987,133.998066,114.855485,-9418.149754
2773.151614,38.285162,114.855485,-9418.149754
2773.152242,114.855485,95.712904,-9399.007173
2773.152869,76.570323,172.283227,-9418.149754
2773.153497,95.712904,114.855485,-9418.149754
2773.154124,95.712904,133.998066,-9360.722011
2773.154752,133.998066,133.998066,-9456.434915
2773.155379,133.998066,114.855485,-9418.149754
2773.156007,95.712904,133.998066,-9341.579430
2773.156634,133.998066,114.855485,-9418.149754
2773.157262,133.998066,114.855485,-9418.149754
2773.157890,95.712904,95.712904,-9399.007173
2773.158517,114.855485,191.425808,-9418.149754
2773.159145,76.570323,114.855485,-9418.149754
2773.159772,57.427742,172.283227,-9360.722011
2773.160400,19.142581,210.568389,-9418.149754
2773.161027,76.570323,133.998066,-9360.722011
2773.161655,153.140646,133.998066,-9399.007173
2773.162282,95.712904,191.425808,-9418.149754
2773.162910,76.570323,153.140646,-9418.149754
2773.163537,153.140646,153.140646,-9456.434915
2773.164165,153.140646,133.998066,-9399.007173
2773.164792,76.570323,114.855485,-9418.149754
2773.165420,76.570323,114.855485,-9418.149754
2773.166047,76.570323,114.855485,-9360.722011
2773.166675,114.855485,153.140646,-9360.722011
2773.167302,95.712904,133.998066,-9360.722011
2773.167930,114.855485,133.998066,-9360.722011
2773.168557,95.712904,172.283227,-9360.722011
2773.169185,133.998066,114.855485,-9360.722011
2773.169813,57.427742,153.140646,-9360.722011
2773.170440,95.712904,172.283227,-9360.722011
2773.171068,133.998066,191.425808,-9399.007173
2773.171695,114.855485,114.855485,-9399.007173
2773.172323,95.712904,172.283227,-9360.722011
2773.172950,95.712904,133.998066,-9341.579430
2773.173578,172.283227,76.570323,-9418.149754
2773.174205,172.283227,114.855485,-9379.864592
2773.174833,95.712904,133.998066,-9360.722011
2773.175460,76.570323,114.855485,-9418.149754
2773.176088,76.570323,133.998066,-9360.722011
2773.176715,95.712904,172.283227,-9360.722011
2773.177343,172.283227,172.283227,-9379.864592
2773.177970,38.285162,172.283227,-9360.722011
2773.178598,76.570323,172.283227,-9418.149754
2773.179225,153.140646,248.853550,-9399.007173
2773.179853,114.855485,172.283227,-9360.722011
2773.180480,76.570323,172.283227,-9418.149754
2773.181108,133.998066,114.855485,-9418.149754
2773.181735,38.285162,114.855485,-9418.149754
2773.182363,95.712904,133.998066,-9360.722011
2773.182991,114.855485,172.283227,-9360.722011
2773.183618,133.998066,153.140646,-9418.149754
2773.184246,95.712904,95.712904,-9399.007173
2773.184873,133.998066,172.283227,-9418.149754
2773.185501,76.570323,172.283227,-9418.149754
2773.186128,172.283227,172.283227,-9399.007173
2773.186756,133.998066,172.283227,-9418.149754
2773.187383,76.570323,114.855485,-9418.149754
2773.188011,133.998066,153.140646,-9475.577496
2773.188638,76.570323,153.140646,-9418.149754
2773.189266,133.998066,153.140646,-9418.149754
2773.189893,76.570323,133.998066,-9418.149754
2773.190521,210.568389,153.140646,-9399.007173
2773.191148,133.998066,172.283227,-9418.149754
2773.191776,153.140646,114.855485,-9418.149754
2773.192403,133.998066,153.140646,-9418.149754
2773.193031,76.570323,210.568389,-9418.149754
2773.193658,38.285162,153.140646,-9418.149754
2773.194286,172.283227,172.283227,-9379.864592
2773.194913,153.140646,133.998066,-9399.007173
2773.195541,133.998066,153.140646,-9399.007173
2773.196169,95.712904,172.283227,-9418.149754
2773.196796,76.570323,172.283227,-9418.149754
2773.197424,114.855485,95.712904,-9399.007173
2773.198051,95.712904,95.712904,-9379.864592
2773.198679,76.570323,114.855485,-9418.149754
2773.199306,76.570323,114.855485,-9418.149754
2773.199934,76.570323,172.283227,-9418.149754
2773.200561,95.712904,133.998066,-9360.722011
2773.201189,133.998066,153.140646,-9418.149754
2773.201816,133.998066,114.855485,-9418.149754
2773.202444,133.998066,114.855485,-9418.149754
2773.203071,133.998066,114.855485,-9418.149754
2773.203699,114.855485,133.998066,-9360.722011
2773.204326,133.998066,191.425808,-9418.149754
2773.204954,133.998066,114.855485,-9418.149754
2773.205581,76.570323,114.855485,-9418.149754
2773.206209,76.570323,172.283227,-9418.149754
2773.206836,76.570323,133.998066,-9418.149754
2773.207464,76.570323,210.568389,-9456.434915
2773.208091,76.570323,114.855485,-9418.149754
2773.208719,95.712904,114.855485,-9418.149754
2773.209347,95.712904,133.998066,-9360.722011
2773.209974,76.570323,172.283227,-9360.722011
2773.210602,133.998066,114.855485,-9418.149754
2773.211229,38.285162,114.855485,-9418.149754
2773.211857,57.427742,210.568389,-9360.722011
2773.212484,95.712904,133.998066,-9360.722011
2773.213112,133.998066,191.425808,-9456.434915
2773.213739,95.712904,133.998066,-9360.722011
2773.214367,133.998066,114.855485,-9437.292334
2773.214994,76.570323,114.855485,-9437.292334
2773.215622,38.285162,114.855485,-9475.577496
2773.216249,95.712904,114.855485,-9418.149754
2773.216877,57.427742,172.283227,-9360.722011
2773.217504,133.998066,210.568389,-9418.149754
2773.218132,95.712904,210.568389,-9456.434915
2773.218759,133.998066,114.855485,-9418.149754
2773.219387,76.570323,114.855485,-9437.292334
2773.220014,38.285162,114.855485,-9456.434915
2773.220642,76.570323,210.568389,-9418.149754
2773.221269,76.570323,114.855485,-9437.292334
2773.221897,95.712904,133.998066,-9360.722011
2773.222525,57.427742,133.998066,-9360.722011
2773.223152,38.285162,172.283227,-9418.149754
2773.223780,133.998066,114.855485,-9437.292334
2773.224407,153.140646,133.998066,-9399.007173
2773.225035,95.712904,133.998066,-9360.722011
2773.225662,114.855485,153.140646,-9379.864592
2773.226290,172.283227,114.855485,-9322.436850
2773.226917,153.140646,114.855485,-9456.434915
2773.227545,133.998066,114.855485,-9418.149754
2773.228172,172.283227,133.998066,-9360.722011
2773.228800,114.855485,191.425808,-9360.722011
2773.229427,153.140646,248.853550,-9399.007173
2773.230055,76.570323,172.283227,-9418.149754
2773.230682,133.998066,248.853550,-9399.007173
2773.231310,133.998066,210.568389,-9456.434915
2773.231937,57.427742,191.425808,-9360.722011
2773.232565,95.712904,133.998066,-9360.722011
2773.233192,153.140646,133.998066,-9399.007173
2773.233820,95.712904,153.140646,-9341.579430
2773.234447,133.998066,114.855485,-9418.149754
2773.235075,133.998066,210.568389,-9418.149754
2773.235703,133.998066,153.140646,-9418.149754
2773.236330,76.570323,172.283227,-9341.579430
2773.236958,114.855485,133.998066,-9360.722011
2773.237585,114.855485,172.283227,-9360.722011
2773.238213,133.998066,133.998066,-9399.007173
2773.238840,133.998066,114.855485,-9437.292334
2773.239468,153.140646,248.853550,-9437.292334
2773.240095,76.570323,210.568389,-9418.149754
2773.240723,38.285162,114.855485,-9437.292334
2773.241350,133.998066,114.855485,-9418.149754
2773.241977,172.283227,172.283227,-9379.864592
2773.242605,76.570323,210.568389,-9418.149754
2773.243232,133.998066,114.855485,-9418.149754
2773.243860,76.570323,114.855485,-9418.149754
2773.244487,133.998066,114.855485,-9418.149754
2773.245114,76.570323,133.998066,-9360.722011
2773.245742,57.427742,95.712904,-9379.864592
2773.246369,76.570323,76.570323,-9379.864592
2773.246996,114.855485,153.140646,-9360.722011
2773.247624,133.998066,153.140646,-9418.149754
2773.248251,133.998066,172.283227,-9399.007173
2773.248879,76.570323,191.425808,-9418.149754
2773.249506,95.712904,114.855485,-9418.149754
2773.250133,76.570323,114.855485,-9418.149754
2773.250761,76.570323,114.855485,-9418.149754
2773.251388,114.855485,133.998066,-9360.722011
2773.252015,76.570323,191.425808,-9418.149754
2773.252643,76.570323,114.855485,-9418.149754
2773.253270,76.570323,114.855485,-9456.434915
2773.253898,95.712904,133.998066,-9360.722011
2773.254525,38.285162,114.855485,-9418.149754
2773.255152,76.570323,153.140646,-9418.149754
2773.255780,38.285162,114.855485,-9418.149754
2773.256407,38.285162,153.140646,-9418.149754
2773.257034,76.570323,114.855485,-9437.292334
2773.257662,95.712904,133.998066,-9360.722011
2773.258289,76.570323,133.998066,-9379.864592
2773.258916,76.570323,172.283227,-9418.149754
2773.259544,114.855485,95.712904,-9475.577496
2773.260171,114.855485,95.712904,-9399.007173
2773.260799,114.855485,172.283227,-9360.722011
2773.261426,76.570323,114.855485,-9437.292334
2773.262053,76.570323,114.855485,-9456.434915
2773.262681,95.712904,172.283227,-9418.149754
2773.263308,172.283227,172.283227,-9379.864592
2773.263935,76.570323,153.140646,-9418.149754
2773.264563,76.570323,114.855485,-9418.149754
2773.265190,95.712904,95.712904,-9456.434915
2773.265818,114.855485,133.998066,-9360.722011
2773.266445,76.570323,114.855485,-9418.149754
2773.267072,76.570323,153.140646,-9360.722011
2773.267700,114.855485,95.712904,-9399.007173
2773.268327,133.998066,76.570323,-9379.864592
2773.268954,153.140646,133.998066,-9379.864592
2773.269582,76.570323,76.570323,-9379.864592
2773.270209,76.570323,114.855485,-9437.292334
2773.270837,76.570323,133.998066,-9494.720077
2773.271464,153.140646,153.140646,-9437.292334
2773.272091,133.998066,133.998066,-9399.007173
2773.272719,0.000000,76.570323,-9475.577496
2773.273346,76.570323,172.283227,-9437.292334
2773.273973,95.712904,95.712904,-9437.292334
2773.274601,114.855485,95.712904,-9437.292334
2773.275228,95.712904,133.998066,-9360.722011
2773.275856,95.712904,133.998066,-9418.149754
2773.276483,95.712904,153.140646,-9360.722011
2773.277110,76.570323,133.998066,-9360.722011
2773.277738,95.712904,133.998066,-9360.722011
2773.278365,38.285162,114.855485,-9437.292334
2773.278992,76.570323,114.855485,-9418.149754
2773.279620,114.855485,114.855485,-9379.864592
2773.280247,76.570323,114.855485,-9418.149754
2773.280875,76.570323,114.855485,-9418.149754
2773.281502,172.283227,76.570323,-9418.149754
2773.282129,114.855485,95.712904,-9399.007173
2773.282757,133.998066,210.568389,-9418.149754
2773.283384,76.570323,114.855485,-9418.149754
2773.284011,133.998066,153.140646,-9418.149754
2773.284639,114.855485,114.855485,-9399.007173
2773.285266,76.570323,114.855485,-9418.149754
2773.285893,114.855485,191.425808,-9418.149754
2773.286521,133.998066,114.855485,-9418.149754
2773.287148,114.855485,133.998066,-9360.722011
2773.287776,38.285162,153.140646,-9418.149754
2773.288403,133.998066,133.998066,-9456.434915
2773.289030,76.570323,114.855485,-9437.292334
2773.289658,95.712904,133.998066,-9360.722011
2773.290285,38.285162,114.855485,-9418.149754
2773.290912,133.998066,114.855485,-9418.149754
2773.291540,95.712904,114.855485,-9418.149754
2773.292167,95.712904,95.712904,-9456.434915
2773.292795,76.570323,114.855485,-9494.720077
2773.293422,153.140646,133.998066,-9399.007173
2773.294049,76.570323,114.855485,-9418.149754
2773.294677,76.570323,114.855485,-9418.149754
2773.295304,95.712904,114.855485,-9418.149754
2773.295931,57.427742,95.712904,-9399.007173
2773.296559,95.712904,191.425808,-9360.722011
2773.297186,76.570323,172.283227,-9418.149754
2773.297814,133.998066,153.140646,-9399.007173
2773.298441,133.998066,153.140646,-9418.149754
2773.299068,76.570323,114.855485,-9418.149754
2773.299696,95.712904,133.998066,-9360.722011
2773.300323,38.285162,114.855485,-9360.722011
2773.300950,76.570323,172.283227,-9437.292334
2773.301578,95.712904,172.283227,-9418.149754
2773.302205,133.998066,172.283227,-9456.434915
2773.302833,114.855485,172.283227,-9360.722011
2773.303460,95.712904,95.712904,-9399.007173
2773.304087,95.712904,95.712904,-9399.007173
2773.304715,57.427742,95.712904,-9399.007173
2773.305342,76.570323,114.855485,-9418.149754
2773.305969,76.570323,76.570323,-9379.864592
2773.306597,76.570323,76.570323,-9379.864592
2773.307224,133.998066,114.855485,-9418.149754
2773.307851,57.427742,229.710970,-9418.149754
2773.308479,114.855485,210.568389,-9360.722011
2773.309106,114.855485,248.853550,-9341.579430
2773.309734,153.140646,133.998066,-9399.007173
2773.310361,95.712904,114.855485,-9418.149754
2773.310988,76.570323,133.998066,-9360.722011
2773.311616,38.285162,114.855485,-9418.149754
2773.312243,133.998066,172.283227,-9399.007173
2773.312870,76.570323,210.568389,-9418.149754
2773.313498,133.998066,172.283227,-9418.149754
2773.314125,76.570323,114.855485,-9360.722011
2773.314753,38.285162,114.855485,-9360.722011
2773.315380,95.712904,95.712904,-9456.434915
2773.316007,133.998066,114.855485,-9418.149754
2773.316635,133.998066,114.855485,-9418.149754
2773.317262,114.855485,95.712904,-9399.007173
2773.317889,38.285162,210.568389,-9418.149754
2773.318517,76.570323,114.855485,-9418.149754
2773.319144,38.285162,114.855485,-9418.149754
2773.319772,38.285162,114.855485,-9418.149754
2773.320399,95.712904,172.283227,-9437.292334
2773.321026,57.427742,133.998066,-9360.722011
2773.321654,114.855485,153.140646,-9322.436850
2773.322281,133.998066,114.855485,-9418.149754
2773.322908,114.855485,133.998066,-9322.436850
2773.323536,57.427742,95.712904,-9399.007173
2773.324163,38.285162,76.570323,-9379.864592
2773.324791,95.712904,114.855485,-9418.149754
2773.325418,95.712904,76.570323,-9379.864592
2773.326045,76.570323,114.855485,-9418.149754
2773.326673,38.285162,114.855485,-9437.292334
2773.327300,133.998066,133.998066,-9399.007173
2773.327927,133.998066,172.283227,-9418.149754
2773.328555,76.570323,114.855485,-9418.149754
2773.329182,114.855485,95.712904,-9399.007173
2773.329809,76.570323,114.855485,-9418.149754
2773.330437,76.570323,114.855485,-9418.149754
2773.331064,76.570323,172.283227,-9418.149754
2773.331692,76.570323,210.568389,-9418.149754
2773.332319,76.570323,114.855485,-9418.149754
2773.332946,95.712904,133.998066,-9360.722011
2773.333574,57.427742,114.855485,-9437.292334
2773.334201,95.712904,133.998066,-9360.722011
2773.334828,76.570323,153.140646,-9418.149754
2773.335456,57.427742,95.712904,-9399.007173
2773.336083,38.285162,114.855485,-9418.149754
2773.336711,133.998066,133.998066,-9456.434915
2773.337338,76.570323,153.140646,-9437.292334
2773.337965,133.998066,133.998066,-9399.007173
2773.338593,133.998066,114.855485,-9418.149754
2773.339220,133.998066,114.855485,-9418.149754
2773.339847,76.570323,114.855485,-9418.149754
2773.340475,95.712904,172.283227,-9418.149754
2773.341102,133.998066,95.712904,-9418.149754
2773.341730,76.570323,114.855485,-9418.149754
2773.342357,76.570323,210.568389,-9418.149754
2773.342985,133.998066,133.998066,-9399.007173
2773.343613,76.570323,114.855485,-9418.149754
2773.344240,57.427742,133.998066,-9360.722011
2773.344868,133.998066,76.570323,-9379.864592
2773.345496,76.570323,114.855485,-9360.722011
2773.346123,153.140646,133.998066,-9399.007173
2773.346751,95.712904,95.712904,-9399.007173
2773.347379,133.998066,153.140646,-9418.149754
2773.348006,114.855485,133.998066,-9341.579430
2773.348634,76.570323,114.855485,-9418.149754
2773.349262,38.285162,76.570323,-9341.579430
2773.349889,95.712904,172.283227,-9360.722011
2773.350517,133.998066,153.140646,-9418.149754
2773.351144,76.570323,114.855485,-9418.149754
2773.351772,133.998066,191.425808,-9399.007173
2773.352400,133.998066,133.998066,-9399.007173
2773.353027,57.427742,153.140646,-9360.722011
2773.353655,133.998066,114.855485,-9418.149754
2773.354283,76.570323,114.855485,-9360.722011
2773.354910,38.285162,114.855485,-9475.577496
2773.355538,38.285162,114.855485,-9437.292334
2773.356166,0.000000,133.998066,-9341.579430
2773.356793,95.712904,133.998066,-9360.722011
2773.357421,76.570323,153.140646,-9418.149754
2773.358048,76.570323,153.140646,-9418.149754
2773.358676,172.283227,76.570323,-9418.149754
2773.359304,95.712904,133.998066,-9360.722011
2773.359931,76.570323,172.283227,-9418.149754
2773.360559,57.427742,172.283227,-9360.722011
2773.361187,57.427742,172.283227,-9360.722011
2773.361814,76.570323,153.140646,-9437.292334
2773.362442,76.570323,114.855485,-9418.149754
2773.363070,76.570323,114.855485,-9418.149754
2773.363697,114.855485,133.998066,-9360.722011
2773.364325,19.142581,172.283227,-9418.149754
2773.364952,76.570323,114.855485,-9437.292334
2773.365580,76.570323,172.283227,-9418.149754
2773.366208,114.855485,172.283227,-9360.722011
2773.366835,114.855485,133.998066,-9360.722011
2773.367463,133.998066,153.140646,-9399.007173
2773.368091,76.570323,153.140646,-9418.149754
2773.368718,76.570323,114.855485,-9418.149754
2773.369346,133.998066,114.855485,-9418.149754
2773.369974,38.285162,114.855485,-9456.434915
2773.370601,76.570323,114.855485,-9456.434915
2773.371229,76.570323,114.855485,-9456.434915
2773.371857,95.712904,95.712904,-9399.007173
2773.372484,95.712904,114.855485,-9456.434915
2773.373112,76.570323,114.855485,-9418.149754
2773.373739,95.712904,114.855485,-9418.149754
2773.374367,114.855485,172.283227,-9399.007173
2773.374995,114.855485,95.712904,-9399.007173
2773.375622,153.140646,191.425808,-9399.007173
2773.376250,114.855485,133.998066,-9360.722011
2773.376878,76.570323,172.283227,-9418.149754
2773.377505,95.712904,153.140646,-9360.722011
2773.378133,76.570323,114.855485,-9418.149754
2773.378761,38.285162,114.855485,-9418.149754
2773.379388,95.712904,95.712904,-9399.007173
2773.380016,76.570323,114.855485,-9418.149754
2773.380643,38.285162,114.855485,-9437.292334
2773.381271,38.285162,114.855485,-9418.149754
2773.381899,95.712904,76.570323,-9322.436850
2773.382526,133.998066,153.140646,-9418.149754
2773.383154,76.570323,114.855485,-9418.149754
2773.383782,133.998066,114.855485,-9418.149754
2773.384409,76.570323,114.855485,-9418.149754
2773.385037,153.140646,133.998066,-9399.007173
2773.385665,95.712904,153.140646,-9360.722011
2773.386292,133.998066,172.283227,-9418.149754
2773.386920,95.712904,133.998066,-9418.149754
2773.387548,114.855485,95.712904,-9399.007173
2773.388175,114.855485,133.998066,-9360.722011
2773.388803,133.998066,133.998066,-9379.864592
2773.389430,76.570323,114.855485,-9418.149754
2773.390058,172.283227,133.998066,-9399.007173
2773.390686,133.998066,114.855485,-9418.149754
2773.391313,133.998066,114.855485,-9418.149754
2773.391941,76.570323,114.855485,-9418.149754
2773.392569,95.712904,114.855485,-9456.434915
2773.393196,76.570323,114.855485,-9418.149754
2773.393824,76.570323,191.425808,-9456.434915
2773.394452,133.998066,172.283227,-9418.149754
2773.395079,76.570323,114.855485,-9418.149754
2773.395707,76.570323,172.283227,-9418.149754
2773.396334,57.427742,133.998066,-9360.722011
2773.396962,95.712904,114.855485,-9418.149754
2773.397590,153.140646,133.998066,-9399.007173
2773.398217,76.570323,114.855485,-9360.722011
2773.398845,76.570323,114.855485,-9437.292334
2773.399473,76.570323,114.855485,-9418.149754
2773.400100,38.285162,114.855485,-9418.149754
2773.400728,133.998066,114.855485,-9418.149754
2773.401356,133.998066,153.140646,-9418.149754
2773.401983,114.855485,133.998066,-9360.722011
2773.402611,133.998066,114.855485,-9418.149754
2773.403239,76.570323,172.283227,-9418.149754
2773.403866,133.998066,114.855485,-9456.434915
2773.404494,95.712904,95.712904,-9399.007173
2773.405121,95.712904,133.998066,-9360.722011
2773.405749,95.712904,95.712904,-9399.007173
2773.406377,95.712904,95.712904,-9399.007173
2773.407004,19.142581,114.855485,-9418.149754
2773.407632,114.855485,133.998066,-9360.722011
2773.408260,153.140646,133.998066,-9399.007173
2773.408887,76.570323,133.998066,-9360.722011
2773.409515,76.570323,114.855485,-9418.149754
2773.410143,95.712904,172.283227,-9341.579430
2773.410770,76.570323,210.568389,-9418.149754
2773.411398,95.712904,114.855485,-9456.434915
2773.412025,76.570323,210.568389,-9418.149754
2773.412653,76.570323,114.855485,-9418.149754
2773.413281,133.998066,172.283227,-9418.149754
2773.413908,133.998066,114.855485,-9418.149754
2773.414536,95.712904,114.855485,-9399.007173
2773.415164,95.712904,114.855485,-9418.149754
2773.415791,95.712904,133.998066,-9360.722011
2773.416419,76.570323,114.855485,-9418.149754
2773.417047,133.998066,172.283227,-9418.149754
2773.417674,38.285162,114.855485,-9456.434915
2773.418302,38.285162,210.568389,-9418.149754
2773.418930,133.998066,153.140646,-9418.149754
2773.419557,38.285162,172.283227,-9418.149754
2773.420185,114.855485,172.283227,-9360.722011
2773.420812,76.570323,114.855485,-9437.292334
2773.421440,133.998066,114.855485,-9418.149754
2773.422068,76.570323,114.855485,-9360.722011
2773.422695,76.570323,114.855485,-9360.722011
2773.423323,172.283227,114.855485,-9379.864592
2773.423951,133.998066,114.855485,-9437.292334
2773.424578,76.570323,114.855485,-9418.149754
2773.425206,76.570323,114.855485,-9418.149754
2773.425834,76.570323,114.855485,-9418.149754
2773.426461,95.712904,191.425808,-9360.722011
2773.427089,76.570323,153.140646,-9418.149754
2773.427716,76.570323,153.140646,-9418.149754
2773.428344,76.570323,114.855485,-9418.149754
2773.428972,57.427742,133.998066,-9360.722011
2773.429599,76.570323,114.855485,-9418.149754
2773.430227,133.998066,114.855485,-9418.149754
2773.430855,133.998066,172.283227,-9418.149754
2773.431482,133.998066,114.855485,-9418.149754
2773.432110,76.570323,114.855485,-9456.434915
2773.432738,133.998066,210.568389,-9418.149754
2773.433365,76.570323,114.855485,-9456.434915
2773.433993,76.570323,114.855485,-9418.149754
2773.434621,153.140646,133.998066,-9399.007173
2773.435248,133.998066,114.855485,-9418.149754
2773.435876,76.570323,114.855485,-9418.149754
2773.436503,76.570323,114.855485,-9418.149754
2773.437131,76.570323,114.855485,-9494.720077
2773.437759,153.140646,133.998066,-9399.007173
2773.438386,76.570323,114.855485,-9418.149754
2773.439014,95.712904,95.712904,-9399.007173
2773.439642,38.285162,114.855485,-9418.149754
2773.440269,76.570323,210.568389,-9437.292334
2773.440897,114.855485,95.712904,-9399.007173
2773.441525,76.570323,172.283227,-9418.149754
2773.442152,76.570323,153.140646,-9418.149754
2773.442780,95.712904,210.568389,-9360.722011
2773.443407,95.712904,153.140646,-9360.722011
2773.444035,114.855485,114.855485,-9399.007173
2773.444663,95.712904,133.998066,-9360.722011
2773.445290,114.855485,95.712904,-9399.007173
2773.445918,133.998066,76.570323,-9379.864592
2773.446546,114.855485,133.998066,-9360.722011
2773.447173,133.998066,153.140646,-9437.292334
2773.447801,76.570323,172.283227,-9418.149754
2773.448428,133.998066,114.855485,-9418.149754
2773.449056,76.570323,172.283227,-9418.149754
2773.449684,76.570323,210.568389,-9418.149754
2773.450311,76.570323,114.855485,-9418.149754
2773.450939,114.855485,153.140646,-9360.722011
2773.451567,76.570323,114.855485,-9418.149754
2773.452194,76.570323,114.855485,-9418.149754
2773.452822,95.712904,172.283227,-9360.722011
2773.453450,95.712904,172.283227,-9360.722011
2773.454077,76.570323,172.283227,-9418.149754
2773.454705,133.998066,114.855485,-9418.149754
2773.455332,95.712904,95.712904,-9399.007173
2773.455960,76.570323,57.427742,-9322.436850
2773.456588,57.427742,133.998066,-9360.722011
2773.457215,57.427742,95.712904,-9379.864592
2773.457843,76.570323,76.570323,-9379.864592
2773.458471,114.855485,133.998066,-9360.722011
2773.459098,76.570323,153.140646,-9418.149754
2773.459726,95.712904,95.712904,-9399.007173
2773.460354,95.712904,95.712904,-9437.292334
2773.460981,38.285162,153.140646,-9437.292334
2773.461609,76.570323,153.140646,-9360.722011
2773.462236,133.998066,210.568389,-9360.722011
2773.462864,95.712904,133.998066,-9360.722011
2773.463492,153.140646,95.712904,-9360.722011
2773.464119,38.285162,172.283227,-9418.149754
2773.464747,95.712904,153.140646,-9360.722011
2773.465375,133.998066,153.140646,-9418.149754
2773.466002,133.998066,114.855485,-9418.149754
2773.466630,114.855485,95.712904,-9399.007173
2773.467257,133.998066,210.568389,-9418.149754
2773.467885,76.570323,114.855485,-9399.007173
2773.468513,57.427742,133.998066,-9360.722011
2773.469140,133.998066,114.855485,-9418.149754
2773.469768,114.855485,76.570323,-9418.149754
2773.470396,76.570323,114.855485,-9418.149754
2773.471023,114.855485,95.712904,-9399.007173
2773.471651,38.285162,153.140646,-9418.149754
2773.472279,133.998066,114.855485,-9418.149754
2773.472906,38.285162,76.570323,-9379.864592
2773.473534,38.285162,114.855485,-9360.722011
2773.474161,57.427742,95.712904,-9399.007173
2773.474789,38.285162,114.855485,-9437.292334
2773.475417,76.570323,114.855485,-9418.149754
2773.476044,76.570323,114.855485,-9418.149754
2773.476672,76.570323,114.855485,-9418.149754
2773.477300,133.998066,114.855485,-9418.149754
2773.477927,133.998066,114.855485,-9418.149754
2773.478555,57.427742,191.425808,-9360.722011
2773.479183,95.712904,114.855485,-9418.149754
2773.479810,153.140646,133.998066,-9399.007173
2773.480438,76.570323,114.855485,-9418.149754
2773.481065,114.855485,133.998066,-9360.722011
2773.481693,133.998066,114.855485,-9418.149754
2773.482321,133.998066,114.855485,-9418.149754
2773.482948,76.570323,172.283227,-9418.149754
2773.483576,76.570323,114.855485,-9418.149754
2773.484204,133.998066,172.283227,-9418.149754
2773.484831,95.712904,153.140646,-9360.722011
2773.485459,133.998066,133.998066,-9399.007173
2773.486086,95.712904,133.998066,-9341.579430
2773.486714,114.855485,172.283227,-9360.722011
2773.487342,133.998066,153.140646,-9418.149754
2773.487969,76.570323,133.998066,-9360.722011
2773.488597,95.712904,114.855485,-9418.149754
2773.489225,133.998066,210.568389,-9418.149754
2773.489852,76.570323,153.140646,-9418.149754
2773.490480,76.570323,114.855485,-9418.149754
2773.491108,95.712904,95.712904,-9399.007173
2773.491735,114.855485,133.998066,-9360.722011
2773.492363,133.998066,114.855485,-9418.149754
2773.492990,76.570323,210.568389,-9360.722011
2773.493618,95.712904,133.998066,-9341.579430
2773.494246,133.998066,114.855485,-9418.149754
2773.494873,95.712904,133.998066,-9322.436850
2773.495501,57.427742,133.998066,-9360.722011
2773.496129,76.570323,114.855485,-9418.149754
2773.496756,95.712904,114.855485,-9418.149754
2773.497384,114.855485,172.283227,-9360.722011
2773.498012,76.570323,114.855485,-9418.149754
2773.498639,95.712904,133.998066,-9360.722011
2773.499267,133.998066,153.140646,-9418.149754
2773.499894,95.712904,133.998066,-9322.436850
2773.500522,95.712904,153.140646,-9360.722011
2773.501150,114.855485,191.425808,-9360.722011
2773.501777,153.140646,133.998066,-9437.292334
2773.502405,133.998066,133.998066,-9399.007173
2773.503033,76.570323,114.855485,-9418.149754
2773.503660,133.998066,114.855485,-9418.149754
2773.504288,133.998066,153.140646,-9418.149754
2773.504915,76.570323,114.855485,-9418.149754
2773.505543,76.570323,114.855485,-9456.434915
2773.506171,76.570323,114.855485,-9418.149754
2773.506798,133.998066,210.568389,-9418.149754
2773.507426,153.140646,172.283227,-9360.722011
2773.508054,133.998066,114.855485,-9418.149754
2773.508681,76.570323,76.570323,-9379.864592
2773.509309,76.570323,114.855485,-9418.149754
2773.509937,95.712904,114.855485,-9437.292334
2773.510564,38.285162,114.855485,-9418.149754
2773.511192,153.140646,133.998066,-9399.007173
2773.511819,76.570323,210.568389,-9418.149754
2773.512447,76.570323,210.568389,-9418.149754
2773.513075,133.998066,153.140646,-9418.149754
2773.513702,133.998066,153.140646,-9418.149754
2773.514330,133.998066,172.283227,-9418.149754
2773.514958,38.285162,191.425808,-9418.149754
2773.515585,133.998066,114.855485,-9418.149754
2773.516213,172.283227,114.855485,-9379.864592
2773.516841,76.570323,210.568389,-9418.149754
2773.517468,76.570323,172.283227,-9418.149754
2773.518096,76.570323,248.853550,-9379.864592
2773.518723,133.998066,172.283227,-9418.149754
2773.519351,38.285162,114.855485,-9418.149754
2773.519979,38.285162,114.855485,-9418.149754
2773.520606,114.855485,133.998066,-9360.722011
2773.521234,95.712904,95.712904,-9399.007173
2773.521862,133.998066,114.855485,-9437.292334
2773.522489,133.998066,172.283227,-9418.149754
2773.523117,133.998066,114.855485,-9418.149754
2773.523744,133.998066,114.855485,-9418.149754
2773.524372,76.570323,114.855485,-9418.149754
2773.525000,95.712904,133.998066,-9418.149754
2773.525627,76.570323,114.855485,-9418.149754
2773.526255,114.855485,172.283227,-9360.722011
2773.526883,76.570323,114.855485,-9418.149754
2773.527510,95.712904,133.998066,-9360.722011
2773.528138,133.998066,114.855485,-9418.149754
2773.528766,133.998066,172.283227,-9418.149754
2773.529393,95.712904,95.712904,-9399.007173
2773.530021,76.570323,76.570323,-9399.007173
2773.530648,57.427742,95.712904,-9399.007173
2773.531276,38.285162,114.855485,-9418.149754
2773.531904,133.998066,114.855485,-9418.149754
2773.532531,95.712904,191.425808,-9418.149754
2773.533159,95.712904,172.283227,-9437.292334
2773.533787,95.712904,172.283227,-9456.434915
2773.534414,133.998066,114.855485,-9418.149754
2773.535042,153.140646,114.855485,-9360.722011
2773.535670,95.712904,95.712904,-9399.007173
2773.536297,76.570323,114.855485,-9418.149754
2773.536925,133.998066,133.998066,-9399.007173
2773.537552,76.570323,153.140646,-9418.149754
2773.538180,133.998066,153.140646,-9418.149754
2773.538808,133.998066,153.140646,-9418.149754
2773.539435,38.285162,114.855485,-9437.292334
2773.540063,19.142581,133.998066,-9399.007173
2773.540691,95.712904,153.140646,-9360.722011
2773.541318,76.570323,114.855485,-9418.149754
2773.541946,38.285162,153.140646,-9418.149754
2773.542573,76.570323,210.568389,-9418.149754
2773.543201,76.570323,114.855485,-9418.149754
2773.543829,76.570323,133.998066,-9360.722011
2773.544456,76.570323,229.710970,-9456.434915
2773.545084,114.855485,133.998066,-9360.722011
2773.545712,76.570323,153.140646,-9418.149754
2773.546339,114.855485,133.998066,-9360.722011
2773.546967,153.140646,172.283227,-9399.007173
2773.547595,76.570323,114.855485,-9360.722011
2773.548222,153.140646,76.570323,-9379.864592
2773.548850,95.712904,153.140646,-9322.436850
2773.549477,133.998066,114.855485,-9360.722011
2773.550105,57.427742,191.425808,-9360.722011
2773.550733,38.285162,76.570323,-9379.864592
2773.551360,133.998066,114.855485,-9418.149754
2773.551988,114.855485,95.712904,-9399.007173
2773.552616,76.570323,114.855485,-9418.149754
2773.553243,133.998066,172.283227,-9418.149754
2773.553871,95.712904,95.712904,-9399.007173
2773.554499,76.570323,114.855485,-9418.149754
2773.555127,57.427742,210.568389,-9360.722011
2773.555754,38.285162,114.855485,-9418.149754
2773.556382,57.427742,95.712904,-9437.292334
2773.557010,76.570323,114.855485,-9418.149754
2773.557637,95.712904,95.712904,-9399.007173
2773.558265,133.998066,172.283227,-9418.149754
2773.558893,76.570323,229.710970,-9418.149754
2773.559521,114.855485,133.998066,-9360.722011
2773.560148,76.570323,114.855485,-9418.149754
2773.560776,38.285162,114.855485,-9418.149754
2773.561404,38.285162,172.283227,-9418.149754
2773.562031,38.285162,172.283227,-9418.149754
2773.562659,38.285162,114.855485,-9418.149754
2773.563287,76.570323,114.855485,-9418.149754
2773.563915,95.712904,133.998066,-9360.722011
2773.564542,95.712904,172.283227,-9360.722011
2773.565170,114.855485,114.855485,-9399.007173
2773.565798,133.998066,114.855485,-9418.149754
2773.566425,133.998066,133.998066,-9399.007173
2773.567053,95.712904,172.283227,-9360.722011
2773.567681,133.998066,153.140646,-9418.149754
2773.568309,133.998066,114.855485,-9418.149754
2773.568936,95.712904,95.712904,-9456.434915
2773.569564,133.998066,114.855485,-9418.149754
2773.570192,38.285162,172.283227,-9437.292334
2773.570819,76.570323,153.140646,-9418.149754
2773.571447,76.570323,153.140646,-9418.149754
2773.572075,38.285162,172.283227,-9418.149754
2773.572703,95.712904,133.998066,-9360.722011
2773.573330,57.427742,114.855485,-9494.720077
2773.573958,38.285162,114.855485,-9418.149754
2773.574586,76.570323,114.855485,-9418.149754
2773.575213,114.855485,95.712904,-9399.007173
2773.575841,114.855485,153.140646,-9418.149754
2773.576469,38.285162,114.855485,-9456.434915
2773.577097,95.712904,172.283227,-9418.149754
2773.577724,133.998066,114.855485,-9437.292334
2773.578352,95.712904,114.855485,-9418.149754
2773.578980,133.998066,114.855485,-9418.149754
2773.579607,76.570323,114.855485,-9418.149754
2773.580235,114.855485,172.283227,-9322.436850
2773.580863,57.427742,172.283227,-9418.149754
2773.581491,38.285162,114.855485,-9418.149754
2773.582118,133.998066,76.570323,-9322.436850
2773.582746,95.712904,153.140646,-9360.722011
2773.583374,76.570323,172.283227,-9418.149754
2773.584001,114.855485,172.283227,-9418.149754
2773.584629,153.140646,133.998066,-9399.007173
2773.585257,114.855485,114.855485,-9379.864592
2773.585885,76.570323,172.283227,-9360.722011
2773.586512,114.855485,95.712904,-9399.007173
2773.587140,153.140646,133.998066,-9399.007173
2773.587768,133.998066,153.140646,-9437.292334
2773.588395,133.998066,114.855485,-9437.292334
2773.589023,76.570323,153.140646,-9437.292334
2773.589651,57.427742,95.712904,-9399.007173
2773.590279,133.998066,114.855485,-9418.149754
2773.590906,38.285162,114.855485,-9418.149754
2773.591534,76.570323,114.855485,-9418.149754
2773.592162,76.570323,114.855485,-9418.149754
2773.592789,76.570323,114.855485,-9418.149754
2773.593417,133.998066,114.855485,-9418.149754
2773.594045,133.998066,172.283227,-9418.149754
2773.594673,57.427742,133.998066,-9360.722011
2773.595300,76.570323,153.140646,-9418.149754
2773.595928,57.427742,153.140646,-9360.722011
2773.596556,95.712904,191.425808,-9341.579430
2773.597183,95.712904,133.998066,-9360.722011
2773.597811,76.570323,114.855485,-9418.149754
2773.598439,76.570323,114.855485,-9418.149754
2773.599067,133.998066,114.855485,-9418.149754
2773.599694,76.570323,114.855485,-9418.149754
2773.600322,76.570323,114.855485,-9418.149754
2773.600950,76.570323,114.855485,-9418.149754
2773.601577,38.285162,114.855485,-9475.577496
2773.602205,38.285162,114.855485,-9418.149754
2773.602833,57.427742,191.425808,-9360.722011
2773.603461,114.855485,133.998066,-9360.722011
2773.604088,114.855485,153.140646,-9360.722011
2773.604716,95.712904,95.712904,-9399.007173
2773.605344,38.285162,172.283227,-9418.149754
2773.605971,38.285162,114.855485,-9418.149754
2773.606599,133.998066,210.568389,-9475.577496
2773.607227,95.712904,114.855485,-9399.007173
2773.607855,95.712904,114.855485,-9418.149754
2773.608482,76.570323,114.855485,-9418.149754
2773.609110,57.427742,133.998066,-9360.722011
2773.609738,76.570323,114.855485,-9456.434915
2773.610365,76.570323,172.283227,-9418.149754
2773.610993,57.427742,133.998066,-9322.436850
2773.611621,114.855485,153.140646,-9322.436850
2773.612249,153.140646,191.425808,-9399.007173
2773.612876,95.712904,95.712904,-9399.007173
2773.613504,76.570323,172.283227,-9456.434915
2773.614132,76.570323,153.140646,-9456.434915
2773.614759,133.998066,133.998066,-9437.292334
2773.615387,153.140646,133.998066,-9399.007173
2773.616015,95.712904,133.998066,-9360.722011
2773.616643,38.285162,114.855485,-9418.149754
2773.617270,133.998066,172.283227,-9418.149754
2773.617898,76.570323,153.140646,-9360.722011
2773.618526,153.140646,172.283227,-9418.149754
2773.619153,76.570323,153.140646,-9360.722011
2773.619781,95.712904,153.140646,-9418.149754
2773.620409,95.712904,153.140646,-9418.149754
2773.621037,76.570323,210.568389,-9418.149754
2773.621664,95.712904,172.283227,-9303.294269
2773.622292,95.712904,95.712904,-9399.007173
2773.622920,76.570323,114.855485,-9418.149754
2773.623547,133.998066,114.855485,-9418.149754
2773.624175,95.712904,114.855485,-9418.149754
2773.624803,133.998066,229.710970,-9418.149754
2773.625431,76.570323,114.855485,-9418.149754
2773.626058,95.712904,210.568389,-9418.149754
2773.626686,38.285162,114.855485,-9475.577496
2773.627314,76.570323,114.855485,-9418.149754
2773.627941,133.998066,114.855485,-9418.149754
2773.628569,114.855485,153.140646,-9360.722011
2773.629197,114.855485,133.998066,-9322.436850
2773.629825,76.570323,114.855485,-9418.149754
2773.630452,95.712904,133.998066,-9360.722011
2773.631080,38.285162,114.855485,-9418.149754
2773.631708,76.570323,76.570323,-9399.007173
2773.632335,133.998066,114.855485,-9418.149754
2773.632963,133.998066,153.140646,-9456.434915
2773.633591,38.285162,114.855485,-9418.149754
2773.634219,210.568389,153.140646,-9399.007173
2773.634846,114.855485,172.283227,-9360.722011
2773.635474,133.998066,114.855485,-9418.149754
2773.636102,38.285162,114.855485,-9418.149754
2773.636729,76.570323,210.568389,-9456.434915
2773.637357,76.570323,114.855485,-9418.149754
2773.637985,153.140646,172.283227,-9399.007173
2773.638613,133.998066,153.140646,-9399.007173
2773.639240,114.855485,153.140646,-9418.149754
2773.639868,76.570323,153.140646,-9418.149754
2773.640496,76.570323,114.855485,-9418.149754
2773.641123,76.570323,114.855485,-9418.149754
2773.641751,133.998066,114.855485,-9418.149754
2773.642379,133.998066,114.855485,-9418.149754
2773.643007,133.998066,172.283227,-9418.149754
2773.643634,76.570323,114.855485,-9418.149754
2773.644262,133.998066,172.283227,-9418.149754
2773.644890,114.855485,153.140646,-9360.722011
2773.645518,38.285162,229.710970,-9418.149754
2773.646145,76.570323,210.568389,-9418.149754
2773.646773,38.285162,172.283227,-9418.149754
2773.647401,133.998066,172.283227,-9399.007173
2773.648028,76.570323,153.140646,-9418.149754
2773.648656,95.712904,153.140646,-9418.149754
2773.649284,95.712904,153.140646,-9360.722011
2773.649912,95.712904,133.998066,-9360.722011
2773.650539,95.712904,172.283227,-9360.722011
2773.651167,133.998066,210.568389,-9456.434915
2773.651795,76.570323,114.855485,-9418.149754
2773.652423,114.855485,95.712904,-9399.007173
2773.653050,133.998066,114.855485,-9418.149754
2773.653678,133.998066,114.855485,-9418.149754
2773.654306,133.998066,114.855485,-9418.149754
2773.654934,133.998066,114.855485,-9418.149754
2773.655561,38.285162,114.855485,-9418.149754
2773.656189,76.570323,76.570323,-9379.864592
2773.656817,114.855485,95.712904,-9399.007173
2773.657445,114.855485,133.998066,-9360.722011
2773.658072,76.570323,114.855485,-9437.292334
2773.658700,133.998066,133.998066,-9399.007173
2773.659328,57.427742,153.140646,-9360.722011
2773.659956,76.570323,172.283227,-9418.149754
2773.660583,76.570323,114.855485,-9418.149754
2773.661211,57.427742,133.998066,-9360.722011
2773.661839,76.570323,114.855485,-9418.149754
2773.662467,133.998066,153.140646,-9418.149754
2773.663094,114.855485,191.425808,-9379.864592
2773.663722,19.142581,76.570323,-9379.864592
2773.664350,76.570323,114.855485,-9418.149754
2773.664978,76.570323,172.283227,-9418.149754
2773.665605,133.998066,172.283227,-9418.149754
2773.666233,76.570323,114.855485,-9360.722011
2773.666861,76.570323,114.855485,-9418.149754
2773.667489,133.998066,191.425808,-9418.149754
2773.668116,114.855485,191.425808,-9360.722011
2773.668744,133.998066,133.998066,-9399.007173
2773.669372,133.998066,114.855485,-9418.149754
2773.669999,76.570323,114.855485,-9418.149754
2773.670627,38.285162,114.855485,-9418.149754
2773.671255,76.570323,172.283227,-9418.149754
2773.671883,76.570323,153.140646,-9418.149754
2773.672510,114.855485,210.568389,-9360.722011
2773.673138,133.998066,114.855485,-9418.149754
2773.673766,76.570323,172.283227,-9418.149754
2773.674394,38.285162,114.855485,-9418.149754
2773.675021,76.570323,153.140646,-9418.149754
2773.675649,95.712904,133.998066,-9360.722011
2773.676277,76.570323,114.855485,-9418.149754
2773.676905,133.998066,133.998066,-9399.007173
2773.677532,38.285162,210.568389,-9418.149754
2773.678160,38.285162,114.855485,-9418.149754
2773.678788,57.427742,95.712904,-9399.007173
2773.679416,38.285162,153.140646,-9418.149754
2773.680043,95.712904,133.998066,-9360.722011
2773.680671,172.283227,114.855485,-9379.864592
2773.681299,114.855485,95.712904,-9399.007173
2773.681927,76.570323,172.283227,-9418.149754
2773.682554,57.427742,114.855485,-9418.149754
2773.683182,114.855485,153.140646,-9360.722011
2773.683810,76.570323,114.855485,-9456.434915
2773.684438,153.140646,133.998066,-9399.007173
2773.685065,76.570323,76.570323,-9379.864592
2773.685693,133.998066,114.855485,-9418.149754
2773.686321,114.855485,95.712904,-9399.007173
2773.686949,95.712904,114.855485,-9418.149754
2773.687576,191.425808,114.855485,-9379.864592
2773.688204,133.998066,114.855485,-9418.149754
2773.688832,76.570323,114.855485,-9418.149754
2773.689460,95.712904,133.998066,-9360.722011
2773.690087,38.285162,114.855485,-9418.149754
2773.690715,38.285162,114.855485,-9418.149754
2773.691343,95.712904,153.140646,-9341.579430
2773.691970,95.712904,153.140646,-9360.722011
2773.692598,38.285162,114.855485,-9418.149754
2773.693226,133.998066,153.140646,-9418.149754
2773.693854,153.140646,133.998066,-9399.007173
2773.694481,114.855485,133.998066,-9341.579430
2773.695109,76.570323,114.855485,-9418.149754
2773.695737,76.570323,172.283227,-9418.149754
2773.696365,76.570323,114.855485,-9418.149754
2773.696992,38.285162,114.855485,-9418.149754
2773.697620,133.998066,153.140646,-9418.149754
