#time,accel_x,accel_y,accel_z
2683.552501,95.712904,95.712904,-9399.007173
2683.553129,133.998066,133.998066,-9399.007173
2683.553758,133.998066,114.855485,-9418.149754
2683.554386,133.998066,114.855485,-9418.149754
2683.555014,76.570323,114.855485,-9418.149754
2683.555642,191.425808,172.283227,-9379.864592
2683.556270,133.998066,153.140646,-9418.149754
2683.556898,114.855485,76.570323,-9418.149754
2683.557526,133.998066,114.855485,-9418.149754
2683.558154,38.285162,114.855485,-9418.149754
2683.558782,76.570323,114.855485,-9418.149754
2683.559411,76.570323,114.855485,-9456.434915
2683.560039,76.570323,114.855485,-9418.149754
2683.560667,57.427742,95.712904,-9399.007173
2683.561295,95.712904,210.568389,-9360.722011
2683.561923,76.570323,114.855485,-9437.292334
2683.562551,76.570323,114.855485,-9418.149754
2683.563179,133.998066,114.855485,-9418.149754
2683.563807,153.140646,133.998066,-9399.007173
2683.564435,133.998066,172.283227,-9418.149754
2683.565064,133.998066,153.140646,-9418.149754
2683.565692,153.140646,133.998066,-9399.007173
2683.566320,76.570323,114.855485,-9418.149754
2683.566948,76.570323,114.855485,-9418.149754
2683.567576,114.855485,172.283227,-9360.722011
2683.568204,133.998066,172.283227,-9360.722011
2683.568832,114.855485,191.425808,-9360.722011
2683.569460,76.570323,229.710970,-9418.149754
2683.570088,133.998066,210.568389,-9418.149754
2683.570717,76.570323,172.283227,-9418.149754
2683.571345,76.570323,114.855485,-9437.292334
2683.571973,133.998066,114.855485,-9437.292334
2683.572601,76.570323,114.855485,-9418.149754
2683.573229,38.285162,114.855485,-9437.292334
2683.573857,57.427742,114.855485,-9418.149754
2683.574485,19.142581,133.998066,-9399.007173
2683.575113,153.140646,114.855485,-9456.434915
2683.575742,133.998066,210.568389,-9418.149754
2683.576370,76.570323,153.140646,-9418.149754
2683.576998,153.140646,133.998066,-9399.007173
2683.577626,76.570323,172.283227,-9437.292334
2683.578254,38.285162,114.855485,-9418.149754
2683.578882,95.712904,114.855485,-9418.149754
2683.579510,133.998066,114.855485,-9456.434915
2683.580138,95.712904,153.140646,-9418.149754
2683.580766,172.283227,76.570323,-9360.722011
2683.581395,114.855485,114.855485,-9399.007173
2683.582023,133.998066,114.855485,-9418.149754
2683.582651,76.570323,172.283227,-9418.149754
2683.583279,38.285162,172.283227,-9418.149754
2683.583907,38.285162,114.855485,-9399.007173
2683.584535,76.570323,114.855485,-9437.292334
2683.585163,172.283227,76.570323,-9437.292334
2683.585791,57.427742,114.855485,-9418.149754
2683.586419,38.285162,114.855485,-9418.149754
2683.587048,57.427742,191.425808,-9360.722011
2683.587676,95.712904,114.855485,-9418.149754
2683.588304,76.570323,210.568389,-9418.149754
2683.588932,95.712904,133.998066,-9360.722011
2683.589560,95.712904,133.998066,-9322.436850
2683.590188,38.285162,153.140646,-9456.434915
2683.590816,95.712904,191.425808,-9360.722011
2683.591444,133.998066,191.425808,-9456.434915
2683.592072,95.712904,133.998066,-9360.722011
2683.592701,76.570323,153.140646,-9418.149754
2683.593329,38.285162,114.855485,-9418.149754
2683.593957,95.712904,95.712904,-9399.007173
2683.594585,133.998066,153.140646,-9456.434915
2683.595213,133.998066,210.568389,-9418.149754
2683.595841,76.570323,114.855485,-9418.149754
2683.596469,76.570323,114.855485,-9418.149754
2683.597097,38.285162,210.568389,-9437.292334
2683.597725,133.998066,114.855485,-9418.149754
2683.598354,76.570323,95.712904,-9399.007173
2683.598982,114.855485,153.140646,-9360.722011
2683.599610,76.570323,114.855485,-9418.149754
2683.600238,95.712904,191.425808,-9360.722011
2683.600866,95.712904,114.855485,-9418.149754
2683.601494,76.570323,153.140646,-9418.149754
2683.602122,76.570323,114.855485,-9418.149754
2683.602750,133.998066,114.855485,-9418.149754
2683.603378,133.998066,133.998066,-9399.007173
2683.604007,57.427742,95.712904,-9399.007173
2683.604635,76.570323,153.140646,-9418.149754
2683.605263,76.570323,76.570323,-9322.436850
2683.605891,38.285162,172.283227,-9418.149754
2683.606519,76.570323,153.140646,-9418.149754
2683.607147,38.285162,172.283227,-9437.292334
2683.607775,38.285162,153.140646,-9418.149754
2683.608403,57.427742,114.855485,-9437.292334
2683.609031,19.142581,210.568389,-9437.292334
2683.609660,95.712904,210.568389,-9418.149754
2683.610288,95.712904,133.998066,-9360.722011
2683.610916,114.855485,153.140646,-9360.722011
2683.611544,114.855485,172.283227,-9418.149754
2683.612172,133.998066,114.855485,-9418.149754
2683.612801,114.855485,133.998066,-9360.722011
2683.613429,76.570323,210.568389,-9418.149754
2683.614057,76.570323,153.140646,-9418.149754
2683.614685,133.998066,114.855485,-9360.722011
2683.615313,76.570323,172.283227,-9418.149754
2683.615942,133.998066,133.998066,-9379.864592
2683.616570,133.998066,114.855485,-9437.292334
2683.617198,95.712904,114.855485,-9418.149754
2683.617826,114.855485,172.283227,-9360.722011
2683.618455,172.283227,114.855485,-9379.864592
2683.619083,76.570323,114.855485,-9360.722011
2683.619711,38.285162,210.568389,-9360.722011
2683.620339,76.570323,114.855485,-9418.149754
2683.620967,133.998066,95.712904,-9360.722011
2683.621596,133.998066,210.568389,-9418.149754
2683.622224,57.427742,133.998066,-9360.722011
2683.622852,153.140646,133.998066,-9399.007173
2683.623480,114.855485,210.568389,-9379.864592
2683.624108,133.998066,114.855485,-9418.149754
2683.624737,76.570323,153.140646,-9360.722011
2683.625365,76.570323,191.425808,-9418.149754
2683.625993,38.285162,172.283227,-9418.149754
2683.626621,95.712904,172.283227,-9360.722011
2683.627250,133.998066,114.855485,-9418.149754
2683.627878,95.712904,114.855485,-9418.149754
2683.628506,95.712904,153.140646,-9360.722011
2683.629134,95.712904,133.998066,-9360.722011
2683.629762,133.998066,172.283227,-9418.149754
2683.630391,76.570323,153.140646,-9418.149754
2683.631019,95.712904,133.998066,-9418.149754
2683.631647,114.855485,95.712904,-9399.007173
2683.632275,95.712904,153.140646,-9360.722011
2683.632903,95.712904,191.425808,-9360.722011
2683.633532,153.140646,172.283227,-9379.864592
2683.634160,133.998066,114.855485,-9418.149754
2683.634788,114.855485,95.712904,-9399.007173
2683.635416,133.998066,133.998066,-9399.007173
2683.636045,133.998066,114.855485,-9418.149754
2683.636673,133.998066,114.855485,-9418.149754
2683.637301,38.285162,172.283227,-9418.149754
2683.637929,76.570323,114.855485,-9418.149754
2683.638557,76.570323,114.855485,-9418.149754
2683.639186,95.712904,133.998066,-9360.722011
2683.639814,95.712904,114.855485,-9418.149754
2683.640442,76.570323,114.855485,-9418.149754
2683.641070,57.427742,133.998066,-9360.722011
2683.641698,76.570323,114.855485,-9418.149754
2683.642327,57.427742,114.855485,-9399.007173
2683.642955,133.998066,210.568389,-9360.722011
2683.643583,95.712904,172.283227,-9418.149754
2683.644211,76.570323,114.855485,-9418.149754
2683.644840,57.427742,133.998066,-9360.722011
2683.645468,38.285162,133.998066,-9379.864592
2683.646096,114.855485,133.998066,-9322.436850
2683.646724,172.283227,210.568389,-9322.436850
2683.647352,95.712904,172.283227,-9360.722011
2683.647981,114.855485,133.998066,-9341.579430
2683.648609,153.140646,133.998066,-9399.007173
2683.649237,76.570323,153.140646,-9437.292334
2683.649865,133.998066,172.283227,-9456.434915
2683.650493,38.285162,114.855485,-9418.149754
2683.651122,76.570323,153.140646,-9418.149754
2683.651750,95.712904,95.712904,-9399.007173
2683.652378,76.570323,153.140646,-9418.149754
2683.653006,38.285162,153.140646,-9418.149754
2683.653635,76.570323,114.855485,-9418.149754
2683.654263,76.570323,153.140646,-9456.434915
2683.654891,133.998066,114.855485,-9437.292334
2683.655519,76.570323,114.855485,-9418.149754
2683.656147,38.285162,76.570323,-9322.436850
2683.656776,95.712904,172.283227,-9341.579430
2683.657404,76.570323,114.855485,-9418.149754
2683.658032,133.998066,114.855485,-9418.149754
2683.658660,76.570323,114.855485,-9418.149754
2683.659288,133.998066,172.283227,-9418.149754
2683.659917,133.998066,114.855485,-9418.149754
2683.660545,76.570323,153.140646,-9418.149754
2683.661173,133.998066,191.425808,-9418.149754
2683.661801,95.712904,172.283227,-9360.722011
2683.662430,95.712904,172.283227,-9399.007173
2683.663058,95.712904,153.140646,-9360.722011
2683.663686,38.285162,114.855485,-9418.149754
2683.664314,114.855485,95.712904,-9399.007173
2683.664942,210.568389,133.998066,-9399.007173
2683.665571,95.712904,210.568389,-9399.007173
2683.666199,76.570323,114.855485,-9418.149754
2683.666827,38.285162,114.855485,-9418.149754
2683.667455,133.998066,114.855485,-9418.149754
2683.668083,76.570323,229.710970,-9418.149754
2683.668712,76.570323,133.998066,-9360.722011
2683.669340,133.998066,114.855485,-9418.149754
2683.669968,114.855485,153.140646,-9360.722011
2683.670596,133.998066,172.283227,-9418.149754
2683.671225,76.570323,153.140646,-9418.149754
2683.671853,95.712904,95.712904,-9399.007173
2683.672481,76.570323,114.855485,-9418.149754
2683.673109,133.998066,229.710970,-9418.149754
2683.673737,133.998066,172.283227,-9418.149754
2683.674366,133.998066,172.283227,-9418.149754
2683.674994,38.285162,114.855485,-9418.149754
2683.675622,95.712904,95.712904,-9399.007173
2683.676250,76.570323,114.855485,-9418.149754
2683.676878,133.998066,172.283227,-9418.149754
2683.677507,133.998066,153.140646,-9418.149754
2683.678135,114.855485,133.998066,-9360.722011
2683.678763,57.427742,133.998066,-9360.722011
2683.679391,95.712904,114.855485,-9418.149754
2683.680020,114.855485,133.998066,-9360.722011
2683.680648,114.855485,133.998066,-9360.722011
2683.681276,76.570323,114.855485,-9418.149754
2683.681904,114.855485,191.425808,-9360.722011
2683.682532,76.570323,210.568389,-9418.149754
2683.683161,133.998066,114.855485,-9418.149754
2683.683789,133.998066,153.140646,-9418.149754
2683.684417,153.140646,133.998066,-9437.292334
2683.685045,76.570323,153.140646,-9418.149754
2683.685673,76.570323,172.283227,-9418.149754
2683.686302,133.998066,172.283227,-9418.149754
2683.686930,114.855485,133.998066,-9360.722011
2683.687558,95.712904,133.998066,-9341.579430
2683.688186,76.570323,114.855485,-9418.149754
2683.688815,114.855485,133.998066,-9418.149754
2683.689443,57.427742,95.712904,-9399.007173
2683.690071,76.570323,114.855485,-9418.149754
2683.690699,19.142581,172.283227,-9418.149754
2683.691327,133.998066,133.998066,-9399.007173
2683.691956,38.285162,114.855485,-9418.149754
2683.692584,76.570323,153.140646,-9418.149754
2683.693212,114.855485,133.998066,-9360.722011
2683.693840,95.712904,133.998066,-9360.722011
2683.694468,38.285162,114.855485,-9418.149754
2683.695097,133.998066,153.140646,-9418.149754
2683.695725,133.998066,114.855485,-9418.149754
2683.696353,76.570323,114.855485,-9360.722011
2683.696981,76.570323,114.855485,-9418.149754
2683.697610,76.570323,76.570323,-9322.436850
2683.698238,95.712904,133.998066,-9437.292334
2683.698866,133.998066,114.855485,-9494.720077
2683.699494,38.285162,191.425808,-9418.149754
2683.700122,38.285162,210.568389,-9418.149754
2683.700751,76.570323,172.283227,-9418.149754
2683.701379,95.712904,172.283227,-9418.149754
2683.702007,76.570323,114.855485,-9418.149754
2683.702635,133.998066,114.855485,-9418.149754
2683.703263,76.570323,133.998066,-9418.149754
2683.703892,114.855485,95.712904,-9399.007173
2683.704520,114.855485,76.570323,-9418.149754
2683.705148,76.570323,153.140646,-9418.149754
2683.705776,133.998066,114.855485,-9437.292334
2683.706405,76.570323,114.855485,-9418.149754
2683.707033,95.712904,191.425808,-9360.722011
2683.707661,95.712904,172.283227,-9360.722011
2683.708289,76.570323,153.140646,-9360.722011
2683.708917,57.427742,191.425808,-9360.722011
2683.709546,95.712904,95.712904,-9399.007173
2683.710174,133.998066,172.283227,-9437.292334
2683.710802,76.570323,114.855485,-9418.149754
2683.711429,133.998066,114.855485,-9418.149754
2683.712056,76.570323,76.570323,-9379.864592
2683.712683,95.712904,95.712904,-9399.007173
2683.713310,133.998066,76.570323,-9379.864592
2683.713936,95.712904,114.855485,-9475.577496
2683.714563,76.570323,114.855485,-9418.149754
2683.715190,95.712904,172.283227,-9341.579430
2683.715817,76.570323,114.855485,-9418.149754
2683.716444,76.570323,114.855485,-9418.149754
2683.717071,38.285162,172.283227,-9418.149754
2683.717698,133.998066,210.568389,-9418.149754
2683.718325,57.427742,172.283227,-9418.149754
2683.718952,76.570323,172.283227,-9418.149754
2683.719579,76.570323,172.283227,-9418.149754
2683.720205,95.712904,95.712904,-9399.007173
2683.720832,114.855485,153.140646,-9360.722011
2683.721459,133.998066,172.283227,-9418.149754
2683.722086,114.855485,153.140646,-9360.722011
2683.722713,38.285162,114.855485,-9418.149754
2683.723340,133.998066,133.998066,-9399.007173
2683.723967,76.570323,210.568389,-9418.149754
2683.724594,76.570323,114.855485,-9437.292334
2683.725221,76.570323,153.140646,-9418.149754
2683.725847,172.283227,76.570323,-9456.434915
2683.726474,133.998066,114.855485,-9418.149754
2683.727101,76.570323,114.855485,-9418.149754
2683.727728,38.285162,172.283227,-9418.149754
2683.728355,38.285162,172.283227,-9418.149754
2683.728982,95.712904,210.568389,-9418.149754
2683.729609,57.427742,114.855485,-9418.149754
2683.730236,76.570323,172.283227,-9341.579430
2683.730863,38.285162,153.140646,-9418.149754
2683.731489,76.570323,114.855485,-9418.149754
2683.732116,95.712904,133.998066,-9360.722011
2683.732743,133.998066,133.998066,-9399.007173
2683.733370,133.998066,114.855485,-9437.292334
2683.733997,76.570323,95.712904,-9399.007173
2683.734624,95.712904,114.855485,-9437.292334
2683.735251,133.998066,133.998066,-9399.007173
2683.735878,114.855485,133.998066,-9360.722011
2683.736505,76.570323,153.140646,-9284.151688
2683.737131,95.712904,133.998066,-9322.436850
2683.737758,76.570323,76.570323,-9379.864592
2683.738385,76.570323,114.855485,-9418.149754
2683.739012,95.712904,133.998066,-9360.722011
2683.739639,76.570323,114.855485,-9418.149754
2683.740266,95.712904,133.998066,-9341.579430
2683.740893,76.570323,114.855485,-9418.149754
2683.741520,19.142581,114.855485,-9418.149754
2683.742147,38.285162,114.855485,-9418.149754
2683.742773,76.570323,114.855485,-9360.722011
2683.743400,133.998066,114.855485,-9418.149754
2683.744027,76.570323,114.855485,-9418.149754
2683.744654,95.712904,133.998066,-9418.149754
2683.745281,76.570323,114.855485,-9418.149754
2683.745908,95.712904,133.998066,-9360.722011
2683.746535,76.570323,114.855485,-9418.149754
2683.747162,133.998066,172.283227,-9399.007173
2683.747789,95.712904,191.425808,-9360.722011
2683.748415,95.712904,133.998066,-9360.722011
2683.749042,95.712904,133.998066,-9418.149754
2683.749669,133.998066,114.855485,-9418.149754
2683.750296,133.998066,114.855485,-9360.722011
2683.750923,114.855485,95.712904,-9456.434915
2683.751550,76.570323,172.283227,-9418.149754
2683.752177,95.712904,133.998066,-9360.722011
2683.752804,38.285162,133.998066,-9360.722011
2683.753431,114.855485,153.140646,-9360.722011
2683.754058,133.998066,114.855485,-9418.149754
2683.754684,57.427742,133.998066,-9360.722011
2683.755311,76.570323,114.855485,-9456.434915
2683.755938,38.285162,133.998066,-9360.722011
2683.756565,76.570323,210.568389,-9418.149754
2683.757192,38.285162,114.855485,-9437.292334
2683.757819,76.570323,114.855485,-9418.149754
2683.758446,95.712904,95.712904,-9379.864592
2683.759073,95.712904,133.998066,-9360.722011
2683.759700,38.285162,114.855485,-9418.149754
2683.760326,76.570323,153.140646,-9533.005238
2683.760953,57.427742,172.283227,-9360.722011
2683.761580,133.998066,114.855485,-9418.149754
2683.762207,133.998066,133.998066,-9437.292334
2683.762834,133.998066,172.283227,-9418.149754
2683.763461,76.570323,114.855485,-9418.149754
2683.764088,133.998066,114.855485,-9418.149754
2683.764715,76.570323,114.855485,-9418.149754
2683.765342,76.570323,114.855485,-9437.292334
2683.765968,133.998066,153.140646,-9456.434915
2683.766595,57.427742,153.140646,-9341.579430
2683.767222,38.285162,172.283227,-9418.149754
2683.767849,133.998066,172.283227,-9418.149754
2683.768476,76.570323,153.140646,-9418.149754
2683.769103,95.712904,153.140646,-9418.149754
2683.769730,133.998066,95.712904,-9360.722011
2683.770357,133.998066,114.855485,-9418.149754
2683.770984,133.998066,153.140646,-9418.149754
2683.771610,114.855485,210.568389,-9341.579430
2683.772237,19.142581,153.140646,-9437.292334
2683.772864,38.285162,153.140646,-9418.149754
2683.773491,95.712904,153.140646,-9360.722011
2683.774118,76.570323,114.855485,-9360.722011
2683.774745,76.570323,133.998066,-9322.436850
2683.775372,133.998066,114.855485,-9418.149754
2683.775999,76.570323,114.855485,-9418.149754
2683.776626,114.855485,172.283227,-9360.722011
2683.777252,76.570323,153.140646,-9418.149754
2683.777879,95.712904,133.998066,-9418.149754
2683.778506,114.855485,133.998066,-9360.722011
2683.779133,76.570323,172.283227,-9418.149754
2683.779760,38.285162,114.855485,-9418.149754
2683.780387,76.570323,95.712904,-9399.007173
2683.781014,76.570323,114.855485,-9418.149754
2683.781641,95.712904,114.855485,-9418.149754
2683.782268,133.998066,133.998066,-9399.007173
2683.782894,76.570323,172.283227,-9418.149754
2683.783521,95.712904,114.855485,-9418.149754
2683.784148,95.712904,133.998066,-9360.722011
2683.784775,133.998066,114.855485,-9418.149754
2683.785402,172.283227,76.570323,-9418.149754
2683.786029,76.570323,114.855485,-9418.149754
2683.786656,38.285162,114.855485,-9418.149754
2683.787283,95.712904,191.425808,-9360.722011
2683.787910,172.283227,172.283227,-9379.864592
2683.788537,95.712904,133.998066,-9360.722011
2683.789163,114.855485,114.855485,-9379.864592
2683.789790,133.998066,172.283227,-9418.149754
2683.790417,76.570323,172.283227,-9418.149754
2683.791044,57.427742,133.998066,-9360.722011
2683.791671,57.427742,95.712904,-9399.007173
2683.792298,133.998066,172.283227,-9418.149754
2683.792925,76.570323,114.855485,-9418.149754
2683.793552,95.712904,153.140646,-9360.722011
2683.794179,95.712904,133.998066,-9360.722011
2683.794805,76.570323,153.140646,-9418.149754
2683.795432,95.712904,133.998066,-9360.722011
2683.796059,57.427742,133.998066,-9360.722011
2683.796686,38.285162,114.855485,-9418.149754
2683.797313,95.712904,191.425808,-9360.722011
2683.797940,76.570323,114.855485,-9360.722011
2683.798567,114.855485,95.712904,-9399.007173
2683.799194,133.998066,114.855485,-9418.149754
2683.799821,95.712904,153.140646,-9360.722011
2683.800447,76.570323,172.283227,-9418.149754
2683.801074,76.570323,153.140646,-9360.722011
2683.801701,76.570323,114.855485,-9418.149754
2683.802328,76.570323,114.855485,-9437.292334
2683.802955,76.570323,114.855485,-9456.434915
2683.803582,114.855485,133.998066,-9360.722011
2683.804209,76.570323,114.855485,-9418.149754
2683.804836,95.712904,153.140646,-9360.722011
2683.805463,133.998066,153.140646,-9399.007173
2683.806089,133.998066,172.283227,-9418.149754
2683.806716,95.712904,172.283227,-9360.722011
2683.807343,133.998066,114.855485,-9418.149754
2683.807970,133.998066,114.855485,-9418.149754
2683.808597,114.855485,133.998066,-9360.722011
2683.809224,76.570323,114.855485,-9418.149754
2683.809851,38.285162,153.140646,-9418.149754
2683.810478,76.570323,114.855485,-9418.149754
2683.811105,114.855485,172.283227,-9341.579430
2683.811732,76.570323,172.283227,-9418.149754
2683.812360,95.712904,229.710970,-9418.149754
2683.812987,76.570323,114.855485,-9360.722011
2683.813615,38.285162,114.855485,-9418.149754
2683.814242,133.998066,114.855485,-9360.722011
2683.814869,133.998066,114.855485,-9418.149754
2683.815497,57.427742,153.140646,-9360.722011
2683.816124,133.998066,153.140646,-9418.149754
2683.816752,133.998066,114.855485,-9437.292334
2683.817379,76.570323,172.283227,-9418.149754
2683.818007,95.712904,172.283227,-9418.149754
2683.818634,76.570323,114.855485,-9418.149754
2683.819262,95.712904,114.855485,-9399.007173
2683.819889,76.570323,114.855485,-9437.292334
2683.820517,76.570323,114.855485,-9437.292334
2683.821144,133.998066,114.855485,-9418.149754
2683.821772,76.570323,114.855485,-9418.149754
2683.822399,76.570323,172.283227,-9418.149754
2683.823027,76.570323,153.140646,-9360.722011
2683.823654,133.998066,153.140646,-9399.007173
2683.824282,114.855485,114.855485,-9379.864592
2683.824909,133.998066,133.998066,-9399.007173
2683.825537,76.570323,114.855485,-9418.149754
2683.826164,38.285162,95.712904,-9418.149754
2683.826792,38.285162,114.855485,-9360.722011
2683.827419,76.570323,114.855485,-9418.149754
2683.828047,133.998066,114.855485,-9418.149754
2683.828674,76.570323,114.855485,-9418.149754
2683.829302,95.712904,133.998066,-9360.722011
2683.829929,76.570323,114.855485,-9418.149754
2683.830557,38.285162,114.855485,-9418.149754
2683.831184,76.570323,114.855485,-9360.722011
2683.831811,133.998066,153.140646,-9418.149754
2683.832439,95.712904,95.712904,-9399.007173
2683.833066,133.998066,191.425808,-9418.149754
2683.833694,95.712904,114.855485,-9456.434915
2683.834321,114.855485,133.998066,-9360.722011
2683.834949,133.998066,114.855485,-9418.149754
2683.835576,133.998066,114.855485,-9418.149754
2683.836204,210.568389,153.140646,-9399.007173
2683.836831,153.140646,172.283227,-9456.434915
2683.837459,133.998066,114.855485,-9456.434915
2683.838086,114.855485,133.998066,-9360.722011
2683.838714,76.570323,76.570323,-9379.864592
2683.839341,133.998066,114.855485,-9418.149754
2683.839969,133.998066,133.998066,-9399.007173
2683.840596,57.427742,133.998066,-9360.722011
2683.841224,114.855485,153.140646,-9360.722011
2683.841851,95.712904,153.140646,-9360.722011
2683.842479,57.427742,133.998066,-9360.722011
2683.843106,133.998066,114.855485,-9418.149754
2683.843734,95.712904,133.998066,-9360.722011
2683.844361,76.570323,191.425808,-9437.292334
2683.844989,38.285162,114.855485,-9418.149754
2683.845616,38.285162,114.855485,-9456.434915
2683.846244,95.712904,114.855485,-9418.149754
2683.846871,38.285162,114.855485,-9418.149754
2683.847499,133.998066,114.855485,-9418.149754
2683.848126,133.998066,114.855485,-9418.149754
2683.848753,95.712904,133.998066,-9360.722011
2683.849381,172.283227,114.855485,-9399.007173
2683.850008,38.285162,172.283227,-9418.149754
2683.850636,76.570323,210.568389,-9418.149754
2683.851263,76.570323,133.998066,-9379.864592
2683.851891,95.712904,153.140646,-9418.149754
2683.852518,38.285162,191.425808,-9418.149754
2683.853146,133.998066,114.855485,-9418.149754
2683.853773,76.570323,114.855485,-9418.149754
2683.854401,76.570323,114.855485,-9418.149754
2683.855028,114.855485,95.712904,-9399.007173
2683.855656,95.712904,95.712904,-9437.292334
2683.856283,133.998066,114.855485,-9418.149754
2683.856911,38.285162,172.283227,-9360.722011
2683.857538,133.998066,114.855485,-9418.149754
2683.858166,133.998066,133.998066,-9399.007173
2683.858793,76.570323,133.998066,-9360.722011
2683.859421,133.998066,114.855485,-9418.149754
2683.860048,95.712904,114.855485,-9437.292334
2683.860676,133.998066,114.855485,-9418.149754
2683.861303,114.855485,133.998066,-9360.722011
2683.861931,76.570323,153.140646,-9418.149754
2683.862558,38.285162,114.855485,-9418.149754
2683.863186,95.712904,133.998066,-9360.722011
2683.863813,114.855485,95.712904,-9399.007173
2683.864441,57.427742,153.140646,-9341.579430
2683.865068,57.427742,153.140646,-9360.722011
2683.865696,95.712904,114.855485,-9418.149754
2683.866323,95.712904,114.855485,-9360.722011
2683.866950,76.570323,114.855485,-9418.149754
2683.867578,76.570323,172.283227,-9418.149754
2683.868205,95.712904,133.998066,-9341.579430
2683.868833,95.712904,133.998066,-9341.579430
2683.869460,153.140646,133.998066,-9379.864592
2683.870088,76.570323,114.855485,-9418.149754
2683.870715,57.427742,229.710970,-9399.007173
2683.871343,38.285162,210.568389,-9418.149754
2683.871970,153.140646,114.855485,-9456.434915
2683.872598,153.140646,191.425808,-9399.007173
2683.873225,153.140646,210.568389,-9418.149754
2683.873853,38.285162,114.855485,-9418.149754
2683.874480,114.855485,95.712904,-9456.434915
2683.875108,133.998066,153.140646,-9399.007173
2683.875735,38.285162,114.855485,-9418.149754
2683.876363,57.427742,133.998066,-9360.722011
2683.876990,76.570323,114.855485,-9360.722011
2683.877618,76.570323,114.855485,-9418.149754
2683.878245,133.998066,114.855485,-9418.149754
2683.878873,133.998066,210.568389,-9418.149754
2683.879500,95.712904,191.425808,-9360.722011
2683.880128,133.998066,153.140646,-9418.149754
2683.880755,133.998066,153.140646,-9456.434915
2683.881383,76.570323,210.568389,-9418.149754
2683.882010,95.712904,153.140646,-9360.722011
2683.882638,133.998066,172.283227,-9418.149754
2683.883265,114.855485,133.998066,-9360.722011
2683.883892,133.998066,114.855485,-9418.149754
2683.884520,76.570323,114.855485,-9418.149754
2683.885147,95.712904,114.855485,-9418.149754
2683.885775,76.570323,114.855485,-9418.149754
2683.886402,95.712904,133.998066,-9360.722011
2683.887030,76.570323,114.855485,-9418.149754
2683.887657,76.570323,210.568389,-9418.149754
2683.888285,133.998066,114.855485,-9418.149754
2683.888912,57.427742,133.998066,-9341.579430
2683.889540,95.712904,133.998066,-9360.722011
2683.890167,76.570323,114.855485,-9418.149754
2683.890795,133.998066,114.855485,-9418.149754
2683.891422,95.712904,133.998066,-9360.722011
2683.892050,114.855485,153.140646,-9360.722011
2683.892677,133.998066,153.140646,-9475.577496
2683.893305,95.712904,172.283227,-9418.149754
2683.893932,133.998066,114.855485,-9418.149754
2683.894560,76.570323,153.140646,-9418.149754
2683.895187,76.570323,153.140646,-9418.149754
2683.895815,76.570323,114.855485,-9418.149754
2683.896442,133.998066,114.855485,-9418.149754
2683.897070,95.712904,114.855485,-9418.149754
2683.897697,133.998066,153.140646,-9418.149754
2683.898325,76.570323,210.568389,-9418.149754
2683.898952,95.712904,133.998066,-9418.149754
2683.899580,76.570323,153.140646,-9418.149754
2683.900207,95.712904,210.568389,-9418.149754
2683.900834,76.570323,172.283227,-9418.149754
2683.901462,38.285162,114.855485,-9418.149754
2683.902089,38.285162,114.855485,-9360.722011
2683.902717,76.570323,153.140646,-9418.149754
2683.903344,133.998066,114.855485,-9418.149754
2683.903972,76.570323,153.140646,-9456.434915
2683.904599,57.427742,133.998066,-9360.722011
2683.905227,95.712904,133.998066,-9341.579430
2683.905854,133.998066,153.140646,-9360.722011
2683.906482,76.570323,191.425808,-9437.292334
2683.907109,76.570323,153.140646,-9418.149754
2683.907737,57.427742,95.712904,-9399.007173
2683.908364,76.570323,114.855485,-9437.292334
2683.908992,133.998066,133.998066,-9399.007173
2683.909619,0.000000,133.998066,-9360.722011
2683.910247,95.712904,114.855485,-9418.149754
2683.910874,57.427742,133.998066,-9360.722011
2683.911502,133.998066,133.998066,-9456.434915
2683.912129,133.998066,114.855485,-9437.292334
2683.912757,76.570323,114.855485,-9418.149754
2683.913385,76.570323,114.855485,-9418.149754
2683.914012,133.998066,114.855485,-9456.434915
2683.914640,57.427742,95.712904,-9456.434915
2683.915268,76.570323,172.283227,-9437.292334
2683.915895,38.285162,114.855485,-9418.149754
2683.916523,133.998066,114.855485,-9418.149754
2683.917150,38.285162,133.998066,-9360.722011
2683.917778,95.712904,95.712904,-9399.007173
2683.918406,133.998066,114.855485,-9418.149754
2683.919033,76.570323,114.855485,-9418.149754
2683.919661,95.712904,133.998066,-9360.722011
2683.920289,133.998066,76.570323,-9379.864592
2683.920916,153.140646,114.855485,-9456.434915
2683.921544,95.712904,114.855485,-9399.007173
2683.922172,76.570323,114.855485,-9456.434915
2683.922799,57.427742,133.998066,-9360.722011
2683.923427,76.570323,153.140646,-9379.864592
2683.924054,76.570323,210.568389,-9418.149754
2683.924682,76.570323,114.855485,-9418.149754
2683.925310,153.140646,133.998066,-9399.007173
2683.925937,76.570323,172.283227,-9418.149754
2683.926565,95.712904,114.855485,-9418.149754
2683.927193,76.570323,114.855485,-9418.149754
2683.927820,133.998066,191.425808,-9456.434915
2683.928448,76.570323,153.140646,-9418.149754
2683.929076,76.570323,114.855485,-9494.720077
2683.929703,76.570323,114.855485,-9418.149754
2683.930331,153.140646,133.998066,-9399.007173
2683.930959,76.570323,172.283227,-9418.149754
2683.931586,95.712904,172.283227,-9418.149754
2683.932214,76.570323,153.140646,-9456.434915
2683.932841,76.570323,114.855485,-9475.577496
2683.933469,0.000000,133.998066,-9360.722011
2683.934097,95.712904,114.855485,-9418.149754
2683.934724,114.855485,172.283227,-9341.579430
2683.935352,133.998066,172.283227,-9399.007173
2683.935980,133.998066,114.855485,-9360.722011
2683.936607,114.855485,95.712904,-9399.007173
2683.937235,76.570323,95.712904,-9437.292334
2683.937863,38.285162,114.855485,-9418.149754
2683.938490,76.570323,114.855485,-9418.149754
2683.939118,95.712904,153.140646,-9360.722011
2683.939745,38.285162,172.283227,-9418.149754
2683.940373,76.570323,114.855485,-9418.149754
2683.941001,76.570323,172.283227,-9418.149754
2683.941628,76.570323,133.998066,-9399.007173
2683.942256,76.570323,114.855485,-9437.292334
2683.942884,133.998066,172.283227,-9456.434915
2683.943511,76.570323,210.568389,-9418.149754
2683.944139,76.570323,153.140646,-9418.149754
2683.944767,133.998066,133.998066,-9399.007173
2683.945394,114.855485,133.998066,-9360.722011
2683.946022,76.570323,172.283227,-9418.149754
2683.946649,133.998066,210.568389,-9399.007173
2683.947277,133.998066,133.998066,-9399.007173
2683.947905,133.998066,172.283227,-9456.434915
2683.948532,76.570323,114.855485,-9418.149754
2683.949160,76.570323,210.568389,-9418.149754
2683.949788,38.285162,114.855485,-9418.149754
2683.950415,95.712904,95.712904,-9494.720077
2683.951043,76.570323,114.855485,-9418.149754
2683.951671,95.712904,133.998066,-9360.722011
2683.952298,172.283227,114.855485,-9322.436850
2683.952926,76.570323,114.855485,-9475.577496
2683.953554,95.712904,133.998066,-9360.722011
2683.954181,95.712904,114.855485,-9379.864592
2683.954809,76.570323,114.855485,-9418.149754
2683.955436,76.570323,172.283227,-9418.149754
2683.956064,133.998066,114.855485,-9418.149754
2683.956692,76.570323,114.855485,-9418.149754
2683.957319,38.285162,153.140646,-9437.292334
2683.957947,114.855485,133.998066,-9360.722011
2683.958575,133.998066,114.855485,-9418.149754
2683.959202,133.998066,114.855485,-9418.149754
2683.959830,133.998066,114.855485,-9418.149754
2683.960458,19.142581,114.855485,-9418.149754
2683.961085,57.427742,210.568389,-9418.149754
2683.961713,38.285162,153.140646,-9418.149754
2683.962340,38.285162,172.283227,-9437.292334
2683.962968,76.570323,114.855485,-9418.149754
2683.963596,114.855485,95.712904,-9399.007173
2683.964223,38.285162,172.283227,-9418.149754
2683.964851,95.712904,172.283227,-9360.722011
2683.965479,38.285162,153.140646,-9360.722011
2683.966106,114.855485,153.140646,-9360.722011
2683.966734,76.570323,114.855485,-9418.149754
2683.967362,95.712904,133.998066,-9341.579430
2683.967989,76.570323,114.855485,-9418.149754
2683.968617,76.570323,210.568389,-9360.722011
2683.969244,133.998066,172.283227,-9399.007173
2683.969872,153.140646,191.425808,-9399.007173
2683.970500,133.998066,229.710970,-9418.149754
2683.971127,133.998066,191.425808,-9418.149754
2683.971755,95.712904,95.712904,-9399.007173
2683.972383,133.998066,153.140646,-9418.149754
2683.973010,114.855485,210.568389,-9322.436850
2683.973638,38.285162,153.140646,-9418.149754
2683.974266,95.712904,114.855485,-9418.149754
2683.974893,38.285162,114.855485,-9437.292334
2683.975521,133.998066,114.855485,-9418.149754
2683.976149,114.855485,95.712904,-9437.292334
2683.976776,95.712904,114.855485,-9341.579430
2683.977404,133.998066,114.855485,-9418.149754
2683.978031,95.712904,133.998066,-9360.722011
2683.978659,133.998066,114.855485,-9418.149754
2683.979287,133.998066,114.855485,-9418.149754
2683.979914,95.712904,210.568389,-9418.149754
2683.980542,76.570323,114.855485,-9418.149754
2683.981170,76.570323,210.568389,-9418.149754
2683.981797,114.855485,133.998066,-9360.722011
2683.982425,57.427742,95.712904,-9399.007173
2683.983053,95.712904,95.712904,-9437.292334
2683.983680,95.712904,95.712904,-9399.007173
2683.984308,76.570323,172.283227,-9360.722011
2683.984935,133.998066,114.855485,-9418.149754
2683.985563,114.855485,95.712904,-9379.864592
2683.986191,114.855485,133.998066,-9360.722011
2683.986818,133.998066,153.140646,-9418.149754
2683.987446,76.570323,114.855485,-9418.149754
2683.988074,114.855485,95.712904,-9399.007173
2683.988701,153.140646,153.140646,-9399.007173
2683.989329,133.998066,114.855485,-9418.149754
2683.989957,38.285162,114.855485,-9456.434915
2683.990584,76.570323,114.855485,-9418.149754
2683.991212,76.570323,114.855485,-9418.149754
2683.991840,95.712904,133.998066,-9360.722011
2683.992467,76.570323,114.855485,-9418.149754
2683.993095,76.570323,172.283227,-9418.149754
2683.993722,57.427742,133.998066,-9322.436850
2683.994350,76.570323,114.855485,-9456.434915
2683.994978,153.140646,153.140646,-9456.434915
2683.995605,153.140646,133.998066,-9399.007173
2683.996233,153.140646,133.998066,-9399.007173
2683.996861,153.140646,133.998066,-9379.864592
2683.997488,76.570323,95.712904,-9399.007173
2683.998116,133.998066,95.712904,-9360.722011
2683.998744,133.998066,210.568389,-9418.149754
2683.999371,95.712904,133.998066,-9360.722011
2683.999999,114.855485,153.140646,-9360.722011
2684.000626,172.283227,153.140646,-9379.864592
2684.001254,114.855485,133.998066,-9360.722011
2684.001882,114.855485,153.140646,-9360.722011
2684.002509,38.285162,114.855485,-9418.149754
2684.003137,0.000000,133.998066,-9360.722011
2684.003765,76.570323,191.425808,-9418.149754
2684.004392,95.712904,133.998066,-9360.722011
2684.005020,95.712904,133.998066,-9360.722011
2684.005648,133.998066,114.855485,-9418.149754
2684.006275,114.855485,114.855485,-9418.149754
2684.006903,133.998066,172.283227,-9399.007173
2684.007530,95.712904,114.855485,-9418.149754
2684.008158,76.570323,114.855485,-9437.292334
2684.008786,133.998066,114.855485,-9418.149754
2684.009413,57.427742,153.140646,-9418.149754
2684.010041,57.427742,172.283227,-9360.722011
2684.010669,114.855485,133.998066,-9341.579430
2684.011296,76.570323,172.283227,-9418.149754
2684.011924,95.712904,95.712904,-9379.864592
2684.012551,76.570323,114.855485,-9456.434915
2684.013179,133.998066,114.855485,-9418.149754
2684.013806,76.570323,114.855485,-9418.149754
2684.014434,38.285162,114.855485,-9418.149754
2684.015061,76.570323,210.568389,-9456.434915
2684.015688,114.855485,114.855485,-9399.007173
2684.016316,133.998066,153.140646,-9399.007173
2684.016943,95.712904,95.712904,-9399.007173
2684.017570,76.570323,95.712904,-9379.864592
2684.018198,95.712904,172.283227,-9418.149754
2684.018825,95.712904,172.283227,-9360.722011
2684.019453,133.998066,153.140646,-9418.149754
2684.020080,76.570323,114.855485,-9418.149754
2684.020707,76.570323,210.568389,-9418.149754
2684.021335,114.855485,153.140646,-9360.722011
2684.021962,95.712904,172.283227,-9456.434915
2684.022590,95.712904,114.855485,-9418.149754
2684.023217,133.998066,114.855485,-9418.149754
2684.023844,76.570323,95.712904,-9399.007173
2684.024472,114.855485,133.998066,-9341.579430
2684.025099,114.855485,114.855485,-9341.579430
2684.025727,172.283227,76.570323,-9437.292334
2684.026354,153.140646,133.998066,-9399.007173
2684.026981,114.855485,191.425808,-9360.722011
2684.027609,76.570323,114.855485,-9418.149754
2684.028236,76.570323,114.855485,-9418.149754
2684.028864,76.570323,133.998066,-9418.149754
2684.029491,133.998066,172.283227,-9418.149754
2684.030118,38.285162,114.855485,-9437.292334
2684.030746,76.570323,114.855485,-9418.149754
2684.031373,76.570323,114.855485,-9418.149754
2684.032001,38.285162,114.855485,-9418.149754
2684.032628,95.712904,133.998066,-9341.579430
2684.033255,76.570323,114.855485,-9418.149754
2684.033883,133.998066,76.570323,-9379.864592
2684.034510,133.998066,114.855485,-9418.149754
2684.035137,57.427742,95.712904,-9437.292334
2684.035765,172.283227,76.570323,-9418.149754
2684.036392,133.998066,76.570323,-9379.864592
2684.037020,114.855485,95.712904,-9456.434915
2684.037647,95.712904,95.712904,-9399.007173
2684.038274,95.712904,95.712904,-9399.007173
2684.038902,153.140646,172.283227,-9399.007173
2684.039529,133.998066,210.568389,-9418.149754
2684.040157,95.712904,114.855485,-9418.149754
2684.040784,76.570323,114.855485,-9418.149754
2684.041411,133.998066,114.855485,-9418.149754
2684.042039,153.140646,133.998066,-9399.007173
2684.042666,76.570323,114.855485,-9418.149754
2684.043294,38.285162,114.855485,-9418.149754
2684.043921,114.855485,95.712904,-9494.720077
2684.044548,133.998066,172.283227,-9360.722011
2684.045176,76.570323,114.855485,-9360.722011
2684.045803,38.285162,114.855485,-9437.292334
2684.046431,95.712904,95.712904,-9399.007173
2684.047058,153.140646,133.998066,-9399.007173
2684.047685,76.570323,95.712904,-9399.007173
2684.048313,38.285162,76.570323,-9379.864592
2684.048940,133.998066,191.425808,-9418.149754
2684.049567,133.998066,133.998066,-9399.007173
2684.050195,133.998066,114.855485,-9360.722011
2684.050822,95.712904,133.998066,-9360.722011
2684.051450,133.998066,172.283227,-9437.292334
2684.052077,133.998066,114.855485,-9418.149754
2684.052704,76.570323,114.855485,-9418.149754
2684.053332,38.285162,114.855485,-9437.292334
2684.053959,133.998066,191.425808,-9418.149754
2684.054587,133.998066,153.140646,-9418.149754
2684.055214,38.285162,114.855485,-9418.149754
2684.055841,38.285162,114.855485,-9418.149754
2684.056469,76.570323,153.140646,-9418.149754
2684.057096,133.998066,114.855485,-9360.722011
2684.057724,57.427742,114.855485,-9418.149754
2684.058351,76.570323,229.710970,-9456.434915
2684.058978,133.998066,133.998066,-9399.007173
2684.059606,114.855485,172.283227,-9360.722011
2684.060233,57.427742,191.425808,-9360.722011
2684.060861,133.998066,114.855485,-9418.149754
2684.061488,114.855485,133.998066,-9360.722011
2684.062115,76.570323,153.140646,-9418.149754
2684.062743,38.285162,172.283227,-9418.149754
2684.063370,95.712904,153.140646,-9360.722011
2684.063997,95.712904,191.425808,-9360.722011
2684.064625,133.998066,191.425808,-9418.149754
2684.065252,133.998066,191.425808,-9437.292334
2684.065880,133.998066,114.855485,-9418.149754
2684.066507,210.568389,133.998066,-9399.007173
2684.067134,133.998066,191.425808,-9437.292334
2684.067762,133.998066,114.855485,-9456.434915
2684.068389,133.998066,172.283227,-9418.149754
2684.069017,76.570323,76.570323,-9379.864592
2684.069644,76.570323,153.140646,-9418.149754
2684.070271,76.570323,153.140646,-9418.149754
2684.070899,95.712904,133.998066,-9360.722011
2684.071526,114.855485,95.712904,-9399.007173
2684.072154,76.570323,114.855485,-9418.149754
2684.072781,76.570323,114.855485,-9418.149754
2684.073408,133.998066,114.855485,-9418.149754
2684.074036,133.998066,114.855485,-9418.149754
2684.074663,133.998066,191.425808,-9418.149754
2684.075291,95.712904,191.425808,-9360.722011
2684.075918,95.712904,191.425808,-9360.722011
2684.076545,172.283227,248.853550,-9418.149754
2684.077173,38.285162,210.568389,-9418.149754
2684.077800,95.712904,114.855485,-9399.007173
2684.078428,57.427742,133.998066,-9360.722011
2684.079055,76.570323,114.855485,-9399.007173
2684.079682,76.570323,153.140646,-9418.149754
2684.080310,76.570323,210.568389,-9437.292334
2684.080937,38.285162,114.855485,-9360.722011
2684.081564,0.000000,133.998066,-9341.579430
2684.082192,133.998066,114.855485,-9418.149754
2684.082819,76.570323,76.570323,-9322.436850
2684.083447,133.998066,114.855485,-9418.149754
2684.084074,95.712904,95.712904,-9399.007173
2684.084701,76.570323,133.998066,-9303.294269
2684.085329,38.285162,114.855485,-9418.149754
2684.085956,114.855485,95.712904,-9399.007173
2684.086584,133.998066,133.998066,-9399.007173
2684.087211,133.998066,114.855485,-9418.149754
2684.087838,95.712904,95.712904,-9399.007173
2684.088466,114.855485,172.283227,-9360.722011
2684.089093,153.140646,133.998066,-9399.007173
2684.089721,210.568389,133.998066,-9399.007173
2684.090348,76.570323,153.140646,-9437.292334
2684.090975,76.570323,210.568389,-9418.149754
2684.091603,38.285162,114.855485,-9418.149754
2684.092230,76.570323,114.855485,-9418.149754
2684.092858,95.712904,114.855485,-9418.149754
2684.093485,76.570323,153.140646,-9418.149754
2684.094112,153.140646,133.998066,-9399.007173
2684.094740,57.427742,95.712904,-9437.292334
2684.095367,172.283227,114.855485,-9379.864592
2684.095994,95.712904,114.855485,-9418.149754
2684.096622,191.425808,114.855485,-9379.864592
2684.097249,95.712904,133.998066,-9360.722011
2684.097877,133.998066,172.283227,-9418.149754
2684.098504,76.570323,153.140646,-9418.149754
2684.099131,133.998066,172.283227,-9418.149754
2684.099759,76.570323,114.855485,-9418.149754
2684.100386,38.285162,172.283227,-9418.149754
2684.101014,133.998066,153.140646,-9418.149754
2684.101641,76.570323,210.568389,-9418.149754
2684.102268,114.855485,95.712904,-9399.007173
2684.102896,76.570323,229.710970,-9456.434915
2684.103523,57.427742,153.140646,-9341.579430
2684.104151,76.570323,114.855485,-9418.149754
2684.104778,76.570323,210.568389,-9418.149754
2684.105405,133.998066,114.855485,-9418.149754
2684.106033,76.570323,114.855485,-9418.149754
2684.106660,95.712904,114.855485,-9360.722011
2684.107288,95.712904,133.998066,-9284.151688
2684.107915,114.855485,153.140646,-9284.151688
2684.108542,172.283227,95.712904,-9456.434915
2684.109170,153.140646,133.998066,-9399.007173
2684.109797,76.570323,114.855485,-9418.149754
2684.110425,172.283227,76.570323,-9456.434915
2684.111052,133.998066,172.283227,-9418.149754
2684.111679,76.570323,153.140646,-9360.722011
2684.112307,133.998066,76.570323,-9399.007173
2684.112934,38.285162,114.855485,-9418.149754
2684.113561,76.570323,76.570323,-9379.864592
2684.114188,76.570323,114.855485,-9418.149754
2684.114815,38.285162,114.855485,-9360.722011
2684.115442,76.570323,114.855485,-9418.149754
2684.116069,133.998066,114.855485,-9418.149754
2684.116696,76.570323,210.568389,-9418.149754
2684.117323,57.427742,172.283227,-9418.149754
2684.117949,95.712904,172.283227,-9360.722011
2684.118576,133.998066,114.855485,-9418.149754
2684.119203,133.998066,248.853550,-9399.007173
2684.119830,76.570323,114.855485,-9418.149754
2684.120457,76.570323,153.140646,-9418.149754
2684.121084,114.855485,191.425808,-9341.579430
2684.121711,133.998066,210.568389,-9418.149754
2684.122338,38.285162,210.568389,-9418.149754
2684.122965,153.140646,95.712904,-9360.722011
2684.123592,153.140646,133.998066,-9399.007173
2684.124219,133.998066,114.855485,-9456.434915
2684.124846,95.712904,229.710970,-9418.149754
2684.125473,76.570323,210.568389,-9437.292334
2684.126100,133.998066,76.570323,-9379.864592
2684.126727,153.140646,172.283227,-9399.007173
2684.127354,133.998066,153.140646,-9418.149754
2684.127981,133.998066,133.998066,-9399.007173
2684.128608,76.570323,95.712904,-9399.007173
2684.129235,76.570323,153.140646,-9418.149754
2684.129862,76.570323,114.855485,-9418.149754
2684.130489,172.283227,114.855485,-9379.864592
2684.131116,133.998066,114.855485,-9418.149754
2684.131743,95.712904,95.712904,-9399.007173
2684.132370,76.570323,95.712904,-9379.864592
2684.132997,38.285162,153.140646,-9456.434915
2684.133624,76.570323,172.283227,-9418.149754
2684.134251,76.570323,210.568389,-9418.149754
2684.134878,76.570323,153.140646,-9456.434915
2684.135505,38.285162,172.283227,-9418.149754
2684.136132,133.998066,172.283227,-9418.149754
2684.136759,38.285162,172.283227,-9418.149754
2684.137386,76.570323,114.855485,-9418.149754
2684.138013,114.855485,191.425808,-9360.722011
2684.138640,76.570323,114.855485,-9418.149754
2684.139267,76.570323,153.140646,-9418.149754
2684.139894,76.570323,114.855485,-9418.149754
2684.140521,57.427742,114.855485,-9456.434915
2684.141148,38.285162,114.855485,-9418.149754
2684.141775,114.855485,229.710970,-9379.864592
2684.142402,114.855485,153.140646,-9360.722011
2684.143029,19.142581,210.568389,-9418.149754
2684.143656,76.570323,114.855485,-9418.149754
2684.144283,133.998066,114.855485,-9418.149754
2684.144910,76.570323,153.140646,-9418.149754
2684.145537,76.570323,114.855485,-9418.149754
2684.146164,95.712904,133.998066,-9360.722011
2684.146791,95.712904,133.998066,-9360.722011
2684.147418,76.570323,114.855485,-9418.149754
2684.148045,76.570323,114.855485,-9418.149754
2684.148672,76.570323,114.855485,-9456.434915
2684.149298,38.285162,114.855485,-9418.149754
2684.149925,57.427742,153.140646,-9360.722011
2684.150552,57.427742,133.998066,-9360.722011
2684.151179,38.285162,114.855485,-9418.149754
2684.151806,95.712904,114.855485,-9418.149754
2684.152433,95.712904,153.140646,-9360.722011
2684.153060,76.570323,153.140646,-9418.149754
2684.153687,38.285162,172.283227,-9418.149754
2684.154314,38.285162,114.855485,-9418.149754
2684.154941,76.570323,133.998066,-9360.722011
2684.155568,114.855485,95.712904,-9456.434915
2684.156195,76.570323,114.855485,-9418.149754
2684.156822,76.570323,210.568389,-9418.149754
2684.157449,76.570323,114.855485,-9418.149754
2684.158076,76.570323,114.855485,-9418.149754
2684.158703,95.712904,133.998066,-9360.722011
2684.159330,133.998066,114.855485,-9418.149754
2684.159957,95.712904,133.998066,-9341.579430
2684.160584,133.998066,114.855485,-9418.149754
2684.161211,76.570323,76.570323,-9379.864592
2684.161838,38.285162,76.570323,-9379.864592
2684.162465,95.712904,133.998066,-9360.722011
2684.163092,76.570323,114.855485,-9437.292334
2684.163719,114.855485,95.712904,-9399.007173
2684.164346,153.140646,133.998066,-9399.007173
2684.164973,95.712904,95.712904,-9399.007173
2684.165600,153.140646,133.998066,-9399.007173
2684.166227,133.998066,114.855485,-9360.722011
2684.166854,133.998066,133.998066,-9399.007173
2684.167481,153.140646,133.998066,-9399.007173
2684.168108,133.998066,133.998066,-9322.436850
2684.168735,95.712904,133.998066,-9360.722011
2684.169362,114.855485,114.855485,-9379.864592
2684.169989,95.712904,133.998066,-9360.722011
2684.170616,76.570323,172.283227,-9418.149754
2684.171243,95.712904,76.570323,-9360.722011
2684.171870,114.855485,95.712904,-9399.007173
2684.172497,76.570323,114.855485,-9437.292334
2684.173124,38.285162,114.855485,-9418.149754
2684.173751,133.998066,114.855485,-9418.149754
2684.174378,76.570323,114.855485,-9418.149754
2684.175005,76.570323,114.855485,-9437.292334
2684.175632,133.998066,114.855485,-9360.722011
2684.176259,95.712904,133.998066,-9418.149754
2684.176886,133.998066,114.855485,-9418.149754
2684.177513,76.570323,153.140646,-9418.149754
2684.178140,76.570323,114.855485,-9456.434915
2684.178767,153.140646,172.283227,-9399.007173
2684.179394,76.570323,114.855485,-9418.149754
2684.180020,57.427742,153.140646,-9418.149754
2684.180647,133.998066,210.568389,-9418.149754
2684.181274,133.998066,210.568389,-9418.149754
2684.181901,153.140646,153.140646,-9399.007173
2684.182528,76.570323,133.998066,-9360.722011
2684.183155,57.427742,133.998066,-9360.722011
2684.183782,76.570323,76.570323,-9379.864592
2684.184409,133.998066,133.998066,-9379.864592
2684.185036,114.855485,153.140646,-9360.722011
2684.185663,133.998066,153.140646,-9399.007173
2684.186290,133.998066,153.140646,-9418.149754
2684.186917,57.427742,133.998066,-9341.579430
2684.187544,76.570323,114.855485,-9418.149754
2684.188171,38.285162,153.140646,-9418.149754
2684.188798,38.285162,172.283227,-9418.149754
2684.189425,76.570323,114.855485,-9418.149754
2684.190052,57.427742,133.998066,-9360.722011
2684.190679,76.570323,114.855485,-9418.149754
2684.191306,95.712904,95.712904,-9379.864592
2684.191933,76.570323,114.855485,-9418.149754
2684.192560,38.285162,114.855485,-9418.149754
2684.193187,38.285162,210.568389,-9418.149754
2684.193814,76.570323,114.855485,-9456.434915
2684.194441,76.570323,153.140646,-9418.149754
2684.195068,76.570323,153.140646,-9418.149754
2684.195695,76.570323,114.855485,-9418.149754
2684.196322,38.285162,114.855485,-9418.149754
2684.196949,76.570323,114.855485,-9418.149754
2684.197576,57.427742,95.712904,-9399.007173
2684.198203,133.998066,153.140646,-9456.434915
2684.198830,76.570323,114.855485,-9418.149754
2684.199457,172.283227,76.570323,-9418.149754
2684.200084,95.712904,153.140646,-9360.722011
2684.200711,95.712904,133.998066,-9360.722011
2684.201338,38.285162,153.140646,-9437.292334
2684.201965,95.712904,172.283227,-9456.434915
2684.202592,76.570323,114.855485,-9418.149754
2684.203219,95.712904,133.998066,-9360.722011
2684.203846,133.998066,153.140646,-9456.434915
2684.204473,95.712904,172.283227,-9418.149754
2684.205100,172.283227,95.712904,-9399.007173
2684.205727,76.570323,153.140646,-9418.149754
2684.206354,57.427742,153.140646,-9360.722011
2684.206981,95.712904,133.998066,-9418.149754
2684.207608,133.998066,153.140646,-9418.149754
2684.208235,95.712904,133.998066,-9360.722011
2684.208862,57.427742,133.998066,-9360.722011
2684.209489,76.570323,114.855485,-9418.149754
2684.210116,76.570323,114.855485,-9418.149754
2684.210742,76.570323,172.283227,-9418.149754
2684.211369,95.712904,153.140646,-9360.722011
2684.211996,76.570323,172.283227,-9418.149754
2684.212623,114.855485,133.998066,-9360.722011
2684.213251,133.998066,114.855485,-9418.149754
2684.213878,76.570323,153.140646,-9437.292334
2684.214505,95.712904,191.425808,-9360.722011
2684.215132,38.285162,153.140646,-9418.149754
2684.215760,133.998066,133.998066,-9399.007173
2684.216387,76.570323,114.855485,-9475.577496
2684.217014,133.998066,210.568389,-9418.149754
2684.217641,19.142581,210.568389,-9437.292334
2684.218268,133.998066,114.855485,-9456.434915
2684.218896,95.712904,95.712904,-9456.434915
2684.219523,76.570323,172.283227,-9418.149754
2684.220150,38.285162,172.283227,-9456.434915
2684.220777,153.140646,172.283227,-9399.007173
2684.221405,133.998066,153.140646,-9418.149754
2684.222032,38.285162,114.855485,-9418.149754
2684.222659,133.998066,153.140646,-9418.149754
2684.223286,133.998066,114.855485,-9418.149754
2684.223913,95.712904,191.425808,-9360.722011
2684.224541,57.427742,172.283227,-9341.579430
2684.225168,76.570323,114.855485,-9418.149754
2684.225795,133.998066,114.855485,-9418.149754
2684.226422,133.998066,133.998066,-9399.007173
2684.227050,76.570323,114.855485,-9418.149754
2684.227677,95.712904,153.140646,-9418.149754
2684.228304,57.427742,191.425808,-9322.436850
2684.228931,38.285162,172.283227,-9418.149754
2684.229558,76.570323,153.140646,-9437.292334
2684.230186,76.570323,114.855485,-9418.149754
2684.230813,76.570323,114.855485,-9360.722011
2684.231440,133.998066,153.140646,-9418.149754
2684.232067,76.570323,76.570323,-9379.864592
2684.232695,133.998066,153.140646,-9399.007173
2684.233322,95.712904,114.855485,-9379.864592
2684.233949,38.285162,153.140646,-9418.149754
2684.234576,133.998066,114.855485,-9418.149754
2684.235203,153.140646,114.855485,-9456.434915
2684.235831,133.998066,114.855485,-9418.149754
2684.236458,76.570323,114.855485,-9418.149754
2684.237085,76.570323,114.855485,-9418.149754
2684.237712,133.998066,133.998066,-9399.007173
2684.238340,133.998066,114.855485,-9418.149754
2684.238967,95.712904,133.998066,-9360.722011
2684.239594,114.855485,95.712904,-9399.007173
2684.240221,76.570323,114.855485,-9418.149754
2684.240848,133.998066,210.568389,-9418.149754
2684.241476,95.712904,210.568389,-9379.864592
2684.242103,133.998066,114.855485,-9418.149754
2684.242730,133.998066,172.283227,-9418.149754
2684.243357,57.427742,153.140646,-9341.579430
2684.243985,133.998066,114.855485,-9418.149754
2684.244612,76.570323,114.855485,-9418.149754
2684.245239,133.998066,114.855485,-9418.149754
2684.245866,19.142581,114.855485,-9418.149754
2684.246493,38.285162,114.855485,-9418.149754
2684.247121,38.285162,76.570323,-9379.864592
2684.247748,153.140646,133.998066,-9399.007173
2684.248375,95.712904,133.998066,-9360.722011
2684.249002,76.570323,114.855485,-9418.149754
2684.249630,38.285162,114.855485,-9418.149754
2684.250257,76.570323,114.855485,-9418.149754
2684.250884,76.570323,133.998066,-9360.722011
2684.251511,38.285162,114.855485,-9418.149754
2684.252138,153.140646,133.998066,-9399.007173
2684.252766,133.998066,114.855485,-9418.149754
2684.253393,133.998066,210.568389,-9418.149754
2684.254020,38.285162,153.140646,-9418.149754
2684.254647,57.427742,133.998066,-9360.722011
2684.255275,95.712904,210.568389,-9437.292334
2684.255902,76.570323,153.140646,-9456.434915
2684.256529,95.712904,114.855485,-9399.007173
2684.257156,133.998066,114.855485,-9418.149754
2684.257783,133.998066,114.855485,-9418.149754
2684.258411,133.998066,114.855485,-9418.149754
2684.259038,133.998066,133.998066,-9399.007173
2684.259665,76.570323,114.855485,-9418.149754
2684.260292,57.427742,172.283227,-9360.722011
2684.260920,76.570323,114.855485,-9418.149754
2684.261547,19.142581,114.855485,-9418.149754
2684.262174,95.712904,95.712904,-9437.292334
2684.262801,76.570323,114.855485,-9418.149754
2684.263428,114.855485,153.140646,-9360.722011
2684.264056,133.998066,172.283227,-9418.149754
2684.264683,76.570323,114.855485,-9418.149754
2684.265310,133.998066,153.140646,-9418.149754
2684.265937,114.855485,133.998066,-9360.722011
2684.266565,76.570323,114.855485,-9418.149754
2684.267192,76.570323,76.570323,-9379.864592
2684.267819,133.998066,114.855485,-9418.149754
2684.268446,95.712904,153.140646,-9360.722011
2684.269073,76.570323,114.855485,-9456.434915
2684.269701,133.998066,172.283227,-9456.434915
2684.270328,172.283227,172.283227,-9379.864592
2684.270955,57.427742,133.998066,-9360.722011
2684.271582,76.570323,114.855485,-9418.149754
2684.272210,76.570323,114.855485,-9456.434915
2684.272837,57.427742,95.712904,-9399.007173
2684.273464,76.570323,114.855485,-9418.149754
2684.274091,76.570323,114.855485,-9418.149754
2684.274718,114.855485,95.712904,-9399.007173
2684.275346,38.285162,114.855485,-9418.149754
2684.275973,76.570323,114.855485,-9418.149754
2684.276600,57.427742,95.712904,-9399.007173
2684.277227,133.998066,114.855485,-9418.149754
2684.277855,76.570323,114.855485,-9418.149754
2684.278482,133.998066,210.568389,-9418.149754
2684.279109,133.998066,172.283227,-9418.149754
2684.279736,114.855485,153.140646,-9360.722011
2684.280363,95.712904,133.998066,-9360.722011
2684.280991,114.855485,153.140646,-9360.722011
2684.281618,114.855485,133.998066,-9341.579430
2684.282245,76.570323,114.855485,-9418.149754
2684.282872,133.998066,172.283227,-9418.149754
2684.283500,133.998066,114.855485,-9418.149754
2684.284127,76.570323,114.855485,-9418.149754
2684.284754,133.998066,153.140646,-9456.434915
2684.285381,38.285162,153.140646,-9418.149754
2684.286008,172.283227,172.283227,-9379.864592
2684.286636,95.712904,114.855485,-9437.292334
2684.287263,153.140646,133.998066,-9399.007173
2684.287890,57.427742,95.712904,-9399.007173
2684.288517,76.570323,172.283227,-9418.149754
2684.289145,95.712904,153.140646,-9360.722011
2684.289772,133.998066,114.855485,-9418.149754
2684.290399,133.998066,114.855485,-9418.149754
2684.291026,95.712904,172.283227,-9360.722011
2684.291653,76.570323,172.283227,-9418.149754
2684.292281,133.998066,114.855485,-9418.149754
2684.292908,76.570323,114.855485,-9418.149754
2684.293535,57.427742,114.855485,-9418.149754
2684.294162,133.998066,114.855485,-9418.149754
2684.294790,133.998066,76.570323,-9284.151688
2684.295417,172.283227,114.855485,-9379.864592
2684.296044,76.570323,114.855485,-9418.149754
2684.296671,57.427742,153.140646,-9360.722011
2684.297298,76.570323,114.855485,-9418.149754
2684.297926,76.570323,172.283227,-9418.149754
2684.298553,38.285162,114.855485,-9418.149754
2684.299180,133.998066,133.998066,-9437.292334
2684.299807,133.998066,114.855485,-9437.292334
2684.300435,95.712904,95.712904,-9399.007173
2684.301062,38.285162,210.568389,-9418.149754
2684.301689,76.570323,133.998066,-9379.864592
2684.302316,57.427742,133.998066,-9360.722011
2684.302943,38.285162,114.855485,-9494.720077
2684.303571,133.998066,114.855485,-9418.149754
2684.304198,76.570323,172.283227,-9418.149754
2684.304825,76.570323,114.855485,-9418.149754
2684.305452,95.712904,153.140646,-9360.722011
2684.306080,38.285162,172.283227,-9418.149754
2684.306707,76.570323,114.855485,-9418.149754
2684.307334,38.285162,153.140646,-9418.149754
2684.307961,76.570323,133.998066,-9360.722011
2684.308588,95.712904,133.998066,-9360.722011
2684.309216,38.285162,114.855485,-9418.149754
2684.309843,95.712904,133.998066,-9360.722011
2684.310470,38.285162,210.568389,-9418.149754
2684.311097,95.712904,153.140646,-9418.149754
2684.311725,38.285162,114.855485,-9360.722011
2684.312352,133.998066,114.855485,-9360.722011
2684.312979,133.998066,172.283227,-9399.007173
2684.313606,76.570323,153.140646,-9418.149754
2684.314233,57.427742,133.998066,-9360.722011
2684.314861,133.998066,172.283227,-9418.149754
2684.315488,172.283227,153.140646,-9379.864592
2684.316115,76.570323,133.998066,-9360.722011
2684.316742,57.427742,133.998066,-9360.722011
2684.317369,95.712904,133.998066,-9360.722011
2684.317997,95.712904,248.853550,-9360.722011
2684.318624,38.285162,210.568389,-9418.149754
2684.319251,95.712904,133.998066,-9360.722011
2684.319878,76.570323,114.855485,-9418.149754
2684.320505,95.712904,133.998066,-9360.722011
2684.321133,114.855485,95.712904,-9399.007173
2684.321760,95.712904,133.998066,-9360.722011
2684.322387,76.570323,114.855485,-9418.149754
2684.323014,95.712904,133.998066,-9360.722011
2684.323641,57.427742,153.140646,-9360.722011
2684.324269,38.285162,172.283227,-9418.149754
2684.324896,76.570323,153.140646,-9418.149754
2684.325523,76.570323,114.855485,-9418.149754
2684.326150,95.712904,172.283227,-9399.007173
2684.326777,76.570323,210.568389,-9418.149754
2684.327405,76.570323,114.855485,-9360.722011
2684.328032,95.712904,133.998066,-9360.722011
2684.328659,95.712904,191.425808,-9360.722011
2684.329286,114.855485,133.998066,-9360.722011
2684.329913,76.570323,114.855485,-9418.149754
2684.330541,76.570323,114.855485,-9456.434915
2684.331168,114.855485,133.998066,-9360.722011
2684.331795,133.998066,172.283227,-9418.149754
2684.332422,172.283227,114.855485,-9379.864592
2684.333049,76.570323,210.568389,-9418.149754
2684.333676,114.855485,133.998066,-9360.722011
2684.334304,133.998066,172.283227,-9418.149754
2684.334931,133.998066,114.855485,-9418.149754
2684.335558,133.998066,114.855485,-9418.149754
2684.336185,76.570323,76.570323,-9399.007173
2684.336812,76.570323,172.283227,-9418.149754
2684.337440,95.712904,133.998066,-9360.722011
2684.338067,76.570323,133.998066,-9360.722011
2684.338694,95.712904,114.855485,-9399.007173
2684.339321,76.570323,114.855485,-9418.149754
2684.339948,95.712904,133.998066,-9360.722011
2684.340576,38.285162,114.855485,-9399.007173
2684.341203,38.285162,114.855485,-9418.149754
2684.341830,76.570323,114.855485,-9418.149754
2684.342457,133.998066,114.855485,-9418.149754
2684.343084,95.712904,133.998066,-9360.722011
2684.343712,133.998066,172.283227,-9418.149754
2684.344339,114.855485,172.283227,-9360.722011
2684.344966,133.998066,133.998066,-9399.007173
2684.345593,114.855485,172.283227,-9360.722011
2684.346220,76.570323,114.855485,-9456.434915
2684.346848,95.712904,114.855485,-9418.149754
2684.347475,76.570323,153.140646,-9418.149754
2684.348102,76.570323,172.283227,-9360.722011
2684.348729,153.140646,153.140646,-9379.864592
2684.349356,133.998066,76.570323,-9379.864592
2684.349984,38.285162,76.570323,-9379.864592
2684.350611,76.570323,210.568389,-9360.722011
2684.351238,133.998066,114.855485,-9418.149754
2684.351865,76.570323,114.855485,-9418.149754
2684.352492,76.570323,95.712904,-9418.149754
2684.353120,95.712904,133.998066,-9360.722011
2684.353747,76.570323,114.855485,-9418.149754
2684.354374,114.855485,133.998066,-9360.722011
2684.355001,153.140646,133.998066,-9399.007173
2684.355628,95.712904,114.855485,-9418.149754
2684.356256,76.570323,114.855485,-9418.149754
2684.356883,133.998066,114.855485,-9437.292334
2684.357510,95.712904,133.998066,-9418.149754
2684.358137,38.285162,114.855485,-9418.149754
2684.358764,76.570323,114.855485,-9418.149754
2684.359392,95.712904,210.568389,-9360.722011
2684.360019,57.427742,172.283227,-9360.722011
2684.360646,76.570323,191.425808,-9418.149754
2684.361273,133.998066,210.568389,-9456.434915
2684.361900,76.570323,114.855485,-9418.149754
2684.362528,153.140646,133.998066,-9399.007173
2684.363155,76.570323,210.568389,-9418.149754
2684.363782,76.570323,114.855485,-9418.149754
2684.364409,95.712904,95.712904,-9437.292334
2684.365036,38.285162,114.855485,-9360.722011
2684.365663,38.285162,153.140646,-9418.149754
2684.366291,133.998066,114.855485,-9418.149754
2684.366918,133.998066,172.283227,-9418.149754
2684.367545,172.283227,76.570323,-9418.149754
2684.368172,76.570323,114.855485,-9418.149754
2684.368799,38.285162,114.855485,-9418.149754
2684.369427,133.998066,172.283227,-9418.149754
2684.370054,95.712904,133.998066,-9341.579430
2684.370681,172.283227,114.855485,-9379.864592
2684.371308,76.570323,153.140646,-9475.577496
2684.371935,76.570323,114.855485,-9418.149754
2684.372563,76.570323,172.283227,-9437.292334
2684.373190,38.285162,153.140646,-9418.149754
2684.373817,38.285162,114.855485,-9418.149754
2684.374444,76.570323,172.283227,-9418.149754
2684.375071,38.285162,153.140646,-9418.149754
2684.375699,38.285162,114.855485,-9418.149754
2684.376326,76.570323,153.140646,-9418.149754
2684.376953,133.998066,114.855485,-9456.434915
2684.377580,38.285162,114.855485,-9418.149754
2684.378207,114.855485,133.998066,-9322.436850
2684.378835,114.855485,133.998066,-9360.722011
2684.379462,95.712904,172.283227,-9418.149754
2684.380089,76.570323,191.425808,-9418.149754
2684.380716,114.855485,229.710970,-9379.864592
2684.381343,114.855485,153.140646,-9379.864592
2684.381971,76.570323,210.568389,-9418.149754
2684.382598,95.712904,114.855485,-9418.149754
2684.383225,76.570323,114.855485,-9418.149754
2684.383852,95.712904,95.712904,-9456.434915
2684.384479,133.998066,114.855485,-9418.149754
2684.385107,57.427742,95.712904,-9399.007173
2684.385734,76.570323,114.855485,-9418.149754
2684.386361,133.998066,114.855485,-9360.722011
2684.386988,95.712904,153.140646,-9360.722011
2684.387615,95.712904,133.998066,-9360.722011
2684.388243,133.998066,172.283227,-9418.149754
2684.388870,133.998066,172.283227,-9360.722011
2684.389497,114.855485,210.568389,-9379.864592
2684.390124,95.712904,153.140646,-9360.722011
2684.390751,153.140646,172.283227,-9418.149754
2684.391379,95.712904,133.998066,-9360.722011
2684.392006,76.570323,153.140646,-9437.292334
2684.392633,38.285162,114.855485,-9418.149754
2684.393260,76.570323,76.570323,-9379.864592
2684.393887,153.140646,133.998066,-9399.007173
2684.394515,57.427742,114.855485,-9399.007173
2684.395142,133.998066,172.283227,-9360.722011
2684.395769,133.998066,133.998066,-9399.007173
2684.396396,133.998066,172.283227,-9418.149754
2684.397023,95.712904,210.568389,-9360.722011
2684.397650,133.998066,114.855485,-9437.292334
2684.398278,76.570323,95.712904,-9437.292334
2684.398905,76.570323,172.283227,-9418.149754
2684.399532,114.855485,133.998066,-9360.722011
2684.400159,153.140646,133.998066,-9399.007173
2684.400786,133.998066,114.855485,-9360.722011
2684.401414,38.285162,172.283227,-9418.149754
2684.402041,57.427742,133.998066,-9360.722011
2684.402668,133.998066,114.855485,-9418.149754
2684.403295,95.712904,172.283227,-9360.722011
2684.403922,133.998066,114.855485,-9418.149754
2684.404550,95.712904,95.712904,-9379.864592
2684.405177,38.285162,153.140646,-9418.149754
2684.405804,57.427742,114.855485,-9437.292334
2684.406431,38.285162,114.855485,-9418.149754
2684.407058,133.998066,114.855485,-9418.149754
2684.407686,114.855485,133.998066,-9341.579430
2684.408313,133.998066,172.283227,-9399.007173
2684.408940,95.712904,133.998066,-9322.436850
2684.409567,133.998066,114.855485,-9418.149754
2684.410194,76.570323,114.855485,-9418.149754
2684.410822,133.998066,114.855485,-9418.149754
2684.411449,76.570323,114.855485,-9360.722011
2684.412076,95.712904,191.425808,-9360.722011
2684.412703,76.570323,114.855485,-9418.149754
2684.413330,76.570323,114.855485,-9418.149754
2684.413958,95.712904,114.855485,-9418.149754
2684.414585,76.570323,114.855485,-9456.434915
2684.415212,133.998066,114.855485,-9418.149754
2684.415839,114.855485,133.998066,-9341.579430
2684.416466,153.140646,133.998066,-9399.007173
2684.417093,38.285162,172.283227,-9418.149754
2684.417720,76.570323,114.855485,-9418.149754
2684.418347,57.427742,248.853550,-9360.722011
2684.418974,38.285162,153.140646,-9418.149754
2684.419602,76.570323,153.140646,-9418.149754
2684.420229,76.570323,114.855485,-9418.149754
2684.420856,114.855485,172.283227,-9360.722011
2684.421483,133.998066,210.568389,-9456.434915
2684.422110,133.998066,114.855485,-9437.292334
2684.422737,38.285162,114.855485,-9456.434915
2684.423364,76.570323,172.283227,-9360.722011
2684.423991,76.570323,133.998066,-9360.722011
2684.424619,76.570323,114.855485,-9418.149754
2684.425246,38.285162,114.855485,-9418.149754
2684.425873,95.712904,114.855485,-9418.149754
2684.426500,133.998066,133.998066,-9399.007173
2684.427127,133.998066,248.853550,-9399.007173
2684.427754,38.285162,172.283227,-9437.292334
2684.428381,76.570323,114.855485,-9418.149754
2684.429008,114.855485,133.998066,-9360.722011
2684.429636,133.998066,133.998066,-9456.434915
2684.430263,133.998066,114.855485,-9456.434915
2684.430890,133.998066,153.140646,-9418.149754
2684.431517,133.998066,114.855485,-9360.722011
2684.432144,38.285162,114.855485,-9418.149754
2684.432771,133.998066,172.283227,-9418.149754
2684.433398,76.570323,172.283227,-9418.149754
2684.434025,133.998066,114.855485,-9418.149754
2684.434652,133.998066,210.568389,-9418.149754
2684.435280,38.285162,191.425808,-9418.149754
2684.435907,76.570323,114.855485,-9418.149754
2684.436534,76.570323,172.283227,-9418.149754
2684.437161,133.998066,210.568389,-9418.149754
2684.437788,114.855485,153.140646,-9360.722011
2684.438415,95.712904,133.998066,-9360.722011
2684.439042,76.570323,172.283227,-9418.149754
2684.439669,95.712904,191.425808,-9360.722011
2684.440297,76.570323,172.283227,-9418.149754
2684.440924,114.855485,133.998066,-9360.722011
2684.441551,95.712904,114.855485,-9418.149754
2684.442178,95.712904,114.855485,-9418.149754
2684.442805,95.712904,76.570323,-9379.864592
2684.443432,95.712904,95.712904,-9399.007173
2684.444059,133.998066,172.283227,-9418.149754
2684.444686,76.570323,114.855485,-9418.149754
2684.445314,95.712904,153.140646,-9456.434915
2684.445941,133.998066,153.140646,-9437.292334
2684.446568,95.712904,172.283227,-9360.722011
2684.447195,95.712904,133.998066,-9360.722011
2684.447822,95.712904,114.855485,-9418.149754
2684.448449,38.285162,114.855485,-9418.149754
2684.449076,95.712904,153.140646,-9360.722011
2684.449703,76.570323,114.855485,-9418.149754
2684.450330,133.998066,114.855485,-9341.579430
2684.450958,133.998066,153.140646,-9418.149754
2684.451585,172.283227,114.855485,-9379.864592
2684.452212,114.855485,210.568389,-9379.864592
2684.452839,133.998066,114.855485,-9418.149754
2684.453466,114.855485,133.998066,-9360.722011
2684.454093,133.998066,114.855485,-9418.149754
2684.454720,153.140646,133.998066,-9399.007173
2684.455347,95.712904,114.855485,-9418.149754
2684.455975,76.570323,191.425808,-9456.434915
2684.456602,95.712904,172.283227,-9418.149754
2684.457229,95.712904,172.283227,-9418.149754
2684.457856,95.712904,153.140646,-9360.722011
2684.458483,38.285162,114.855485,-9418.149754
2684.459110,133.998066,153.140646,-9399.007173
2684.459737,133.998066,114.855485,-9418.149754
2684.460364,95.712904,133.998066,-9360.722011
2684.460991,95.712904,153.140646,-9360.722011
2684.461619,76.570323,153.140646,-9437.292334
2684.462246,133.998066,114.855485,-9456.434915
2684.462873,38.285162,153.140646,-9418.149754
2684.463500,153.140646,153.140646,-9456.434915
2684.464127,133.998066,191.425808,-9456.434915
2684.464754,133.998066,172.283227,-9418.149754
2684.465381,133.998066,172.283227,-9322.436850
2684.466008,95.712904,133.998066,-9360.722011
2684.466636,57.427742,133.998066,-9341.579430
2684.467263,133.998066,133.998066,-9399.007173
2684.467890,76.570323,172.283227,-9418.149754
2684.468517,114.855485,114.855485,-9379.864592
2684.469144,76.570323,172.283227,-9418.149754
2684.469771,76.570323,114.855485,-9418.149754
2684.470398,76.570323,114.855485,-9360.722011
2684.471025,172.283227,133.998066,-9418.149754
2684.471653,133.998066,114.855485,-9418.149754
2684.472280,76.570323,191.425808,-9418.149754
2684.472907,95.712904,191.425808,-9322.436850
2684.473534,114.855485,133.998066,-9360.722011
2684.474161,133.998066,210.568389,-9418.149754
2684.474788,57.427742,114.855485,-9399.007173
2684.475415,95.712904,114.855485,-9418.149754
2684.476042,76.570323,210.568389,-9418.149754
2684.476669,133.998066,114.855485,-9418.149754
2684.477297,57.427742,133.998066,-9360.722011
2684.477924,95.712904,133.998066,-9341.579430
2684.478551,133.998066,114.855485,-9418.149754
2684.479178,95.712904,95.712904,-9399.007173
2684.479805,95.712904,95.712904,-9399.007173
2684.480432,95.712904,95.712904,-9399.007173
2684.481059,76.570323,114.855485,-9418.149754
2684.481686,133.998066,114.855485,-9418.149754
2684.482314,76.570323,114.855485,-9418.149754
2684.482941,95.712904,95.712904,-9456.434915
2684.483568,133.998066,172.283227,-9437.292334
2684.484195,95.712904,133.998066,-9418.149754
2684.484822,76.570323,76.570323,-9399.007173
2684.485449,95.712904,153.140646,-9418.149754
2684.486076,76.570323,172.283227,-9418.149754
2684.486703,133.998066,210.568389,-9418.149754
2684.487331,133.998066,172.283227,-9418.149754
2684.487958,95.712904,210.568389,-9360.722011
2684.488585,76.570323,114.855485,-9418.149754
2684.489212,95.712904,95.712904,-9399.007173
2684.489839,172.283227,76.570323,-9418.149754
2684.490466,38.285162,114.855485,-9418.149754
2684.491093,57.427742,133.998066,-9341.579430
2684.491720,38.285162,172.283227,-9437.292334
2684.492347,76.570323,114.855485,-9418.149754
2684.492975,76.570323,172.283227,-9418.149754
2684.493602,76.570323,229.710970,-9418.149754
2684.494229,114.855485,191.425808,-9360.722011
2684.494856,95.712904,114.855485,-9456.434915
2684.495483,76.570323,210.568389,-9418.149754
2684.496110,95.712904,133.998066,-9360.722011
2684.496737,76.570323,114.855485,-9475.577496
2684.497364,76.570323,114.855485,-9456.434915
2684.497992,38.285162,172.283227,-9418.149754
2684.498619,95.712904,172.283227,-9360.722011
2684.499246,133.998066,210.568389,-9418.149754
2684.499873,76.570323,114.855485,-9418.149754
2684.500500,133.998066,172.283227,-9418.149754
2684.501127,76.570323,210.568389,-9418.149754
2684.501754,38.285162,114.855485,-9418.149754
2684.502381,76.570323,172.283227,-9418.149754
2684.503009,133.998066,114.855485,-9437.292334
2684.503636,76.570323,153.140646,-9456.434915
2684.504263,172.283227,114.855485,-9379.864592
2684.504890,95.712904,114.855485,-9437.292334
2684.505517,95.712904,133.998066,-9360.722011
2684.506144,76.570323,114.855485,-9418.149754
2684.506771,76.570323,153.140646,-9418.149754
2684.507398,133.998066,114.855485,-9456.434915
2684.508025,95.712904,95.712904,-9456.434915
2684.508653,95.712904,95.712904,-9379.864592
2684.509280,76.570323,114.855485,-9418.149754
2684.509907,76.570323,114.855485,-9418.149754
2684.510534,153.140646,133.998066,-9399.007173
2684.511161,76.570323,114.855485,-9418.149754
2684.511788,133.998066,114.855485,-9418.149754
2684.512415,114.855485,114.855485,-9379.864592
2684.513042,57.427742,133.998066,-9360.722011
2684.513670,95.712904,114.855485,-9399.007173
2684.514297,114.855485,95.712904,-9399.007173
2684.514924,57.427742,133.998066,-9360.722011
2684.515551,153.140646,153.140646,-9399.007173
2684.516179,153.140646,133.998066,-9456.434915
2684.516806,76.570323,114.855485,-9418.149754
2684.517433,76.570323,153.140646,-9418.149754
2684.518061,133.998066,210.568389,-9418.149754
2684.518688,57.427742,114.855485,-9418.149754
2684.519315,95.712904,133.998066,-9360.722011
2684.519943,76.570323,114.855485,-9418.149754
2684.520570,95.712904,114.855485,-9418.149754
2684.521197,133.998066,172.283227,-9399.007173
2684.521824,133.998066,172.283227,-9418.149754
2684.522452,133.998066,172.283227,-9418.149754
2684.523079,133.998066,172.283227,-9418.149754
2684.523706,76.570323,172.283227,-9418.149754
2684.524334,95.712904,191.425808,-9360.722011
2684.524961,95.712904,114.855485,-9418.149754
2684.525588,153.140646,133.998066,-9399.007173
2684.526216,114.855485,172.283227,-9360.722011
2684.526843,57.427742,133.998066,-9360.722011
2684.527470,133.998066,114.855485,-9418.149754
2684.528097,76.570323,114.855485,-9360.722011
2684.528725,95.712904,172.283227,-9341.579430
2684.529352,172.283227,114.855485,-9379.864592
2684.529979,133.998066,114.855485,-9418.149754
2684.530607,133.998066,114.855485,-9360.722011
2684.531234,76.570323,172.283227,-9418.149754
2684.531861,95.712904,133.998066,-9360.722011
2684.532489,38.285162,191.425808,-9418.149754
2684.533116,133.998066,153.140646,-9360.722011
2684.533743,76.570323,153.140646,-9418.149754
2684.534371,114.855485,133.998066,-9341.579430
2684.534998,38.285162,114.855485,-9360.722011
2684.535625,57.427742,191.425808,-9360.722011
2684.536252,38.285162,114.855485,-9418.149754
2684.536880,19.142581,114.855485,-9360.722011
2684.537507,95.712904,133.998066,-9360.722011
2684.538134,76.570323,114.855485,-9418.149754
2684.538762,172.283227,95.712904,-9399.007173
2684.539389,133.998066,153.140646,-9418.149754
2684.540016,57.427742,133.998066,-9360.722011
2684.540644,57.427742,133.998066,-9360.722011
2684.541271,95.712904,153.140646,-9360.722011
2684.541898,95.712904,114.855485,-9418.149754
2684.542525,133.998066,153.140646,-9418.149754
2684.543153,76.570323,153.140646,-9418.149754
2684.543780,76.570323,210.568389,-9360.722011
2684.544407,114.855485,133.998066,-9360.722011
2684.545035,133.998066,114.855485,-9360.722011
2684.545662,114.855485,133.998066,-9360.722011
2684.546289,114.855485,172.283227,-9360.722011
2684.546917,114.855485,172.283227,-9360.722011
2684.547544,38.285162,153.140646,-9418.149754
2684.548171,95.712904,95.712904,-9399.007173
2684.548798,38.285162,114.855485,-9418.149754
2684.549426,114.855485,172.283227,-9360.722011
2684.550053,76.570323,114.855485,-9418.149754
2684.550680,0.000000,114.855485,-9379.864592
2684.551308,76.570323,153.140646,-9360.722011
2684.551935,76.570323,114.855485,-9418.149754
2684.552562,76.570323,153.140646,-9418.149754
2684.553190,114.855485,133.998066,-9360.722011
2684.553817,114.855485,172.283227,-9360.722011
2684.554444,95.712904,133.998066,-9360.722011
2684.555072,76.570323,172.283227,-9418.149754
2684.555699,38.285162,76.570323,-9322.436850
2684.556326,38.285162,76.570323,-9379.864592
2684.556953,114.855485,133.998066,-9360.722011
2684.557581,76.570323,114.855485,-9418.149754
2684.558208,114.855485,133.998066,-9360.722011
2684.558835,153.140646,133.998066,-9437.292334
2684.559463,76.570323,76.570323,-9322.436850
2684.560090,95.712904,133.998066,-9341.579430
2684.560717,57.427742,114.855485,-9437.292334
2684.561345,133.998066,114.855485,-9418.149754
2684.561972,114.855485,95.712904,-9379.864592
2684.562599,114.855485,133.998066,-9360.722011
2684.563226,76.570323,114.855485,-9360.722011
2684.563854,133.998066,114.855485,-9418.149754
2684.564481,133.998066,210.568389,-9418.149754
2684.565108,133.998066,210.568389,-9418.149754
2684.565736,57.427742,133.998066,-9360.722011
2684.566363,133.998066,172.283227,-9360.722011
2684.566990,172.283227,114.855485,-9322.436850
2684.567618,114.855485,133.998066,-9360.722011
2684.568245,133.998066,114.855485,-9418.149754
2684.568872,76.570323,191.425808,-9322.436850
2684.569499,133.998066,76.570323,-9379.864592
2684.570127,76.570323,114.855485,-9418.149754
2684.570754,133.998066,153.140646,-9418.149754
2684.571381,114.855485,172.283227,-9360.722011
2684.572009,153.140646,153.140646,-9399.007173
2684.572636,133.998066,133.998066,-9399.007173
2684.573263,76.570323,114.855485,-9418.149754
2684.573891,133.998066,210.568389,-9418.149754
2684.574518,38.285162,114.855485,-9475.577496
2684.575145,38.285162,114.855485,-9418.149754
2684.575772,38.285162,172.283227,-9418.149754
2684.576400,76.570323,114.855485,-9418.149754
2684.577027,133.998066,114.855485,-9418.149754
2684.577654,57.427742,133.998066,-9360.722011
2684.578282,172.283227,191.425808,-9322.436850
2684.578909,133.998066,114.855485,-9418.149754
2684.579536,133.998066,172.283227,-9418.149754
2684.580164,210.568389,153.140646,-9399.007173
2684.580791,133.998066,172.283227,-9418.149754
2684.581418,133.998066,114.855485,-9418.149754
2684.582046,76.570323,114.855485,-9456.434915
2684.582673,95.712904,133.998066,-9341.579430
2684.583300,95.712904,95.712904,-9379.864592
2684.583927,76.570323,114.855485,-9418.149754
2684.584555,76.570323,114.855485,-9418.149754
2684.585182,95.712904,95.712904,-9399.007173
2684.585809,133.998066,76.570323,-9379.864592
2684.586437,133.998066,114.855485,-9418.149754
2684.587064,114.855485,172.283227,-9360.722011
2684.587691,76.570323,153.140646,-9418.149754
2684.588319,76.570323,153.140646,-9418.149754
2684.588946,133.998066,114.855485,-9418.149754
2684.589573,76.570323,153.140646,-9418.149754
2684.590200,133.998066,153.140646,-9360.722011
2684.590828,153.140646,114.855485,-9418.149754
2684.591455,172.283227,114.855485,-9322.436850
2684.592082,76.570323,114.855485,-9418.149754
2684.592710,133.998066,114.855485,-9360.722011
2684.593337,114.855485,153.140646,-9360.722011
2684.593964,133.998066,133.998066,-9399.007173
2684.594592,95.712904,133.998066,-9360.722011
2684.595219,133.998066,114.855485,-9418.149754
2684.595846,95.712904,191.425808,-9360.722011
2684.596473,114.855485,172.283227,-9360.722011
2684.597101,76.570323,114.855485,-9418.149754
2684.597728,133.998066,153.140646,-9418.149754
2684.598355,76.570323,114.855485,-9418.149754
2684.598983,95.712904,133.998066,-9360.722011
2684.599610,114.855485,95.712904,-9399.007173
2684.600237,133.998066,210.568389,-9418.149754
2684.600865,133.998066,172.283227,-9418.149754
2684.601492,95.712904,172.283227,-9360.722011
2684.602119,133.998066,114.855485,-9418.149754
2684.602746,76.570323,114.855485,-9437.292334
2684.603374,114.855485,153.140646,-9418.149754
2684.604001,76.570323,153.140646,-9418.149754
2684.604628,95.712904,153.140646,-9418.149754
2684.605256,114.855485,153.140646,-9360.722011
2684.605883,114.855485,133.998066,-9418.149754
2684.606510,133.998066,114.855485,-9418.149754
2684.607138,95.712904,95.712904,-9399.007173
2684.607765,114.855485,172.283227,-9360.722011
2684.608392,76.570323,114.855485,-9418.149754
2684.609020,38.285162,114.855485,-9418.149754
2684.609647,133.998066,210.568389,-9418.149754
2684.610274,133.998066,114.855485,-9418.149754
2684.610901,95.712904,133.998066,-9360.722011
2684.611529,95.712904,114.855485,-9418.149754
2684.612156,38.285162,114.855485,-9418.149754
2684.612783,76.570323,114.855485,-9418.149754
2684.613411,114.855485,95.712904,-9399.007173
2684.614038,95.712904,191.425808,-9360.722011
2684.614665,38.285162,114.855485,-9418.149754
2684.615293,133.998066,210.568389,-9360.722011
2684.615920,95.712904,133.998066,-9322.436850
2684.616548,133.998066,153.140646,-9475.577496
2684.617175,133.998066,172.283227,-9418.149754
2684.617802,38.285162,153.140646,-9418.149754
2684.618430,133.998066,172.283227,-9418.149754
2684.619057,76.570323,114.855485,-9418.149754
2684.619685,76.570323,114.855485,-9418.149754
2684.620312,153.140646,191.425808,-9399.007173
2684.620939,114.855485,133.998066,-9360.722011
2684.621567,133.998066,114.855485,-9418.149754
2684.622194,76.570323,114.855485,-9418.149754
2684.622822,76.570323,114.855485,-9418.149754
2684.623449,153.140646,114.855485,-9418.149754
2684.624076,114.855485,133.998066,-9360.722011
2684.624704,76.570323,114.855485,-9418.149754
2684.625331,76.570323,172.283227,-9418.149754
2684.625958,95.712904,153.140646,-9322.436850
2684.626586,76.570323,153.140646,-9418.149754
2684.627213,114.855485,191.425808,-9360.722011
2684.627841,95.712904,133.998066,-9360.722011
2684.628468,57.427742,133.998066,-9360.722011
2684.629095,57.427742,95.712904,-9379.864592
2684.629723,57.427742,95.712904,-9399.007173
2684.630350,38.285162,114.855485,-9418.149754
2684.630978,95.712904,133.998066,-9418.149754
2684.631605,153.140646,191.425808,-9456.434915
2684.632232,133.998066,114.855485,-9418.149754
2684.632860,133.998066,114.855485,-9418.149754
2684.633487,95.712904,133.998066,-9360.722011
2684.634115,114.855485,133.998066,-9360.722011
2684.634742,153.140646,133.998066,-9399.007173
2684.635369,114.855485,114.855485,-9379.864592
2684.635997,95.712904,133.998066,-9360.722011
2684.636624,133.998066,153.140646,-9399.007173
2684.637252,76.570323,172.283227,-9418.149754
2684.637879,38.285162,114.855485,-9437.292334
2684.638506,38.285162,114.855485,-9418.149754
2684.639134,76.570323,114.855485,-9456.434915
2684.639761,133.998066,172.283227,-9418.149754
2684.640389,38.285162,114.855485,-9418.149754
2684.641016,19.142581,153.140646,-9418.149754
2684.641643,57.427742,133.998066,-9360.722011
2684.642271,57.427742,191.425808,-9360.722011
2684.642898,133.998066,133.998066,-9399.007173
2684.643526,133.998066,172.283227,-9399.007173
2684.644153,133.998066,172.283227,-9399.007173
2684.644780,76.570323,114.855485,-9418.149754
2684.645408,76.570323,114.855485,-9418.149754
2684.646035,133.998066,114.855485,-9418.149754
2684.646663,38.285162,210.568389,-9418.149754
2684.647290,76.570323,210.568389,-9418.149754
2684.647917,133.998066,114.855485,-9418.149754
2684.648545,114.855485,172.283227,-9360.722011
2684.649172,133.998066,229.710970,-9418.149754
2684.649800,133.998066,114.855485,-9456.434915
2684.650427,95.712904,95.712904,-9399.007173
2684.651054,95.712904,153.140646,-9360.722011
2684.651682,95.712904,153.140646,-9418.149754
2684.652309,76.570323,153.140646,-9418.149754
2684.652937,57.427742,153.140646,-9418.149754
2684.653564,76.570323,153.140646,-9418.149754
2684.654191,76.570323,114.855485,-9437.292334
2684.654819,95.712904,153.140646,-9360.722011
2684.655446,133.998066,172.283227,-9418.149754
2684.656074,38.285162,172.283227,-9418.149754
2684.656701,76.570323,153.140646,-9418.149754
2684.657328,95.712904,210.568389,-9360.722011
2684.657956,153.140646,133.998066,-9399.007173
2684.658583,114.855485,172.283227,-9379.864592
2684.659211,133.998066,153.140646,-9418.149754
2684.659838,95.712904,191.425808,-9360.722011
2684.660465,76.570323,114.855485,-9418.149754
2684.661093,76.570323,153.140646,-9418.149754
2684.661720,133.998066,114.855485,-9437.292334
2684.662348,76.570323,210.568389,-9456.434915
2684.662975,76.570323,114.855485,-9418.149754
2684.663602,133.998066,210.568389,-9418.149754
2684.664230,76.570323,114.855485,-9418.149754
2684.664857,38.285162,114.855485,-9418.149754
2684.665485,133.998066,114.855485,-9418.149754
2684.666112,19.142581,114.855485,-9418.149754
2684.666739,114.855485,172.283227,-9360.722011
2684.667367,172.283227,153.140646,-9360.722011
2684.667994,38.285162,114.855485,-9360.722011
2684.668622,95.712904,95.712904,-9399.007173
2684.669249,210.568389,133.998066,-9399.007173
2684.669876,153.140646,95.712904,-9360.722011
2684.670504,57.427742,133.998066,-9360.722011
2684.671131,133.998066,172.283227,-9418.149754
2684.671759,133.998066,210.568389,-9418.149754
2684.672386,95.712904,229.710970,-9399.007173
2684.673013,133.998066,153.140646,-9418.149754
2684.673641,76.570323,172.283227,-9418.149754
2684.674268,76.570323,114.855485,-9418.149754
2684.674896,38.285162,114.855485,-9437.292334
2684.675523,76.570323,153.140646,-9456.434915
2684.676150,76.570323,114.855485,-9418.149754
2684.676778,133.998066,114.855485,-9418.149754
2684.677405,172.283227,172.283227,-9379.864592
2684.678033,114.855485,114.855485,-9379.864592
2684.678660,76.570323,114.855485,-9418.149754
2684.679287,114.855485,133.998066,-9360.722011
2684.679915,38.285162,114.855485,-9418.149754
2684.680542,95.712904,153.140646,-9360.722011
2684.681170,114.855485,210.568389,-9379.864592
2684.681797,133.998066,114.855485,-9418.149754
2684.682424,38.285162,153.140646,-9418.149754
2684.683052,191.425808,153.140646,-9379.864592
2684.683679,76.570323,114.855485,-9418.149754
2684.684307,38.285162,114.855485,-9360.722011
2684.684934,95.712904,133.998066,-9360.722011
2684.685561,95.712904,133.998066,-9360.722011
2684.686189,95.712904,133.998066,-9360.722011
2684.686816,133.998066,114.855485,-9418.149754
2684.687444,76.570323,133.998066,-9360.722011
2684.688071,153.140646,95.712904,-9360.722011
2684.688698,133.998066,172.283227,-9418.149754
2684.689326,95.712904,191.425808,-9360.722011
2684.689953,76.570323,229.710970,-9418.149754
2684.690580,114.855485,133.998066,-9418.149754
2684.691208,153.140646,153.140646,-9399.007173
2684.691835,133.998066,191.425808,-9418.149754
2684.692463,133.998066,210.568389,-9418.149754
2684.693090,76.570323,172.283227,-9475.577496
2684.693717,95.712904,95.712904,-9399.007173
2684.694345,76.570323,114.855485,-9418.149754
2684.694972,57.427742,133.998066,-9360.722011
2684.695600,95.712904,133.998066,-9360.722011
2684.696227,153.140646,133.998066,-9475.577496
2684.696854,76.570323,114.855485,-9418.149754
2684.697482,76.570323,95.712904,-9399.007173
2684.698109,76.570323,76.570323,-9379.864592
2684.698737,38.285162,153.140646,-9456.434915
2684.699364,76.570323,172.283227,-9418.149754
2684.699991,38.285162,191.425808,-9456.434915
2684.700619,76.570323,191.425808,-9418.149754
2684.701246,38.285162,114.855485,-9456.434915
2684.701874,76.570323,114.855485,-9360.722011
2684.702501,95.712904,95.712904,-9379.864592
2684.703128,38.285162,114.855485,-9418.149754
2684.703756,76.570323,114.855485,-9418.149754
2684.704383,114.855485,95.712904,-9399.007173
2684.705011,133.998066,114.855485,-9418.149754
2684.705638,133.998066,133.998066,-9399.007173
2684.706265,38.285162,153.140646,-9418.149754
2684.706893,76.570323,114.855485,-9418.149754
2684.707520,133.998066,114.855485,-9418.149754
2684.708148,114.855485,172.283227,-9379.864592
2684.708775,95.712904,114.855485,-9437.292334
2684.709402,76.570323,229.710970,-9418.149754
2684.710030,57.427742,114.855485,-9418.149754
2684.710657,133.998066,172.283227,-9418.149754
2684.711285,95.712904,191.425808,-9360.722011
2684.711912,38.285162,210.568389,-9418.149754
2684.712539,76.570323,114.855485,-9418.149754
2684.713167,95.712904,172.283227,-9360.722011
2684.713794,95.712904,153.140646,-9418.149754
2684.714422,95.712904,172.283227,-9360.722011
2684.715049,38.285162,114.855485,-9418.149754
2684.715677,95.712904,133.998066,-9360.722011
2684.716304,95.712904,133.998066,-9360.722011
2684.716932,172.283227,76.570323,-9418.149754
2684.717559,76.570323,133.998066,-9360.722011
2684.718187,114.855485,133.998066,-9360.722011
2684.718815,133.998066,191.425808,-9418.149754
2684.719442,76.570323,114.855485,-9418.149754
2684.720070,57.427742,95.712904,-9399.007173
2684.720697,76.570323,76.570323,-9379.864592
2684.721325,76.570323,76.570323,-9379.864592
2684.721952,114.855485,95.712904,-9399.007173
2684.722580,95.712904,95.712904,-9399.007173
2684.723208,76.570323,114.855485,-9456.434915
2684.723835,95.712904,133.998066,-9360.722011
2684.724463,95.712904,114.855485,-9399.007173
2684.725090,95.712904,172.283227,-9360.722011
2684.725718,76.570323,114.855485,-9437.292334
2684.726345,76.570323,114.855485,-9418.149754
2684.726973,114.855485,133.998066,-9360.722011
2684.727600,57.427742,114.855485,-9399.007173
2684.728228,95.712904,133.998066,-9360.722011
2684.728856,95.712904,133.998066,-9360.722011
2684.729483,57.427742,153.140646,-9360.722011
2684.730111,76.570323,153.140646,-9360.722011
2684.730738,38.285162,114.855485,-9418.149754
2684.731366,57.427742,95.712904,-9399.007173
2684.731993,133.998066,172.283227,-9399.007173
2684.732621,114.855485,248.853550,-9360.722011
2684.733249,95.712904,172.283227,-9360.722011
2684.733876,76.570323,172.283227,-9437.292334
2684.734504,76.570323,172.283227,-9418.149754
2684.735131,133.998066,114.855485,-9418.149754
2684.735759,95.712904,133.998066,-9360.722011
2684.736386,38.285162,114.855485,-9418.149754
2684.737014,76.570323,114.855485,-9418.149754
2684.737641,133.998066,153.140646,-9418.149754
2684.738269,95.712904,133.998066,-9418.149754
2684.738897,133.998066,76.570323,-9379.864592
2684.739524,172.283227,114.855485,-9322.436850
2684.740152,114.855485,172.283227,-9360.722011
2684.740779,153.140646,133.998066,-9399.007173
2684.741407,133.998066,133.998066,-9456.434915
2684.742034,95.712904,133.998066,-9360.722011
2684.742662,133.998066,114.855485,-9456.434915
2684.743290,153.140646,133.998066,-9456.434915
2684.743917,114.855485,95.712904,-9437.292334
2684.744545,133.998066,133.998066,-9399.007173
2684.745172,95.712904,133.998066,-9360.722011
2684.745800,76.570323,210.568389,-9418.149754
2684.746427,57.427742,133.998066,-9360.722011
2684.747055,76.570323,172.283227,-9418.149754
2684.747683,76.570323,172.283227,-9360.722011
2684.748310,95.712904,133.998066,-9360.722011
2684.748938,153.140646,172.283227,-9399.007173
2684.749565,133.998066,133.998066,-9399.007173
2684.750193,76.570323,114.855485,-9418.149754
2684.750820,76.570323,114.855485,-9418.149754
2684.751448,76.570323,172.283227,-9456.434915
2684.752075,133.998066,114.855485,-9418.149754
2684.752703,133.998066,133.998066,-9456.434915
2684.753331,76.570323,172.283227,-9418.149754
2684.753958,38.285162,153.140646,-9418.149754
2684.754586,133.998066,114.855485,-9418.149754
2684.755213,114.855485,153.140646,-9360.722011
2684.755841,95.712904,172.283227,-9360.722011
2684.756468,57.427742,133.998066,-9360.722011
2684.757096,76.570323,172.283227,-9437.292334
2684.757724,76.570323,114.855485,-9418.149754
2684.758351,114.855485,76.570323,-9437.292334
2684.758979,133.998066,114.855485,-9418.149754
2684.759606,76.570323,114.855485,-9418.149754
2684.760234,153.140646,210.568389,-9399.007173
2684.760861,133.998066,153.140646,-9418.149754
2684.761489,76.570323,114.855485,-9418.149754
2684.762117,95.712904,172.283227,-9360.722011
2684.762744,95.712904,133.998066,-9360.722011
2684.763372,133.998066,172.283227,-9418.149754
2684.763999,76.570323,210.568389,-9418.149754
2684.764627,133.998066,172.283227,-9418.149754
2684.765254,76.570323,114.855485,-9360.722011
2684.765882,76.570323,153.140646,-9360.722011
2684.766509,133.998066,114.855485,-9418.149754
2684.767137,95.712904,114.855485,-9360.722011
2684.767765,76.570323,114.855485,-9418.149754
2684.768392,38.285162,114.855485,-9418.149754
2684.769020,133.998066,76.570323,-9379.864592
2684.769647,76.570323,153.140646,-9360.722011
2684.770275,95.712904,153.140646,-9360.722011
2684.770902,76.570323,153.140646,-9418.149754
2684.771530,76.570323,114.855485,-9418.149754
2684.772158,76.570323,114.855485,-9437.292334
2684.772785,76.570323,114.855485,-9437.292334
2684.773413,76.570323,114.855485,-9418.149754
2684.774040,114.855485,95.712904,-9399.007173
2684.774668,114.855485,133.998066,-9360.722011
2684.775295,153.140646,133.998066,-9437.292334
2684.775923,172.283227,76.570323,-9360.722011
2684.776550,76.570323,153.140646,-9418.149754
2684.777178,133.998066,114.855485,-9418.149754
2684.777806,57.427742,172.283227,-9360.722011
2684.778433,172.283227,172.283227,-9379.864592
2684.779061,95.712904,114.855485,-9418.149754
2684.779688,172.283227,133.998066,-9341.579430
2684.780316,133.998066,172.283227,-9418.149754
2684.780943,133.998066,114.855485,-9494.720077
2684.781571,38.285162,95.712904,-9399.007173
2684.782199,76.570323,114.855485,-9418.149754
2684.782826,133.998066,114.855485,-9418.149754
2684.783454,114.855485,95.712904,-9379.864592
2684.784081,153.140646,114.855485,-9418.149754
2684.784709,95.712904,95.712904,-9399.007173
2684.785336,133.998066,114.855485,-9437.292334
2684.785964,76.570323,191.425808,-9437.292334
2684.786592,76.570323,114.855485,-9418.149754
2684.787219,133.998066,114.855485,-9418.149754
2684.787847,95.712904,133.998066,-9360.722011
2684.788474,57.427742,153.140646,-9360.722011
2684.789102,133.998066,210.568389,-9418.149754
2684.789729,114.855485,153.140646,-9360.722011
2684.790357,133.998066,153.140646,-9418.149754
2684.790984,76.570323,172.283227,-9418.149754
2684.791612,38.285162,153.140646,-9418.149754
2684.792240,133.998066,114.855485,-9418.149754
2684.792867,133.998066,172.283227,-9399.007173
2684.793495,76.570323,153.140646,-9418.149754
2684.794122,76.570323,153.140646,-9418.149754
2684.794750,114.855485,133.998066,-9360.722011
2684.795377,38.285162,114.855485,-9418.149754
2684.796005,76.570323,172.283227,-9360.722011
2684.796633,133.998066,153.140646,-9399.007173
2684.797260,114.855485,191.425808,-9322.436850
2684.797888,114.855485,172.283227,-9360.722011
2684.798515,76.570323,114.855485,-9418.149754
2684.799143,76.570323,114.855485,-9418.149754
2684.799770,153.140646,114.855485,-9437.292334
2684.800398,76.570323,114.855485,-9418.149754
2684.801025,153.140646,191.425808,-9399.007173
2684.801653,95.712904,210.568389,-9418.149754
2684.802281,133.998066,133.998066,-9399.007173
2684.802908,76.570323,114.855485,-9418.149754
2684.803536,76.570323,114.855485,-9418.149754
2684.804163,76.570323,114.855485,-9418.149754
2684.804791,76.570323,114.855485,-9418.149754
2684.805418,133.998066,172.283227,-9418.149754
2684.806046,19.142581,114.855485,-9399.007173
2684.806674,38.285162,114.855485,-9418.149754
2684.807301,133.998066,114.855485,-9418.149754
2684.807929,114.855485,133.998066,-9360.722011
2684.808556,133.998066,114.855485,-9418.149754
2684.809184,38.285162,114.855485,-9418.149754
2684.809811,133.998066,114.855485,-9418.149754
2684.810439,172.283227,172.283227,-9379.864592
2684.811067,76.570323,248.853550,-9360.722011
2684.811694,133.998066,114.855485,-9360.722011
2684.812322,153.140646,133.998066,-9399.007173
2684.812949,95.712904,172.283227,-9360.722011
2684.813577,114.855485,191.425808,-9360.722011
2684.814204,133.998066,153.140646,-9418.149754
2684.814832,76.570323,114.855485,-9418.149754
2684.815460,76.570323,172.283227,-9418.149754
2684.816087,38.285162,114.855485,-9418.149754
2684.816715,76.570323,153.140646,-9360.722011
2684.817343,133.998066,114.855485,-9418.149754
2684.817971,76.570323,114.855485,-9360.722011
2684.818598,114.855485,172.283227,-9360.722011
2684.819226,114.855485,95.712904,-9399.007173
2684.819854,76.570323,114.855485,-9418.149754
2684.820482,57.427742,172.283227,-9360.722011
2684.821109,76.570323,114.855485,-9418.149754
2684.821737,114.855485,172.283227,-9399.007173
2684.822365,133.998066,153.140646,-9418.149754
2684.822993,76.570323,210.568389,-9418.149754
2684.823620,76.570323,133.998066,-9360.722011
2684.824248,114.855485,95.712904,-9399.007173
2684.824876,95.712904,172.283227,-9341.579430
2684.825504,38.285162,153.140646,-9418.149754
2684.826131,95.712904,114.855485,-9418.149754
2684.826759,76.570323,172.283227,-9418.149754
2684.827387,38.285162,153.140646,-9418.149754
2684.828015,133.998066,114.855485,-9360.722011
2684.828642,76.570323,114.855485,-9418.149754
2684.829270,76.570323,153.140646,-9418.149754
2684.829898,76.570323,114.855485,-9456.434915
2684.830526,76.570323,114.855485,-9418.149754
2684.831154,133.998066,153.140646,-9418.149754
2684.831781,76.570323,133.998066,-9360.722011
2684.832409,76.570323,114.855485,-9418.149754
2684.833037,133.998066,172.283227,-9418.149754
2684.833665,114.855485,133.998066,-9360.722011
2684.834292,76.570323,114.855485,-9475.577496
2684.834920,95.712904,153.140646,-9418.149754
2684.835548,38.285162,114.855485,-9418.149754
2684.836176,38.285162,114.855485,-9360.722011
2684.836803,114.855485,133.998066,-9360.722011
2684.837431,133.998066,153.140646,-9418.149754
2684.838059,76.570323,114.855485,-9418.149754
2684.838687,133.998066,153.140646,-9418.149754
2684.839314,133.998066,153.140646,-9418.149754
2684.839942,76.570323,114.855485,-9418.149754
2684.840570,114.855485,133.998066,-9360.722011
2684.841198,133.998066,153.140646,-9418.149754
2684.841825,95.712904,133.998066,-9341.579430
2684.842453,76.570323,114.855485,-9418.149754
2684.843081,95.712904,76.570323,-9379.864592
2684.843709,57.427742,133.998066,-9360.722011
2684.844336,95.712904,95.712904,-9399.007173
2684.844964,114.855485,133.998066,-9360.722011
2684.845592,95.712904,114.855485,-9418.149754
2684.846220,38.285162,114.855485,-9418.149754
2684.846847,133.998066,172.283227,-9418.149754
2684.847475,153.140646,133.998066,-9379.864592
2684.848103,95.712904,114.855485,-9418.149754
2684.848731,133.998066,114.855485,-9418.149754
2684.849358,114.855485,95.712904,-9399.007173
2684.849986,133.998066,153.140646,-9360.722011
2684.850614,38.285162,114.855485,-9418.149754
2684.851242,133.998066,114.855485,-9418.149754
2684.851869,57.427742,133.998066,-9360.722011
2684.852497,95.712904,172.283227,-9360.722011
2684.853125,76.570323,114.855485,-9437.292334
2684.853753,95.712904,172.283227,-9418.149754
2684.854380,95.712904,114.855485,-9399.007173
2684.855008,38.285162,114.855485,-9418.149754
2684.855636,133.998066,153.140646,-9399.007173
2684.856264,133.998066,114.855485,-9418.149754
2684.856891,133.998066,172.283227,-9418.149754
2684.857519,95.712904,153.140646,-9360.722011
2684.858147,133.998066,153.140646,-9360.722011
2684.858775,95.712904,133.998066,-9360.722011
2684.859402,133.998066,114.855485,-9418.149754
2684.860030,95.712904,114.855485,-9418.149754
2684.860658,172.283227,172.283227,-9379.864592
2684.861286,95.712904,172.283227,-9341.579430
2684.861913,76.570323,114.855485,-9418.149754
2684.862541,133.998066,114.855485,-9418.149754
2684.863169,133.998066,172.283227,-9418.149754
2684.863797,76.570323,114.855485,-9418.149754
2684.864424,76.570323,153.140646,-9456.434915
2684.865052,38.285162,172.283227,-9418.149754
2684.865680,76.570323,172.283227,-9418.149754
2684.866308,133.998066,114.855485,-9418.149754
2684.866936,153.140646,133.998066,-9399.007173
2684.867563,133.998066,95.712904,-9341.579430
2684.868191,95.712904,133.998066,-9360.722011
2684.868819,76.570323,210.568389,-9418.149754
2684.869447,76.570323,114.855485,-9418.149754
2684.870074,38.285162,172.283227,-9418.149754
2684.870702,38.285162,114.855485,-9456.434915
2684.871330,114.855485,133.998066,-9360.722011
2684.871958,76.570323,114.855485,-9418.149754
2684.872585,38.285162,172.283227,-9418.149754
2684.873213,95.712904,114.855485,-9418.149754
2684.873841,76.570323,172.283227,-9418.149754
2684.874469,38.285162,210.568389,-9360.722011
2684.875096,57.427742,248.853550,-9360.722011
2684.875724,76.570323,114.855485,-9418.149754
2684.876352,133.998066,114.855485,-9418.149754
2684.876980,172.283227,114.855485,-9379.864592
2684.877607,114.855485,133.998066,-9360.722011
2684.878235,133.998066,114.855485,-9418.149754
2684.878863,133.998066,191.425808,-9418.149754
2684.879491,133.998066,133.998066,-9399.007173
2684.880118,38.285162,172.283227,-9418.149754
2684.880746,133.998066,133.998066,-9379.864592
2684.881374,76.570323,114.855485,-9418.149754
2684.882002,133.998066,114.855485,-9360.722011
2684.882629,153.140646,153.140646,-9399.007173
2684.883257,95.712904,153.140646,-9418.149754
2684.883885,76.570323,76.570323,-9379.864592
2684.884513,76.570323,153.140646,-9418.149754
2684.885140,76.570323,114.855485,-9418.149754
2684.885768,38.285162,172.283227,-9418.149754
2684.886396,76.570323,153.140646,-9418.149754
2684.887024,57.427742,172.283227,-9360.722011
2684.887651,133.998066,210.568389,-9418.149754
2684.888279,133.998066,114.855485,-9341.579430
2684.888907,76.570323,172.283227,-9418.149754
2684.889535,57.427742,172.283227,-9360.722011
2684.890162,114.855485,172.283227,-9360.722011
2684.890790,76.570323,114.855485,-9418.149754
2684.891418,38.285162,114.855485,-9418.149754
2684.892046,76.570323,114.855485,-9418.149754
2684.892673,133.998066,172.283227,-9418.149754
2684.893301,153.140646,172.283227,-9399.007173
2684.893929,133.998066,114.855485,-9418.149754
2684.894557,57.427742,172.283227,-9456.434915
2684.895184,57.427742,153.140646,-9360.722011
2684.895812,114.855485,172.283227,-9360.722011
2684.896440,114.855485,172.283227,-9360.722011
2684.897068,153.140646,191.425808,-9399.007173
2684.897695,133.998066,114.855485,-9418.149754
2684.898323,153.140646,133.998066,-9399.007173
2684.898951,114.855485,133.998066,-9360.722011
2684.899579,38.285162,172.283227,-9360.722011
2684.900206,76.570323,114.855485,-9418.149754
2684.900834,153.140646,153.140646,-9399.007173
2684.901462,95.712904,153.140646,-9418.149754
2684.902090,114.855485,133.998066,-9360.722011
2684.902717,133.998066,114.855485,-9456.434915
2684.903345,95.712904,153.140646,-9418.149754
2684.903973,38.285162,114.855485,-9418.149754
2684.904601,76.570323,153.140646,-9360.722011
2684.905229,76.570323,210.568389,-9437.292334
2684.905856,76.570323,114.855485,-9456.434915
2684.906484,76.570323,114.855485,-9418.149754
2684.907112,38.285162,114.855485,-9360.722011
2684.907740,76.570323,114.855485,-9418.149754
2684.908367,95.712904,210.568389,-9418.149754
2684.908995,114.855485,153.140646,-9360.722011
2684.909623,133.998066,153.140646,-9418.149754
2684.910251,76.570323,153.140646,-9418.149754
2684.910878,76.570323,172.283227,-9418.149754
2684.911506,95.712904,210.568389,-9418.149754
2684.912134,95.712904,114.855485,-9418.149754
2684.912762,95.712904,153.140646,-9360.722011
2684.913389,133.998066,210.568389,-9456.434915
2684.914017,38.285162,172.283227,-9418.149754
2684.914645,57.427742,133.998066,-9360.722011
2684.915273,95.712904,133.998066,-9360.722011
2684.915900,76.570323,210.568389,-9418.149754
2684.916528,114.855485,95.712904,-9399.007173
2684.917155,76.570323,114.855485,-9418.149754
2684.917783,76.570323,172.283227,-9456.434915
2684.918410,38.285162,114.855485,-9418.149754
2684.919038,76.570323,114.855485,-9360.722011
2684.919665,133.998066,114.855485,-9418.149754
2684.920293,95.712904,172.283227,-9418.149754
2684.920920,114.855485,95.712904,-9379.864592
2684.921548,133.998066,114.855485,-9418.149754
2684.922175,114.855485,172.283227,-9360.722011
2684.922803,76.570323,114.855485,-9418.149754
2684.923430,133.998066,114.855485,-9437.292334
2684.924058,95.712904,114.855485,-9418.149754
2684.924685,133.998066,172.283227,-9418.149754
2684.925313,95.712904,172.283227,-9360.722011
2684.925940,76.570323,114.855485,-9418.149754
2684.926568,133.998066,114.855485,-9418.149754
2684.927196,114.855485,133.998066,-9360.722011
2684.927823,95.712904,114.855485,-9418.149754
2684.928451,38.285162,114.855485,-9418.149754
2684.929078,114.855485,133.998066,-9360.722011
2684.929706,76.570323,153.140646,-9418.149754
2684.930333,57.427742,133.998066,-9360.722011
2684.930961,76.570323,114.855485,-9399.007173
2684.931588,114.855485,172.283227,-9341.579430
2684.932216,133.998066,114.855485,-9418.149754
2684.932843,95.712904,114.855485,-9418.149754
2684.933471,76.570323,172.283227,-9418.149754
2684.934098,114.855485,95.712904,-9399.007173
2684.934726,133.998066,114.855485,-9418.149754
2684.935353,153.140646,133.998066,-9437.292334
2684.935981,76.570323,114.855485,-9418.149754
2684.936608,153.140646,114.855485,-9418.149754
2684.937236,133.998066,114.855485,-9437.292334
2684.937863,76.570323,153.140646,-9418.149754
2684.938491,153.140646,133.998066,-9399.007173
2684.939119,76.570323,114.855485,-9418.149754
2684.939746,95.712904,133.998066,-9360.722011
2684.940374,133.998066,153.140646,-9418.149754
2684.941001,38.285162,153.140646,-9360.722011
2684.941629,114.855485,114.855485,-9322.436850
2684.942256,76.570323,133.998066,-9360.722011
2684.942884,133.998066,114.855485,-9418.149754
2684.943511,76.570323,114.855485,-9456.434915
2684.944139,57.427742,172.283227,-9399.007173
2684.944766,76.570323,172.283227,-9418.149754
2684.945394,38.285162,153.140646,-9437.292334
2684.946021,95.712904,133.998066,-9360.722011
2684.946649,38.285162,114.855485,-9418.149754
2684.947276,76.570323,114.855485,-9418.149754
2684.947904,133.998066,114.855485,-9418.149754
2684.948531,57.427742,153.140646,-9418.149754
2684.949159,57.427742,95.712904,-9399.007173
2684.949786,95.712904,95.712904,-9399.007173
2684.950414,76.570323,210.568389,-9418.149754
2684.951041,76.570323,153.140646,-9418.149754
2684.951669,76.570323,114.855485,-9418.149754
2684.952297,19.142581,114.855485,-9456.434915
2684.952924,38.285162,114.855485,-9418.149754
2684.953552,114.855485,95.712904,-9379.864592
2684.954179,133.998066,172.283227,-9418.149754
2684.954807,76.570323,133.998066,-9360.722011
2684.955434,172.283227,114.855485,-9379.864592
2684.956062,133.998066,172.283227,-9418.149754
2684.956689,95.712904,153.140646,-9418.149754
2684.957317,133.998066,133.998066,-9399.007173
2684.957944,76.570323,114.855485,-9418.149754
2684.958572,76.570323,114.855485,-9418.149754
2684.959199,76.570323,114.855485,-9418.149754
2684.959827,172.283227,114.855485,-9379.864592
2684.960454,76.570323,153.140646,-9418.149754
2684.961082,95.712904,114.855485,-9418.149754
2684.961709,76.570323,133.998066,-9360.722011
2684.962337,57.427742,153.140646,-9360.722011
2684.962964,133.998066,153.140646,-9418.149754
2684.963592,114.855485,133.998066,-9360.722011
2684.964220,153.140646,172.283227,-9379.864592
2684.964847,76.570323,114.855485,-9418.149754
2684.965475,172.283227,133.998066,-9360.722011
2684.966102,76.570323,76.570323,-9379.864592
2684.966730,38.285162,114.855485,-9418.149754
2684.967357,76.570323,172.283227,-9418.149754
2684.967985,76.570323,229.710970,-9418.149754
2684.968612,133.998066,229.710970,-9456.434915
2684.969240,57.427742,191.425808,-9360.722011
2684.969867,38.285162,114.855485,-9418.149754
2684.970495,95.712904,210.568389,-9418.149754
2684.971122,57.427742,248.853550,-9418.149754
2684.971750,114.855485,133.998066,-9360.722011
2684.972377,95.712904,172.283227,-9360.722011
2684.973005,76.570323,153.140646,-9418.149754
2684.973632,133.998066,114.855485,-9418.149754
2684.974260,76.570323,210.568389,-9418.149754
2684.974887,76.570323,191.425808,-9418.149754
2684.975515,95.712904,172.283227,-9360.722011
2684.976142,76.570323,153.140646,-9418.149754
2684.976770,114.855485,95.712904,-9437.292334
2684.977398,114.855485,172.283227,-9418.149754
2684.978025,76.570323,114.855485,-9437.292334
2684.978653,76.570323,114.855485,-9418.149754
2684.979280,76.570323,172.283227,-9437.292334
2684.979908,76.570323,133.998066,-9360.722011
2684.980535,19.142581,95.712904,-9360.722011
2684.981163,133.998066,76.570323,-9322.436850
2684.981790,133.998066,114.855485,-9418.149754
2684.982418,76.570323,172.283227,-9437.292334
2684.983045,19.142581,114.855485,-9418.149754
2684.983673,95.712904,133.998066,-9360.722011
2684.984300,95.712904,133.998066,-9360.722011
2684.984928,95.712904,95.712904,-9399.007173
2684.985555,19.142581,114.855485,-9360.722011
2684.986183,95.712904,133.998066,-9360.722011
2684.986810,76.570323,114.855485,-9379.864592
2684.987438,172.283227,153.140646,-9379.864592
2684.988065,114.855485,133.998066,-9360.722011
2684.988693,133.998066,114.855485,-9418.149754
2684.989320,114.855485,153.140646,-9360.722011
2684.989948,133.998066,114.855485,-9418.149754
2684.990576,95.712904,153.140646,-9360.722011
2684.991203,57.427742,114.855485,-9418.149754
2684.991831,95.712904,172.283227,-9399.007173
2684.992458,38.285162,210.568389,-9418.149754
2684.993086,95.712904,133.998066,-9360.722011
2684.993713,76.570323,114.855485,-9494.720077
2684.994341,38.285162,114.855485,-9418.149754
2684.994968,95.712904,95.712904,-9399.007173
2684.995596,57.427742,95.712904,-9399.007173
2684.996223,76.570323,153.140646,-9418.149754
2684.996851,95.712904,133.998066,-9360.722011
2684.997478,76.570323,114.855485,-9360.722011
2684.998106,95.712904,153.140646,-9360.722011
2684.998733,114.855485,172.283227,-9341.579430
2684.999361,133.998066,133.998066,-9399.007173
2684.999988,114.855485,191.425808,-9379.864592
2685.000616,38.285162,114.855485,-9418.149754
2685.001243,76.570323,114.855485,-9418.149754
2685.001871,95.712904,133.998066,-9360.722011
2685.002499,95.712904,95.712904,-9379.864592
2685.003126,114.855485,133.998066,-9360.722011
2685.003754,114.855485,133.998066,-9360.722011
2685.004381,76.570323,114.855485,-9418.149754
2685.005009,95.712904,210.568389,-9418.149754
2685.005636,76.570323,114.855485,-9418.149754
2685.006264,95.712904,114.855485,-9418.149754
2685.006891,133.998066,114.855485,-9456.434915
2685.007519,133.998066,172.283227,-9399.007173
2685.008146,76.570323,114.855485,-9418.149754
2685.008774,76.570323,114.855485,-9418.149754
2685.009401,95.712904,114.855485,-9399.007173
2685.010029,95.712904,95.712904,-9399.007173
2685.010656,38.285162,114.855485,-9437.292334
2685.011284,76.570323,114.855485,-9418.149754
2685.011911,38.285162,114.855485,-9418.149754
2685.012539,133.998066,153.140646,-9418.149754
2685.013166,38.285162,210.568389,-9437.292334
2685.013794,76.570323,153.140646,-9456.434915
2685.014421,133.998066,114.855485,-9418.149754
2685.015049,133.998066,114.855485,-9418.149754
2685.015677,133.998066,133.998066,-9437.292334
2685.016304,38.285162,172.283227,-9418.149754
2685.016932,76.570323,153.140646,-9418.149754
2685.017559,95.712904,248.853550,-9360.722011
2685.018187,76.570323,114.855485,-9418.149754
2685.018814,133.998066,114.855485,-9418.149754
2685.019442,114.855485,133.998066,-9360.722011
2685.020069,76.570323,76.570323,-9379.864592
2685.020697,76.570323,172.283227,-9418.149754
2685.021325,153.140646,95.712904,-9360.722011
2685.021952,114.855485,153.140646,-9379.864592
2685.022580,76.570323,76.570323,-9379.864592
2685.023207,114.855485,95.712904,-9399.007173
2685.023835,95.712904,114.855485,-9418.149754
2685.024462,76.570323,114.855485,-9456.434915
2685.025090,133.998066,210.568389,-9418.149754
2685.025717,76.570323,114.855485,-9418.149754
2685.026345,38.285162,114.855485,-9418.149754
2685.026973,95.712904,153.140646,-9418.149754
2685.027600,133.998066,114.855485,-9418.149754
2685.028228,133.998066,133.998066,-9418.149754
2685.028855,133.998066,114.855485,-9360.722011
2685.029483,133.998066,153.140646,-9418.149754
2685.030110,57.427742,153.140646,-9418.149754
2685.030738,19.142581,114.855485,-9360.722011
2685.031365,76.570323,133.998066,-9322.436850
2685.031993,95.712904,172.283227,-9360.722011
2685.032621,114.855485,172.283227,-9360.722011
2685.033248,133.998066,114.855485,-9418.149754
2685.033876,95.712904,114.855485,-9418.149754
2685.034503,133.998066,114.855485,-9418.149754
2685.035131,95.712904,191.425808,-9303.294269
2685.035758,38.285162,172.283227,-9360.722011
2685.036386,38.285162,114.855485,-9418.149754
2685.037013,76.570323,114.855485,-9418.149754
2685.037641,95.712904,153.140646,-9360.722011
2685.038269,95.712904,153.140646,-9322.436850
2685.038896,57.427742,172.283227,-9360.722011
2685.039524,95.712904,95.712904,-9399.007173
2685.040151,38.285162,114.855485,-9418.149754
2685.040779,57.427742,95.712904,-9399.007173
2685.041406,76.570323,114.855485,-9418.149754
2685.042034,38.285162,153.140646,-9360.722011
2685.042661,172.283227,114.855485,-9379.864592
2685.043289,95.712904,172.283227,-9418.149754
2685.043917,38.285162,153.140646,-9418.149754
2685.044544,57.427742,172.283227,-9341.579430
2685.045172,38.285162,191.425808,-9418.149754
2685.045799,38.285162,76.570323,-9379.864592
2685.046427,38.285162,172.283227,-9456.434915
2685.047054,76.570323,172.283227,-9418.149754
2685.047682,133.998066,114.855485,-9360.722011
2685.048309,76.570323,210.568389,-9437.292334
2685.048937,57.427742,114.855485,-9418.149754
2685.049565,95.712904,153.140646,-9418.149754
2685.050192,38.285162,114.855485,-9418.149754
2685.050820,95.712904,153.140646,-9360.722011
2685.051447,76.570323,210.568389,-9418.149754
2685.052075,133.998066,114.855485,-9418.149754
2685.052702,38.285162,210.568389,-9418.149754
2685.053330,133.998066,114.855485,-9418.149754
2685.053957,76.570323,114.855485,-9360.722011
2685.054585,133.998066,153.140646,-9418.149754
2685.055213,133.998066,210.568389,-9437.292334
2685.055840,210.568389,153.140646,-9399.007173
2685.056468,153.140646,210.568389,-9399.007173
2685.057095,133.998066,153.140646,-9418.149754
2685.057723,95.712904,172.283227,-9360.722011
2685.058350,133.998066,76.570323,-9379.864592
2685.058978,76.570323,114.855485,-9418.149754
2685.059605,76.570323,114.855485,-9360.722011
2685.060233,0.000000,95.712904,-9399.007173
2685.060861,95.712904,76.570323,-9379.864592
2685.061488,38.285162,114.855485,-9418.149754
2685.062116,76.570323,153.140646,-9418.149754
2685.062743,38.285162,114.855485,-9418.149754
2685.063371,76.570323,133.998066,-9360.722011
2685.063998,133.998066,114.855485,-9418.149754
2685.064626,133.998066,114.855485,-9437.292334
2685.065254,153.140646,133.998066,-9379.864592
2685.065881,153.140646,76.570323,-9379.864592
2685.066509,133.998066,133.998066,-9399.007173
2685.067136,76.570323,153.140646,-9418.149754
2685.067764,114.855485,191.425808,-9360.722011
2685.068391,76.570323,210.568389,-9418.149754
2685.069019,133.998066,210.568389,-9418.149754
2685.069646,76.570323,191.425808,-9456.434915
2685.070274,133.998066,191.425808,-9418.149754
2685.070902,114.855485,133.998066,-9360.722011
2685.071529,76.570323,114.855485,-9456.434915
2685.072157,76.570323,172.283227,-9418.149754
2685.072784,95.712904,114.855485,-9437.292334
2685.073412,76.570323,114.855485,-9418.149754
2685.074039,76.570323,114.855485,-9418.149754
2685.074667,114.855485,172.283227,-9322.436850
2685.075294,76.570323,114.855485,-9418.149754
2685.075922,133.998066,114.855485,-9341.579430
2685.076550,95.712904,133.998066,-9360.722011
2685.077177,133.998066,153.140646,-9418.149754
2685.077805,19.142581,191.425808,-9418.149754
2685.078432,76.570323,229.710970,-9418.149754
2685.079060,38.285162,114.855485,-9418.149754
2685.079687,38.285162,114.855485,-9437.292334
2685.080315,133.998066,114.855485,-9418.149754
2685.080942,76.570323,114.855485,-9418.149754
2685.081570,114.855485,153.140646,-9360.722011
2685.082198,95.712904,210.568389,-9418.149754
2685.082825,133.998066,114.855485,-9418.149754
2685.083453,153.140646,210.568389,-9475.577496
2685.084080,38.285162,114.855485,-9418.149754
2685.084708,57.427742,114.855485,-9418.149754
2685.085335,38.285162,133.998066,-9360.722011
2685.085963,95.712904,172.283227,-9418.149754
2685.086590,76.570323,172.283227,-9418.149754
2685.087218,153.140646,172.283227,-9399.007173
2685.087846,133.998066,114.855485,-9418.149754
2685.088473,133.998066,114.855485,-9418.149754
2685.089101,76.570323,114.855485,-9418.149754
2685.089728,133.998066,114.855485,-9418.149754
2685.090356,57.427742,133.998066,-9360.722011
2685.090983,76.570323,114.855485,-9437.292334
2685.091611,76.570323,153.140646,-9418.149754
2685.092238,76.570323,191.425808,-9418.149754
2685.092866,114.855485,153.140646,-9322.436850
2685.093494,95.712904,172.283227,-9360.722011
2685.094121,133.998066,153.140646,-9399.007173
2685.094749,133.998066,114.855485,-9418.149754
2685.095376,114.855485,172.283227,-9360.722011
2685.096004,76.570323,114.855485,-9418.149754
2685.096631,153.140646,172.283227,-9456.434915
2685.097259,133.998066,210.568389,-9418.149754
2685.097886,76.570323,210.568389,-9437.292334
2685.098514,76.570323,114.855485,-9475.577496
2685.099142,38.285162,114.855485,-9456.434915
2685.099769,76.570323,114.855485,-9360.722011
2685.100397,114.855485,95.712904,-9399.007173
2685.101024,153.140646,114.855485,-9418.149754
2685.101652,76.570323,114.855485,-9418.149754
2685.102279,95.712904,172.283227,-9341.579430
2685.102907,76.570323,172.283227,-9418.149754
2685.103534,133.998066,114.855485,-9418.149754
2685.104162,76.570323,114.855485,-9399.007173
2685.104790,76.570323,114.855485,-9418.149754
2685.105417,95.712904,114.855485,-9418.149754
2685.106045,114.855485,172.283227,-9379.864592
2685.106672,38.285162,153.140646,-9360.722011
2685.107300,114.855485,133.998066,-9360.722011
2685.107927,0.000000,153.140646,-9360.722011
2685.108555,133.998066,114.855485,-9418.149754
2685.109182,38.285162,114.855485,-9418.149754
2685.109810,114.855485,133.998066,-9360.722011
2685.110438,133.998066,172.283227,-9360.722011
2685.111065,133.998066,153.140646,-9418.149754
2685.111693,76.570323,114.855485,-9437.292334
2685.112320,76.570323,114.855485,-9418.149754
2685.112948,114.855485,133.998066,-9360.722011
2685.113575,76.570323,114.855485,-9437.292334
2685.114203,95.712904,95.712904,-9399.007173
2685.114830,76.570323,114.855485,-9418.149754
2685.115458,95.712904,114.855485,-9418.149754
2685.116086,76.570323,114.855485,-9418.149754
2685.116713,76.570323,114.855485,-9418.149754
2685.117341,76.570323,172.283227,-9418.149754
2685.117968,38.285162,153.140646,-9418.149754
2685.118596,76.570323,114.855485,-9360.722011
2685.119224,38.285162,153.140646,-9418.149754
2685.119851,133.998066,114.855485,-9360.722011
2685.120479,76.570323,95.712904,-9399.007173
2685.121106,95.712904,153.140646,-9360.722011
2685.121734,76.570323,114.855485,-9418.149754
2685.122362,133.998066,114.855485,-9418.149754
2685.122989,114.855485,133.998066,-9418.149754
2685.123617,76.570323,172.283227,-9456.434915
2685.124245,133.998066,172.283227,-9418.149754
2685.124872,114.855485,172.283227,-9360.722011
2685.125500,114.855485,172.283227,-9360.722011
2685.126127,114.855485,133.998066,-9360.722011
2685.126755,76.570323,153.140646,-9418.149754
2685.127383,133.998066,172.283227,-9418.149754
2685.128010,76.570323,172.283227,-9437.292334
2685.128638,76.570323,153.140646,-9418.149754
2685.129265,76.570323,114.855485,-9418.149754
2685.129893,153.140646,133.998066,-9399.007173
2685.130521,57.427742,133.998066,-9360.722011
2685.131148,133.998066,114.855485,-9418.149754
2685.131776,172.283227,133.998066,-9418.149754
2685.132403,133.998066,153.140646,-9418.149754
2685.133031,133.998066,133.998066,-9399.007173
2685.133659,38.285162,114.855485,-9418.149754
2685.134286,95.712904,153.140646,-9418.149754
2685.134914,76.570323,114.855485,-9418.149754
2685.135542,95.712904,133.998066,-9360.722011
2685.136169,95.712904,133.998066,-9360.722011
2685.136797,95.712904,210.568389,-9360.722011
2685.137424,76.570323,210.568389,-9418.149754
2685.138052,57.427742,133.998066,-9322.436850
2685.138680,76.570323,114.855485,-9418.149754
2685.139307,57.427742,95.712904,-9399.007173
2685.139935,76.570323,114.855485,-9456.434915
2685.140562,95.712904,114.855485,-9418.149754
2685.141190,76.570323,133.998066,-9418.149754
2685.141818,95.712904,172.283227,-9379.864592
2685.142445,76.570323,114.855485,-9418.149754
2685.143073,133.998066,153.140646,-9418.149754
2685.143700,38.285162,114.855485,-9437.292334
2685.144328,76.570323,114.855485,-9418.149754
2685.144956,114.855485,133.998066,-9360.722011
2685.145583,95.712904,95.712904,-9399.007173
2685.146211,95.712904,133.998066,-9360.722011
2685.146838,76.570323,114.855485,-9418.149754
2685.147466,76.570323,153.140646,-9418.149754
2685.148094,133.998066,133.998066,-9399.007173
2685.148721,133.998066,153.140646,-9418.149754
2685.149349,76.570323,114.855485,-9418.149754
2685.149977,76.570323,114.855485,-9418.149754
2685.150604,114.855485,95.712904,-9399.007173
2685.151232,76.570323,114.855485,-9456.434915
2685.151859,57.427742,133.998066,-9360.722011
2685.152487,133.998066,133.998066,-9399.007173
2685.153115,76.570323,114.855485,-9418.149754
2685.153742,38.285162,114.855485,-9418.149754
2685.154370,133.998066,172.283227,-9418.149754
2685.154997,0.000000,95.712904,-9399.007173
2685.155625,95.712904,114.855485,-9418.149754
2685.156253,57.427742,133.998066,-9360.722011
2685.156880,0.000000,133.998066,-9360.722011
2685.157508,133.998066,172.283227,-9418.149754
2685.158135,57.427742,95.712904,-9399.007173
2685.158763,133.998066,114.855485,-9456.434915
2685.159391,133.998066,114.855485,-9418.149754
2685.160018,38.285162,210.568389,-9418.149754
2685.160646,133.998066,229.710970,-9418.149754
2685.161274,133.998066,172.283227,-9437.292334
2685.161901,133.998066,191.425808,-9379.864592
2685.162529,95.712904,133.998066,-9360.722011
2685.163156,95.712904,133.998066,-9360.722011
2685.163784,172.283227,114.855485,-9322.436850
2685.164412,172.283227,114.855485,-9379.864592
2685.165039,133.998066,153.140646,-9418.149754
2685.165667,76.570323,153.140646,-9418.149754
2685.166294,57.427742,133.998066,-9360.722011
2685.166922,114.855485,153.140646,-9360.722011
2685.167550,133.998066,172.283227,-9399.007173
2685.168177,133.998066,114.855485,-9418.149754
2685.168805,76.570323,172.283227,-9360.722011
2685.169432,57.427742,191.425808,-9360.722011
2685.170060,76.570323,114.855485,-9418.149754
2685.170688,57.427742,133.998066,-9360.722011
2685.171315,76.570323,114.855485,-9418.149754
2685.171943,95.712904,114.855485,-9399.007173
2685.172570,19.142581,114.855485,-9360.722011
2685.173198,76.570323,114.855485,-9418.149754
2685.173826,76.570323,153.140646,-9418.149754
2685.174453,76.570323,114.855485,-9437.292334
2685.175081,76.570323,153.140646,-9418.149754
2685.175709,114.855485,133.998066,-9360.722011
2685.176336,153.140646,133.998066,-9418.149754
2685.176964,114.855485,153.140646,-9360.722011
2685.177591,76.570323,114.855485,-9418.149754
