#time,accel_x,accel_y,accel_z
2596.628292,133.998066,153.140646,-9399.007173
2596.628918,57.427742,153.140646,-9360.722011
2596.629545,133.998066,172.283227,-9418.149754
2596.630172,95.712904,153.140646,-9360.722011
2596.630799,114.855485,133.998066,-9418.149754
2596.631426,153.140646,133.998066,-9399.007173
2596.632053,57.427742,114.855485,-9456.434915
2596.632680,95.712904,95.712904,-9399.007173
2596.633307,57.427742,172.283227,-9360.722011
2596.633934,76.570323,229.710970,-9418.149754
2596.634561,38.285162,210.568389,-9456.434915
2596.635188,38.285162,153.140646,-9456.434915
2596.635815,38.285162,153.140646,-9418.149754
2596.636442,133.998066,210.568389,-9418.149754
2596.637069,95.712904,172.283227,-9360.722011
2596.637696,76.570323,114.855485,-9418.149754
2596.638323,133.998066,114.855485,-9437.292334
2596.638950,76.570323,114.855485,-9418.149754
2596.639576,133.998066,114.855485,-9418.149754
2596.640203,57.427742,133.998066,-9360.722011
2596.640830,133.998066,114.855485,-9418.149754
2596.641457,95.712904,133.998066,-9360.722011
2596.642084,76.570323,114.855485,-9437.292334
2596.642711,57.427742,153.140646,-9360.722011
2596.643338,76.570323,114.855485,-9418.149754
2596.643965,133.998066,114.855485,-9418.149754
2596.644592,95.712904,114.855485,-9418.149754
2596.645219,76.570323,114.855485,-9418.149754
2596.645846,38.285162,114.855485,-9418.149754
2596.646473,133.998066,153.140646,-9418.149754
2596.647100,95.712904,153.140646,-9437.292334
2596.647727,133.998066,114.855485,-9418.149754
2596.648354,76.570323,57.427742,-9379.864592
2596.648981,95.712904,153.140646,-9341.579430
2596.649607,38.285162,114.855485,-9418.149754
2596.650234,38.285162,172.283227,-9418.149754
2596.650861,76.570323,76.570323,-9379.864592
2596.651488,95.712904,114.855485,-9437.292334
2596.652115,133.998066,172.283227,-9418.149754
2596.652742,76.570323,153.140646,-9418.149754
2596.653369,76.570323,114.855485,-9418.149754
2596.653996,95.712904,114.855485,-9418.149754
2596.654623,153.140646,172.283227,-9399.007173
2596.655250,38.285162,114.855485,-9418.149754
2596.655877,133.998066,172.283227,-9418.149754
2596.656504,114.855485,114.855485,-9322.436850
2596.657131,114.855485,95.712904,-9399.007173
2596.657758,-19.142581,153.140646,-9418.149754
2596.658385,76.570323,114.855485,-9418.149754
2596.659012,76.570323,114.855485,-9456.434915
2596.659638,114.855485,153.140646,-9360.722011
2596.660265,95.712904,153.140646,-9418.149754
2596.660892,95.712904,114.855485,-9418.149754
2596.661519,76.570323,114.855485,-9418.149754
2596.662146,76.570323,114.855485,-9437.292334
2596.662773,76.570323,114.855485,-9437.292334
2596.663400,95.712904,95.712904,-9399.007173
2596.664027,95.712904,114.855485,-9437.292334
2596.664654,76.570323,153.140646,-9418.149754
2596.665281,133.998066,76.570323,-9379.864592
2596.665908,172.283227,210.568389,-9379.864592
2596.666535,133.998066,172.283227,-9399.007173
2596.667162,133.998066,114.855485,-9418.149754
2596.667789,38.285162,114.855485,-9418.149754
2596.668416,114.855485,95.712904,-9399.007173
2596.669043,76.570323,153.140646,-9360.722011
2596.669670,76.570323,210.568389,-9418.149754
2596.670296,38.285162,114.855485,-9418.149754
2596.670923,114.855485,95.712904,-9399.007173
2596.671550,133.998066,172.283227,-9418.149754
2596.672177,133.998066,172.283227,-9399.007173
2596.672804,76.570323,172.283227,-9418.149754
2596.673431,95.712904,95.712904,-9399.007173
2596.674058,114.855485,133.998066,-9360.722011
2596.674685,133.998066,114.855485,-9418.149754
2596.675312,133.998066,114.855485,-9418.149754
2596.675939,172.283227,114.855485,-9379.864592
2596.676566,114.855485,133.998066,-9360.722011
2596.677193,133.998066,114.855485,-9418.149754
2596.677820,114.855485,191.425808,-9360.722011
2596.678447,57.427742,153.140646,-9341.579430
2596.679074,133.998066,114.855485,-9418.149754
2596.679701,172.283227,114.855485,-9379.864592
2596.680327,133.998066,172.283227,-9418.149754
2596.680954,38.285162,114.855485,-9418.149754
2596.681581,133.998066,76.570323,-9379.864592
2596.682209,95.712904,95.712904,-9379.864592
2596.682836,95.712904,133.998066,-9418.149754
2596.683464,38.285162,114.855485,-9399.007173
2596.684092,133.998066,114.855485,-9418.149754
2596.684719,114.855485,95.712904,-9399.007173
2596.685347,76.570323,114.855485,-9437.292334
2596.685974,133.998066,114.855485,-9418.149754
2596.686602,153.140646,172.283227,-9418.149754
2596.687229,153.140646,172.283227,-9399.007173
2596.687857,95.712904,133.998066,-9418.149754
2596.688484,76.570323,153.140646,-9418.149754
2596.689112,114.855485,172.283227,-9360.722011
2596.689739,76.570323,114.855485,-9418.149754
2596.690367,114.855485,133.998066,-9360.722011
2596.690994,76.570323,114.855485,-9456.434915
2596.691622,133.998066,114.855485,-9418.149754
2596.692250,153.140646,172.283227,-9399.007173
2596.692877,76.570323,172.283227,-9418.149754
2596.693505,57.427742,153.140646,-9360.722011
2596.694132,76.570323,114.855485,-9418.149754
2596.694760,172.283227,114.855485,-9284.151688
2596.695387,95.712904,133.998066,-9360.722011
2596.696015,57.427742,133.998066,-9341.579430
2596.696642,114.855485,153.140646,-9322.436850
2596.697270,114.855485,133.998066,-9360.722011
2596.697897,76.570323,114.855485,-9418.149754
2596.698525,133.998066,153.140646,-9399.007173
2596.699152,133.998066,133.998066,-9399.007173
2596.699780,76.570323,114.855485,-9418.149754
2596.700408,133.998066,210.568389,-9437.292334
2596.701035,133.998066,172.283227,-9456.434915
2596.701663,76.570323,210.568389,-9418.149754
2596.702290,133.998066,153.140646,-9418.149754
2596.702918,57.427742,133.998066,-9360.722011
2596.703545,153.140646,114.855485,-9418.149754
2596.704173,133.998066,172.283227,-9399.007173
2596.704800,133.998066,172.283227,-9418.149754
2596.705428,153.140646,133.998066,-9399.007173
2596.706055,95.712904,133.998066,-9360.722011
2596.706683,95.712904,133.998066,-9360.722011
2596.707310,76.570323,114.855485,-9456.434915
2596.707938,76.570323,114.855485,-9418.149754
2596.708566,114.855485,133.998066,-9341.579430
2596.709193,57.427742,133.998066,-9360.722011
2596.709821,76.570323,133.998066,-9341.579430
2596.710448,95.712904,153.140646,-9456.434915
2596.711076,114.855485,95.712904,-9399.007173
2596.711703,38.285162,172.283227,-9418.149754
2596.712331,57.427742,95.712904,-9399.007173
2596.712958,76.570323,172.283227,-9418.149754
2596.713586,95.712904,95.712904,-9399.007173
2596.714213,38.285162,210.568389,-9418.149754
2596.714841,76.570323,172.283227,-9418.149754
2596.715469,76.570323,172.283227,-9418.149754
2596.716096,76.570323,95.712904,-9399.007173
2596.716724,114.855485,153.140646,-9341.579430
2596.717351,133.998066,172.283227,-9379.864592
2596.717979,38.285162,114.855485,-9418.149754
2596.718606,133.998066,114.855485,-9341.579430
2596.719234,133.998066,114.855485,-9418.149754
2596.719861,133.998066,114.855485,-9360.722011
2596.720489,95.712904,133.998066,-9360.722011
2596.721116,133.998066,114.855485,-9418.149754
2596.721744,38.285162,114.855485,-9418.149754
2596.722371,133.998066,114.855485,-9456.434915
2596.722999,57.427742,133.998066,-9360.722011
2596.723627,0.000000,114.855485,-9379.864592
2596.724254,133.998066,172.283227,-9418.149754
2596.724882,95.712904,172.283227,-9360.722011
2596.725509,95.712904,210.568389,-9437.292334
2596.726137,133.998066,153.140646,-9418.149754
2596.726764,76.570323,210.568389,-9418.149754
2596.727392,76.570323,153.140646,-9418.149754
2596.728019,114.855485,95.712904,-9437.292334
2596.728647,114.855485,95.712904,-9399.007173
2596.729274,76.570323,114.855485,-9418.149754
2596.729902,76.570323,114.855485,-9418.149754
2596.730529,76.570323,114.855485,-9437.292334
2596.731157,76.570323,114.855485,-9360.722011
2596.731785,133.998066,153.140646,-9399.007173
2596.732412,133.998066,153.140646,-9418.149754
2596.733040,76.570323,114.855485,-9418.149754
2596.733667,76.570323,153.140646,-9418.149754
2596.734295,153.140646,210.568389,-9399.007173
2596.734922,95.712904,172.283227,-9360.722011
2596.735550,95.712904,153.140646,-9360.722011
2596.736177,76.570323,114.855485,-9418.149754
2596.736805,38.285162,76.570323,-9379.864592
2596.737432,133.998066,114.855485,-9418.149754
2596.738060,76.570323,114.855485,-9418.149754
2596.738688,133.998066,153.140646,-9418.149754
2596.739315,114.855485,133.998066,-9360.722011
2596.739943,76.570323,114.855485,-9437.292334
2596.740570,76.570323,114.855485,-9418.149754
2596.741198,19.142581,191.425808,-9418.149754
2596.741825,133.998066,172.283227,-9418.149754
2596.742453,133.998066,114.855485,-9418.149754
2596.743080,133.998066,114.855485,-9418.149754
2596.743708,38.285162,76.570323,-9379.864592
2596.744335,114.855485,95.712904,-9399.007173
2596.744963,38.285162,172.283227,-9418.149754
2596.745590,95.712904,133.998066,-9360.722011
2596.746218,114.855485,172.283227,-9379.864592
2596.746846,133.998066,76.570323,-9379.864592
2596.747473,133.998066,114.855485,-9418.149754
2596.748101,76.570323,114.855485,-9418.149754
2596.748728,95.712904,191.425808,-9360.722011
2596.749356,76.570323,172.283227,-9360.722011
2596.749983,57.427742,172.283227,-9456.434915
2596.750611,57.427742,172.283227,-9418.149754
2596.751238,133.998066,114.855485,-9418.149754
2596.751866,76.570323,114.855485,-9418.149754
2596.752493,76.570323,153.140646,-9418.149754
2596.753121,95.712904,133.998066,-9360.722011
2596.753748,133.998066,210.568389,-9418.149754
2596.754376,76.570323,172.283227,-9418.149754
2596.755004,76.570323,114.855485,-9418.149754
2596.755631,76.570323,172.283227,-9360.722011
2596.756259,95.712904,191.425808,-9360.722011
2596.756886,133.998066,172.283227,-9418.149754
2596.757514,76.570323,210.568389,-9418.149754
2596.758141,76.570323,172.283227,-9418.149754
2596.758769,95.712904,172.283227,-9418.149754
2596.759396,210.568389,133.998066,-9399.007173
2596.760024,172.283227,172.283227,-9379.864592
2596.760651,133.998066,114.855485,-9418.149754
2596.761279,133.998066,114.855485,-9418.149754
2596.761907,76.570323,114.855485,-9418.149754
2596.762534,76.570323,114.855485,-9418.149754
2596.763162,95.712904,172.283227,-9360.722011
2596.763789,133.998066,114.855485,-9437.292334
2596.764417,95.712904,133.998066,-9360.722011
2596.765044,133.998066,133.998066,-9399.007173
2596.765672,76.570323,210.568389,-9418.149754
2596.766299,76.570323,153.140646,-9418.149754
2596.766927,38.285162,114.855485,-9418.149754
2596.767554,76.570323,114.855485,-9418.149754
2596.768182,95.712904,95.712904,-9399.007173
2596.768809,114.855485,191.425808,-9360.722011
2596.769437,95.712904,133.998066,-9360.722011
2596.770065,76.570323,114.855485,-9418.149754
2596.770692,95.712904,76.570323,-9360.722011
2596.771320,76.570323,172.283227,-9418.149754
2596.771947,153.140646,133.998066,-9456.434915
2596.772575,95.712904,133.998066,-9360.722011
2596.773202,114.855485,133.998066,-9360.722011
2596.773830,76.570323,172.283227,-9418.149754
2596.774457,133.998066,153.140646,-9437.292334
2596.775085,133.998066,114.855485,-9360.722011
2596.775712,76.570323,114.855485,-9418.149754
2596.776340,0.000000,133.998066,-9360.722011
2596.776967,38.285162,114.855485,-9418.149754
2596.777595,95.712904,133.998066,-9360.722011
2596.778223,38.285162,95.712904,-9399.007173
2596.778850,153.140646,153.140646,-9399.007173
2596.779478,210.568389,248.853550,-9379.864592
2596.780105,95.712904,133.998066,-9360.722011
2596.780733,133.998066,153.140646,-9418.149754
2596.781360,114.855485,153.140646,-9360.722011
2596.781988,95.712904,153.140646,-9418.149754
2596.782616,133.998066,114.855485,-9418.149754
2596.783244,76.570323,114.855485,-9418.149754
2596.783872,76.570323,172.283227,-9418.149754
2596.784500,133.998066,153.140646,-9399.007173
2596.785128,57.427742,153.140646,-9360.722011
2596.785757,76.570323,153.140646,-9418.149754
2596.786385,76.570323,153.140646,-9418.149754
2596.787013,133.998066,114.855485,-9418.149754
2596.787641,114.855485,172.283227,-9360.722011
2596.788269,38.285162,114.855485,-9418.149754
2596.788897,133.998066,114.855485,-9418.149754
2596.789525,57.427742,133.998066,-9360.722011
2596.790153,95.712904,95.712904,-9399.007173
2596.790782,95.712904,114.855485,-9418.149754
2596.791410,95.712904,133.998066,-9322.436850
2596.792038,172.283227,114.855485,-9379.864592
2596.792666,133.998066,172.283227,-9418.149754
2596.793294,95.712904,133.998066,-9360.722011
2596.793922,57.427742,133.998066,-9418.149754
2596.794550,76.570323,133.998066,-9360.722011
2596.795179,133.998066,114.855485,-9360.722011
2596.795807,114.855485,153.140646,-9360.722011
2596.796435,38.285162,114.855485,-9418.149754
2596.797063,57.427742,133.998066,-9360.722011
2596.797691,38.285162,114.855485,-9418.149754
2596.798319,76.570323,153.140646,-9418.149754
2596.798947,133.998066,172.283227,-9418.149754
2596.799575,76.570323,114.855485,-9418.149754
2596.800204,133.998066,153.140646,-9418.149754
2596.800832,76.570323,114.855485,-9418.149754
2596.801460,76.570323,133.998066,-9399.007173
2596.802088,38.285162,114.855485,-9418.149754
2596.802716,38.285162,114.855485,-9418.149754
2596.803344,38.285162,114.855485,-9418.149754
2596.803972,95.712904,95.712904,-9399.007173
2596.804600,133.998066,114.855485,-9418.149754
2596.805229,114.855485,191.425808,-9360.722011
2596.805857,38.285162,114.855485,-9418.149754
2596.806485,57.427742,95.712904,-9399.007173
2596.807113,133.998066,76.570323,-9379.864592
2596.807741,133.998066,153.140646,-9418.149754
2596.808369,114.855485,153.140646,-9360.722011
2596.808997,76.570323,153.140646,-9418.149754
2596.809625,95.712904,191.425808,-9360.722011
2596.810254,95.712904,248.853550,-9341.579430
2596.810882,0.000000,133.998066,-9360.722011
2596.811510,153.140646,153.140646,-9418.149754
2596.812138,133.998066,114.855485,-9418.149754
2596.812766,133.998066,114.855485,-9418.149754
2596.813394,133.998066,114.855485,-9418.149754
2596.814022,76.570323,172.283227,-9418.149754
2596.814651,133.998066,114.855485,-9418.149754
2596.815279,114.855485,95.712904,-9399.007173
2596.815907,76.570323,114.855485,-9418.149754
2596.816535,76.570323,191.425808,-9418.149754
2596.817163,133.998066,114.855485,-9418.149754
2596.817791,76.570323,114.855485,-9437.292334
2596.818419,76.570323,114.855485,-9418.149754
2596.819047,76.570323,210.568389,-9360.722011
2596.819676,19.142581,153.140646,-9437.292334
2596.820304,95.712904,153.140646,-9360.722011
2596.820932,38.285162,114.855485,-9418.149754
2596.821560,76.570323,114.855485,-9418.149754
2596.822188,76.570323,114.855485,-9418.149754
2596.822816,38.285162,114.855485,-9418.149754
2596.823444,133.998066,114.855485,-9437.292334
2596.824072,133.998066,114.855485,-9418.149754
2596.824701,133.998066,114.855485,-9418.149754
2596.825329,114.855485,133.998066,-9418.149754
2596.825957,76.570323,153.140646,-9360.722011
2596.826585,38.285162,114.855485,-9418.149754
2596.827213,38.285162,172.283227,-9437.292334
2596.827841,76.570323,114.855485,-9418.149754
2596.828469,133.998066,114.855485,-9418.149754
2596.829097,133.998066,114.855485,-9456.434915
2596.829726,153.140646,133.998066,-9399.007173
2596.830354,76.570323,210.568389,-9360.722011
2596.830982,95.712904,133.998066,-9360.722011
2596.831610,95.712904,114.855485,-9418.149754
2596.832238,114.855485,76.570323,-9418.149754
2596.832866,76.570323,114.855485,-9475.577496
2596.833494,57.427742,172.283227,-9360.722011
2596.834123,76.570323,172.283227,-9418.149754
2596.834751,76.570323,172.283227,-9418.149754
2596.835379,76.570323,153.140646,-9418.149754
2596.836007,95.712904,95.712904,-9456.434915
2596.836635,133.998066,153.140646,-9418.149754
2596.837263,76.570323,114.855485,-9418.149754
2596.837891,153.140646,133.998066,-9399.007173
2596.838519,95.712904,210.568389,-9360.722011
2596.839148,95.712904,133.998066,-9341.579430
2596.839776,38.285162,114.855485,-9418.149754
2596.840404,57.427742,114.855485,-9418.149754
2596.841032,76.570323,114.855485,-9418.149754
2596.841660,76.570323,76.570323,-9379.864592
2596.842288,133.998066,95.712904,-9418.149754
2596.842916,133.998066,114.855485,-9437.292334
2596.843544,95.712904,153.140646,-9360.722011
2596.844173,153.140646,133.998066,-9399.007173
2596.844801,133.998066,114.855485,-9418.149754
2596.845429,114.855485,133.998066,-9360.722011
2596.846057,38.285162,114.855485,-9418.149754
2596.846685,133.998066,114.855485,-9418.149754
2596.847313,114.855485,153.140646,-9360.722011
2596.847941,76.570323,114.855485,-9418.149754
2596.848570,76.570323,114.855485,-9418.149754
2596.849198,114.855485,133.998066,-9399.007173
2596.849826,38.285162,172.283227,-9437.292334
2596.850454,95.712904,191.425808,-9360.722011
2596.851082,76.570323,114.855485,-9418.149754
2596.851710,95.712904,210.568389,-9418.149754
2596.852338,76.570323,114.855485,-9418.149754
2596.852966,38.285162,172.283227,-9418.149754
2596.853595,76.570323,172.283227,-9418.149754
2596.854223,76.570323,114.855485,-9418.149754
2596.854851,57.427742,172.283227,-9456.434915
2596.855479,95.712904,210.568389,-9418.149754
2596.856107,133.998066,229.710970,-9418.149754
2596.856735,95.712904,248.853550,-9360.722011
2596.857363,153.140646,133.998066,-9399.007173
2596.857991,133.998066,172.283227,-9418.149754
2596.858620,114.855485,133.998066,-9360.722011
2596.859248,114.855485,133.998066,-9360.722011
2596.859876,133.998066,114.855485,-9418.149754
2596.860504,95.712904,114.855485,-9418.149754
2596.861132,38.285162,114.855485,-9418.149754
2596.861760,133.998066,114.855485,-9418.149754
2596.862388,114.855485,172.283227,-9379.864592
2596.863016,133.998066,172.283227,-9418.149754
2596.863645,133.998066,172.283227,-9418.149754
2596.864273,133.998066,133.998066,-9399.007173
2596.864901,133.998066,210.568389,-9418.149754
2596.865529,133.998066,153.140646,-9360.722011
2596.866157,38.285162,114.855485,-9418.149754
2596.866785,95.712904,95.712904,-9399.007173
2596.867413,76.570323,95.712904,-9399.007173
2596.868042,76.570323,114.855485,-9418.149754
2596.868670,76.570323,210.568389,-9418.149754
2596.869298,38.285162,172.283227,-9418.149754
2596.869926,114.855485,114.855485,-9379.864592
2596.870554,153.140646,153.140646,-9399.007173
2596.871182,153.140646,172.283227,-9399.007173
2596.871810,114.855485,114.855485,-9379.864592
2596.872438,76.570323,153.140646,-9418.149754
2596.873067,153.140646,133.998066,-9399.007173
2596.873695,153.140646,153.140646,-9399.007173
2596.874323,133.998066,172.283227,-9418.149754
2596.874951,114.855485,133.998066,-9360.722011
2596.875579,76.570323,114.855485,-9360.722011
2596.876207,38.285162,172.283227,-9399.007173
2596.876835,76.570323,114.855485,-9418.149754
2596.877463,76.570323,114.855485,-9456.434915
2596.878092,0.000000,133.998066,-9360.722011
2596.878720,114.855485,76.570323,-9379.864592
2596.879348,153.140646,153.140646,-9399.007173
2596.879976,153.140646,133.998066,-9399.007173
2596.880604,76.570323,153.140646,-9360.722011
2596.881232,114.855485,133.998066,-9360.722011
2596.881860,57.427742,153.140646,-9360.722011
2596.882488,19.142581,210.568389,-9418.149754
2596.883116,76.570323,114.855485,-9437.292334
2596.883744,76.570323,114.855485,-9418.149754
2596.884372,38.285162,114.855485,-9418.149754
2596.885000,38.285162,114.855485,-9418.149754
2596.885628,76.570323,210.568389,-9418.149754
2596.886255,114.855485,172.283227,-9360.722011
2596.886883,38.285162,172.283227,-9418.149754
2596.887511,133.998066,114.855485,-9418.149754
2596.888139,172.283227,76.570323,-9418.149754
2596.888767,76.570323,210.568389,-9418.149754
2596.889395,133.998066,114.855485,-9418.149754
2596.890022,76.570323,114.855485,-9418.149754
2596.890650,76.570323,114.855485,-9418.149754
2596.891278,76.570323,114.855485,-9418.149754
2596.891906,38.285162,114.855485,-9418.149754
2596.892534,57.427742,210.568389,-9360.722011
2596.893162,38.285162,153.140646,-9418.149754
2596.893789,76.570323,114.855485,-9418.149754
2596.894417,95.712904,95.712904,-9399.007173
2596.895045,38.285162,114.855485,-9418.149754
2596.895673,76.570323,172.283227,-9418.149754
2596.896301,95.712904,114.855485,-9418.149754
2596.896929,38.285162,114.855485,-9437.292334
2596.897556,76.570323,114.855485,-9418.149754
2596.898184,133.998066,114.855485,-9418.149754
2596.898812,76.570323,114.855485,-9418.149754
2596.899440,38.285162,114.855485,-9418.149754
2596.900068,133.998066,95.712904,-9360.722011
2596.900696,133.998066,172.283227,-9418.149754
2596.901323,76.570323,210.568389,-9418.149754
2596.901951,76.570323,153.140646,-9418.149754
2596.902579,133.998066,114.855485,-9418.149754
2596.903207,133.998066,172.283227,-9418.149754
2596.903835,95.712904,133.998066,-9360.722011
2596.904463,133.998066,114.855485,-9418.149754
2596.905090,76.570323,114.855485,-9418.149754
2596.905718,76.570323,210.568389,-9341.579430
2596.906346,76.570323,210.568389,-9418.149754
2596.906974,38.285162,114.855485,-9418.149754
2596.907602,95.712904,191.425808,-9360.722011
2596.908230,38.285162,114.855485,-9494.720077
2596.908857,114.855485,95.712904,-9399.007173
2596.909485,95.712904,95.712904,-9437.292334
2596.910113,76.570323,114.855485,-9418.149754
2596.910741,76.570323,114.855485,-9418.149754
2596.911369,95.712904,114.855485,-9418.149754
2596.911997,76.570323,114.855485,-9418.149754
2596.912624,95.712904,95.712904,-9399.007173
2596.913252,76.570323,172.283227,-9360.722011
2596.913880,57.427742,210.568389,-9379.864592
2596.914508,57.427742,172.283227,-9360.722011
2596.915136,76.570323,153.140646,-9418.149754
2596.915764,114.855485,133.998066,-9360.722011
2596.916391,76.570323,114.855485,-9418.149754
2596.917019,95.712904,172.283227,-9418.149754
2596.917647,76.570323,172.283227,-9418.149754
2596.918275,76.570323,172.283227,-9418.149754
2596.918903,76.570323,114.855485,-9418.149754
2596.919531,114.855485,76.570323,-9418.149754
2596.920158,38.285162,114.855485,-9456.434915
2596.920786,76.570323,114.855485,-9418.149754
2596.921414,38.285162,133.998066,-9360.722011
2596.922042,95.712904,95.712904,-9399.007173
2596.922670,76.570323,114.855485,-9418.149754
2596.923298,38.285162,114.855485,-9418.149754
2596.923925,95.712904,133.998066,-9360.722011
2596.924553,76.570323,76.570323,-9379.864592
2596.925181,114.855485,95.712904,-9399.007173
2596.925809,133.998066,114.855485,-9437.292334
2596.926437,38.285162,114.855485,-9456.434915
2596.927065,38.285162,114.855485,-9418.149754
2596.927692,57.427742,95.712904,-9399.007173
2596.928320,133.998066,114.855485,-9418.149754
2596.928948,133.998066,133.998066,-9399.007173
2596.929576,153.140646,133.998066,-9399.007173
2596.930204,76.570323,153.140646,-9418.149754
2596.930832,133.998066,114.855485,-9418.149754
2596.931459,133.998066,133.998066,-9399.007173
2596.932087,114.855485,153.140646,-9379.864592
2596.932715,57.427742,133.998066,-9360.722011
2596.933343,19.142581,114.855485,-9418.149754
2596.933971,76.570323,114.855485,-9418.149754
2596.934599,95.712904,114.855485,-9360.722011
2596.935226,133.998066,172.283227,-9418.149754
2596.935854,114.855485,133.998066,-9360.722011
2596.936482,133.998066,133.998066,-9399.007173
2596.937110,38.285162,153.140646,-9418.149754
2596.937738,114.855485,191.425808,-9360.722011
2596.938366,95.712904,172.283227,-9360.722011
2596.938993,133.998066,172.283227,-9418.149754
2596.939621,153.140646,153.140646,-9399.007173
2596.940249,76.570323,172.283227,-9418.149754
2596.940877,76.570323,153.140646,-9360.722011
2596.941505,76.570323,114.855485,-9360.722011
2596.942133,133.998066,114.855485,-9360.722011
2596.942760,133.998066,114.855485,-9437.292334
2596.943388,133.998066,114.855485,-9418.149754
2596.944016,95.712904,95.712904,-9399.007173
2596.944644,133.998066,76.570323,-9322.436850
2596.945272,76.570323,210.568389,-9456.434915
2596.945900,57.427742,153.140646,-9360.722011
2596.946527,76.570323,153.140646,-9418.149754
2596.947155,133.998066,114.855485,-9418.149754
2596.947783,76.570323,210.568389,-9418.149754
2596.948411,153.140646,153.140646,-9399.007173
2596.949039,76.570323,114.855485,-9418.149754
2596.949667,133.998066,133.998066,-9379.864592
2596.950294,76.570323,133.998066,-9360.722011
2596.950922,114.855485,133.998066,-9341.579430
2596.951550,133.998066,172.283227,-9456.434915
2596.952178,76.570323,114.855485,-9418.149754
2596.952806,76.570323,114.855485,-9418.149754
2596.953434,95.712904,133.998066,-9360.722011
2596.954061,76.570323,114.855485,-9418.149754
2596.954689,76.570323,76.570323,-9379.864592
2596.955317,95.712904,133.998066,-9360.722011
2596.955945,76.570323,210.568389,-9418.149754
2596.956573,38.285162,172.283227,-9437.292334
2596.957201,133.998066,153.140646,-9456.434915
2596.957828,76.570323,114.855485,-9456.434915
2596.958456,76.570323,172.283227,-9418.149754
2596.959084,38.285162,210.568389,-9360.722011
2596.959712,95.712904,114.855485,-9418.149754
2596.960340,38.285162,114.855485,-9418.149754
2596.960968,76.570323,114.855485,-9475.577496
2596.961595,76.570323,210.568389,-9418.149754
2596.962223,38.285162,153.140646,-9418.149754
2596.962851,76.570323,76.570323,-9379.864592
2596.963479,76.570323,114.855485,-9418.149754
2596.964107,133.998066,172.283227,-9418.149754
2596.964735,133.998066,114.855485,-9418.149754
2596.965362,57.427742,95.712904,-9399.007173
2596.965990,76.570323,114.855485,-9437.292334
2596.966618,76.570323,172.283227,-9418.149754
2596.967246,133.998066,114.855485,-9418.149754
2596.967874,38.285162,153.140646,-9418.149754
2596.968502,114.855485,133.998066,-9360.722011
2596.969129,133.998066,114.855485,-9437.292334
2596.969757,95.712904,153.140646,-9418.149754
2596.970385,38.285162,153.140646,-9437.292334
2596.971013,172.283227,76.570323,-9418.149754
2596.971641,76.570323,114.855485,-9418.149754
2596.972269,95.712904,153.140646,-9341.579430
2596.972896,76.570323,114.855485,-9418.149754
2596.973524,76.570323,114.855485,-9418.149754
2596.974152,114.855485,76.570323,-9360.722011
2596.974780,76.570323,114.855485,-9418.149754
2596.975408,95.712904,133.998066,-9360.722011
2596.976036,57.427742,172.283227,-9341.579430
2596.976663,57.427742,133.998066,-9360.722011
2596.977291,114.855485,95.712904,-9399.007173
2596.977919,114.855485,114.855485,-9360.722011
2596.978547,172.283227,76.570323,-9418.149754
2596.979175,133.998066,114.855485,-9418.149754
2596.979803,95.712904,133.998066,-9360.722011
2596.980430,133.998066,114.855485,-9418.149754
2596.981058,114.855485,133.998066,-9360.722011
2596.981686,95.712904,114.855485,-9456.434915
2596.982314,76.570323,172.283227,-9418.149754
2596.982942,114.855485,153.140646,-9360.722011
2596.983570,133.998066,191.425808,-9399.007173
2596.984197,57.427742,114.855485,-9418.149754
2596.984825,133.998066,114.855485,-9418.149754
2596.985453,76.570323,114.855485,-9418.149754
2596.986081,95.712904,95.712904,-9399.007173
2596.986709,38.285162,114.855485,-9418.149754
2596.987337,76.570323,114.855485,-9360.722011
2596.987964,133.998066,153.140646,-9399.007173
2596.988592,38.285162,133.998066,-9360.722011
2596.989220,133.998066,114.855485,-9418.149754
2596.989847,133.998066,172.283227,-9399.007173
2596.990475,133.998066,191.425808,-9418.149754
2596.991103,95.712904,153.140646,-9360.722011
2596.991730,76.570323,114.855485,-9418.149754
2596.992358,133.998066,114.855485,-9437.292334
2596.992986,95.712904,153.140646,-9418.149754
2596.993613,76.570323,95.712904,-9399.007173
2596.994241,95.712904,172.283227,-9418.149754
2596.994869,95.712904,114.855485,-9418.149754
2596.995496,57.427742,229.710970,-9456.434915
2596.996124,19.142581,153.140646,-9418.149754
2596.996752,57.427742,95.712904,-9399.007173
2596.997379,210.568389,248.853550,-9379.864592
2596.998007,133.998066,153.140646,-9418.149754
2596.998635,133.998066,153.140646,-9418.149754
2596.999262,76.570323,114.855485,-9418.149754
2596.999890,76.570323,114.855485,-9418.149754
2597.000518,76.570323,114.855485,-9418.149754
2597.001146,114.855485,172.283227,-9360.722011
2597.001773,114.855485,133.998066,-9360.722011
2597.002401,76.570323,114.855485,-9418.149754
2597.003029,133.998066,114.855485,-9418.149754
2597.003656,95.712904,114.855485,-9456.434915
2597.004284,76.570323,114.855485,-9418.149754
2597.004912,57.427742,133.998066,-9360.722011
2597.005539,133.998066,114.855485,-9418.149754
2597.006167,38.285162,114.855485,-9437.292334
2597.006795,172.283227,114.855485,-9379.864592
2597.007422,76.570323,172.283227,-9418.149754
2597.008050,76.570323,114.855485,-9456.434915
2597.008678,76.570323,153.140646,-9418.149754
2597.009305,133.998066,114.855485,-9418.149754
2597.009933,95.712904,114.855485,-9418.149754
2597.010561,57.427742,210.568389,-9360.722011
2597.011188,133.998066,114.855485,-9418.149754
2597.011816,133.998066,172.283227,-9360.722011
2597.012444,114.855485,153.140646,-9360.722011
2597.013071,153.140646,153.140646,-9456.434915
2597.013699,76.570323,153.140646,-9418.149754
2597.014327,76.570323,153.140646,-9418.149754
2597.014954,76.570323,114.855485,-9418.149754
2597.015582,133.998066,153.140646,-9418.149754
2597.016210,133.998066,114.855485,-9418.149754
2597.016837,133.998066,114.855485,-9418.149754
2597.017465,114.855485,95.712904,-9399.007173
2597.018093,76.570323,153.140646,-9418.149754
2597.018720,76.570323,210.568389,-9418.149754
2597.019348,153.140646,133.998066,-9399.007173
2597.019976,153.140646,191.425808,-9399.007173
2597.020603,76.570323,172.283227,-9418.149754
2597.021231,76.570323,210.568389,-9418.149754
2597.021859,76.570323,114.855485,-9418.149754
2597.022486,95.712904,95.712904,-9494.720077
2597.023114,95.712904,95.712904,-9399.007173
2597.023742,57.427742,133.998066,-9360.722011
2597.024369,38.285162,114.855485,-9418.149754
2597.024997,114.855485,133.998066,-9360.722011
2597.025625,133.998066,114.855485,-9418.149754
2597.026252,76.570323,114.855485,-9418.149754
2597.026880,95.712904,114.855485,-9456.434915
2597.027508,76.570323,172.283227,-9360.722011
2597.028135,114.855485,172.283227,-9379.864592
2597.028763,76.570323,153.140646,-9418.149754
2597.029391,76.570323,172.283227,-9418.149754
2597.030018,133.998066,114.855485,-9418.149754
2597.030646,76.570323,191.425808,-9418.149754
2597.031274,95.712904,172.283227,-9360.722011
2597.031901,95.712904,172.283227,-9360.722011
2597.032529,95.712904,133.998066,-9360.722011
2597.033157,38.285162,114.855485,-9418.149754
2597.033784,76.570323,114.855485,-9437.292334
2597.034412,76.570323,114.855485,-9418.149754
2597.035040,38.285162,153.140646,-9418.149754
2597.035667,133.998066,114.855485,-9456.434915
2597.036295,76.570323,114.855485,-9418.149754
2597.036923,95.712904,248.853550,-9322.436850
2597.037550,95.712904,153.140646,-9360.722011
2597.038178,95.712904,153.140646,-9360.722011
2597.038806,133.998066,114.855485,-9418.149754
2597.039433,133.998066,114.855485,-9437.292334
2597.040061,38.285162,114.855485,-9418.149754
2597.040689,95.712904,133.998066,-9360.722011
2597.041316,57.427742,248.853550,-9360.722011
2597.041944,114.855485,172.283227,-9360.722011
2597.042572,133.998066,114.855485,-9418.149754
2597.043200,38.285162,114.855485,-9418.149754
2597.043827,0.000000,76.570323,-9418.149754
2597.044455,95.712904,114.855485,-9418.149754
2597.045083,76.570323,133.998066,-9418.149754
2597.045710,114.855485,95.712904,-9379.864592
2597.046338,114.855485,133.998066,-9360.722011
2597.046966,95.712904,191.425808,-9360.722011
2597.047593,76.570323,114.855485,-9418.149754
2597.048221,38.285162,114.855485,-9418.149754
2597.048849,38.285162,114.855485,-9418.149754
2597.049476,76.570323,172.283227,-9418.149754
2597.050104,76.570323,114.855485,-9418.149754
2597.050732,57.427742,133.998066,-9360.722011
2597.051359,133.998066,114.855485,-9360.722011
2597.051987,76.570323,114.855485,-9418.149754
2597.052615,76.570323,133.998066,-9418.149754
2597.053242,114.855485,133.998066,-9360.722011
2597.053870,114.855485,133.998066,-9360.722011
2597.054498,76.570323,114.855485,-9418.149754
2597.055125,95.712904,114.855485,-9494.720077
2597.055753,57.427742,172.283227,-9360.722011
2597.056381,38.285162,114.855485,-9360.722011
2597.057008,76.570323,153.140646,-9418.149754
2597.057636,114.855485,114.855485,-9437.292334
2597.058264,76.570323,114.855485,-9418.149754
2597.058891,95.712904,153.140646,-9360.722011
2597.059519,114.855485,95.712904,-9399.007173
2597.060147,153.140646,133.998066,-9399.007173
2597.060774,114.855485,95.712904,-9456.434915
2597.061402,38.285162,114.855485,-9418.149754
2597.062030,38.285162,114.855485,-9418.149754
2597.062657,38.285162,76.570323,-9379.864592
2597.063285,133.998066,133.998066,-9379.864592
2597.063913,57.427742,114.855485,-9360.722011
2597.064540,57.427742,153.140646,-9360.722011
2597.065168,76.570323,210.568389,-9418.149754
2597.065796,76.570323,172.283227,-9418.149754
2597.066423,133.998066,210.568389,-9418.149754
2597.067051,76.570323,114.855485,-9418.149754
2597.067679,76.570323,172.283227,-9360.722011
2597.068306,133.998066,172.283227,-9360.722011
2597.068934,76.570323,153.140646,-9475.577496
2597.069562,114.855485,172.283227,-9360.722011
2597.070189,76.570323,114.855485,-9437.292334
2597.070817,76.570323,95.712904,-9437.292334
2597.071445,76.570323,95.712904,-9494.720077
2597.072072,133.998066,114.855485,-9418.149754
2597.072700,114.855485,95.712904,-9399.007173
2597.073328,57.427742,172.283227,-9360.722011
2597.073955,76.570323,114.855485,-9418.149754
2597.074583,76.570323,114.855485,-9418.149754
2597.075211,57.427742,133.998066,-9341.579430
2597.075838,114.855485,133.998066,-9360.722011
2597.076466,76.570323,153.140646,-9418.149754
2597.077094,76.570323,114.855485,-9418.149754
2597.077721,133.998066,191.425808,-9418.149754
2597.078349,76.570323,172.283227,-9418.149754
2597.078977,76.570323,114.855485,-9418.149754
2597.079604,133.998066,114.855485,-9418.149754
2597.080232,153.140646,133.998066,-9399.007173
2597.080860,114.855485,153.140646,-9322.436850
2597.081487,76.570323,114.855485,-9418.149754
2597.082115,76.570323,114.855485,-9418.149754
2597.082743,133.998066,114.855485,-9418.149754
2597.083370,133.998066,114.855485,-9456.434915
2597.083998,133.998066,114.855485,-9418.149754
2597.084626,133.998066,114.855485,-9418.149754
2597.085253,114.855485,95.712904,-9399.007173
2597.085881,76.570323,114.855485,-9456.434915
2597.086509,38.285162,114.855485,-9418.149754
2597.087137,114.855485,133.998066,-9360.722011
2597.087764,114.855485,153.140646,-9360.722011
2597.088392,133.998066,114.855485,-9418.149754
2597.089019,133.998066,172.283227,-9437.292334
2597.089647,153.140646,133.998066,-9456.434915
2597.090274,95.712904,95.712904,-9399.007173
2597.090901,133.998066,172.283227,-9418.149754
2597.091529,76.570323,153.140646,-9456.434915
2597.092156,57.427742,172.283227,-9418.149754
2597.092783,76.570323,114.855485,-9437.292334
2597.093411,76.570323,153.140646,-9418.149754
2597.094038,57.427742,133.998066,-9360.722011
2597.094665,95.712904,172.283227,-9418.149754
2597.095293,38.285162,172.283227,-9418.149754
2597.095920,76.570323,76.570323,-9379.864592
2597.096548,133.998066,114.855485,-9418.149754
2597.097175,133.998066,172.283227,-9418.149754
2597.097802,153.140646,153.140646,-9399.007173
2597.098430,95.712904,191.425808,-9360.722011
2597.099057,57.427742,172.283227,-9418.149754
2597.099684,76.570323,114.855485,-9360.722011
2597.100312,38.285162,172.283227,-9360.722011
2597.100939,38.285162,114.855485,-9418.149754
2597.101566,95.712904,133.998066,-9360.722011
2597.102194,57.427742,95.712904,-9399.007173
2597.102821,95.712904,133.998066,-9360.722011
2597.103448,76.570323,114.855485,-9418.149754
2597.104076,38.285162,114.855485,-9418.149754
2597.104703,38.285162,191.425808,-9379.864592
2597.105331,76.570323,172.283227,-9418.149754
2597.105958,76.570323,114.855485,-9418.149754
2597.106585,76.570323,114.855485,-9418.149754
2597.107213,95.712904,114.855485,-9418.149754
2597.107840,114.855485,95.712904,-9437.292334
2597.108467,153.140646,133.998066,-9399.007173
2597.109095,114.855485,133.998066,-9360.722011
2597.109722,114.855485,114.855485,-9379.864592
2597.110349,133.998066,229.710970,-9418.149754
2597.110977,76.570323,114.855485,-9437.292334
2597.111604,76.570323,191.425808,-9418.149754
2597.112231,133.998066,172.283227,-9418.149754
2597.112859,95.712904,172.283227,-9360.722011
2597.113486,114.855485,172.283227,-9379.864592
2597.114114,114.855485,191.425808,-9360.722011
2597.114741,153.140646,133.998066,-9456.434915
2597.115368,76.570323,114.855485,-9418.149754
2597.115996,133.998066,114.855485,-9418.149754
2597.116623,76.570323,153.140646,-9418.149754
2597.117250,76.570323,133.998066,-9360.722011
2597.117878,76.570323,114.855485,-9418.149754
2597.118505,38.285162,114.855485,-9418.149754
2597.119132,76.570323,114.855485,-9418.149754
2597.119760,133.998066,114.855485,-9418.149754
2597.120387,172.283227,76.570323,-9418.149754
2597.121015,19.142581,114.855485,-9418.149754
2597.121642,95.712904,95.712904,-9437.292334
2597.122269,95.712904,172.283227,-9418.149754
2597.122897,114.855485,95.712904,-9399.007173
2597.123524,133.998066,172.283227,-9418.149754
2597.124151,133.998066,114.855485,-9418.149754
2597.124779,38.285162,153.140646,-9360.722011
2597.125406,95.712904,133.998066,-9360.722011
2597.126033,76.570323,114.855485,-9360.722011
2597.126661,114.855485,133.998066,-9360.722011
2597.127288,95.712904,133.998066,-9360.722011
2597.127915,76.570323,114.855485,-9399.007173
2597.128543,133.998066,133.998066,-9399.007173
2597.129170,19.142581,153.140646,-9456.434915
2597.129798,76.570323,114.855485,-9418.149754
2597.130425,133.998066,114.855485,-9418.149754
2597.131052,76.570323,114.855485,-9418.149754
2597.131680,153.140646,172.283227,-9399.007173
2597.132307,57.427742,95.712904,-9399.007173
2597.132934,153.140646,153.140646,-9456.434915
2597.133562,76.570323,114.855485,-9418.149754
2597.134189,95.712904,153.140646,-9418.149754
2597.134816,76.570323,172.283227,-9418.149754
2597.135444,38.285162,172.283227,-9418.149754
2597.136071,114.855485,153.140646,-9360.722011
2597.136699,114.855485,133.998066,-9360.722011
2597.137326,114.855485,133.998066,-9360.722011
2597.137953,114.855485,133.998066,-9322.436850
2597.138581,133.998066,114.855485,-9418.149754
2597.139208,153.140646,133.998066,-9399.007173
2597.139835,114.855485,95.712904,-9379.864592
2597.140463,153.140646,191.425808,-9456.434915
2597.141090,172.283227,133.998066,-9418.149754
2597.141717,95.712904,210.568389,-9418.149754
2597.142345,133.998066,172.283227,-9418.149754
2597.142972,95.712904,153.140646,-9418.149754
2597.143599,133.998066,153.140646,-9418.149754
2597.144227,76.570323,114.855485,-9456.434915
2597.144854,95.712904,114.855485,-9418.149754
2597.145482,76.570323,153.140646,-9322.436850
2597.146109,95.712904,133.998066,-9360.722011
2597.146736,172.283227,114.855485,-9379.864592
2597.147364,133.998066,172.283227,-9418.149754
2597.147991,76.570323,114.855485,-9456.434915
2597.148618,76.570323,153.140646,-9418.149754
2597.149246,133.998066,153.140646,-9379.864592
2597.149873,133.998066,114.855485,-9360.722011
2597.150500,133.998066,133.998066,-9399.007173
2597.151128,153.140646,133.998066,-9399.007173
2597.151755,133.998066,172.283227,-9418.149754
2597.152382,19.142581,114.855485,-9418.149754
2597.153010,114.855485,133.998066,-9360.722011
2597.153637,114.855485,76.570323,-9418.149754
2597.154265,95.712904,95.712904,-9399.007173
2597.154892,95.712904,133.998066,-9360.722011
2597.155519,133.998066,172.283227,-9418.149754
2597.156147,153.140646,153.140646,-9399.007173
2597.156774,76.570323,114.855485,-9418.149754
2597.157401,133.998066,114.855485,-9418.149754
2597.158029,95.712904,153.140646,-9360.722011
2597.158656,95.712904,133.998066,-9360.722011
2597.159283,38.285162,114.855485,-9418.149754
2597.159911,38.285162,114.855485,-9418.149754
2597.160538,0.000000,172.283227,-9322.436850
2597.161166,38.285162,114.855485,-9418.149754
2597.161793,76.570323,114.855485,-9418.149754
2597.162420,95.712904,114.855485,-9418.149754
2597.163048,133.998066,172.283227,-9360.722011
2597.163675,38.285162,114.855485,-9418.149754
2597.164302,95.712904,133.998066,-9360.722011
2597.164930,133.998066,114.855485,-9456.434915
2597.165557,76.570323,114.855485,-9418.149754
2597.166184,76.570323,114.855485,-9418.149754
2597.166812,114.855485,133.998066,-9418.149754
2597.167439,133.998066,95.712904,-9360.722011
2597.168066,133.998066,172.283227,-9418.149754
2597.168694,38.285162,114.855485,-9418.149754
2597.169321,114.855485,133.998066,-9360.722011
2597.169949,95.712904,95.712904,-9399.007173
2597.170576,133.998066,114.855485,-9418.149754
2597.171203,76.570323,114.855485,-9418.149754
2597.171831,114.855485,133.998066,-9360.722011
2597.172458,114.855485,133.998066,-9360.722011
2597.173085,76.570323,114.855485,-9418.149754
2597.173713,95.712904,114.855485,-9418.149754
2597.174340,133.998066,153.140646,-9341.579430
2597.174967,172.283227,114.855485,-9379.864592
2597.175595,114.855485,133.998066,-9360.722011
2597.176222,153.140646,133.998066,-9456.434915
2597.176850,95.712904,95.712904,-9399.007173
2597.177477,114.855485,133.998066,-9360.722011
2597.178104,76.570323,114.855485,-9418.149754
2597.178732,153.140646,133.998066,-9399.007173
2597.179359,95.712904,114.855485,-9399.007173
2597.179986,114.855485,172.283227,-9360.722011
2597.180614,114.855485,172.283227,-9360.722011
2597.181241,95.712904,172.283227,-9418.149754
2597.181868,114.855485,172.283227,-9379.864592
2597.182496,133.998066,153.140646,-9379.864592
2597.183123,133.998066,114.855485,-9418.149754
2597.183750,133.998066,114.855485,-9418.149754
2597.184378,172.283227,172.283227,-9379.864592
2597.185005,133.998066,229.710970,-9418.149754
2597.185633,133.998066,210.568389,-9418.149754
2597.186260,76.570323,172.283227,-9418.149754
2597.186887,76.570323,172.283227,-9418.149754
2597.187515,95.712904,153.140646,-9418.149754
2597.188142,114.855485,95.712904,-9456.434915
2597.188769,38.285162,114.855485,-9456.434915
2597.189397,172.283227,114.855485,-9399.007173
2597.190024,76.570323,114.855485,-9418.149754
2597.190651,76.570323,76.570323,-9379.864592
2597.191278,57.427742,114.855485,-9418.149754
2597.191905,57.427742,95.712904,-9399.007173
2597.192533,76.570323,153.140646,-9418.149754
2597.193160,38.285162,153.140646,-9418.149754
2597.193787,38.285162,153.140646,-9418.149754
2597.194414,76.570323,114.855485,-9418.149754
2597.195041,95.712904,114.855485,-9418.149754
2597.195669,76.570323,114.855485,-9418.149754
2597.196296,95.712904,153.140646,-9418.149754
2597.196923,133.998066,114.855485,-9418.149754
2597.197550,133.998066,133.998066,-9399.007173
2597.198177,76.570323,229.710970,-9418.149754
2597.198804,95.712904,191.425808,-9418.149754
2597.199432,133.998066,191.425808,-9399.007173
2597.200059,38.285162,153.140646,-9437.292334
2597.200686,114.855485,191.425808,-9360.722011
2597.201313,133.998066,114.855485,-9418.149754
2597.201940,76.570323,172.283227,-9418.149754
2597.202568,133.998066,114.855485,-9418.149754
2597.203195,76.570323,153.140646,-9418.149754
2597.203822,76.570323,172.283227,-9418.149754
2597.204449,133.998066,114.855485,-9418.149754
2597.205076,95.712904,114.855485,-9418.149754
2597.205704,76.570323,114.855485,-9418.149754
2597.206331,172.283227,114.855485,-9379.864592
2597.206958,76.570323,114.855485,-9360.722011
2597.207585,57.427742,133.998066,-9341.579430
2597.208212,38.285162,114.855485,-9418.149754
2597.208840,38.285162,172.283227,-9418.149754
2597.209467,114.855485,133.998066,-9341.579430
2597.210094,153.140646,172.283227,-9456.434915
2597.210721,153.140646,172.283227,-9418.149754
2597.211348,38.285162,153.140646,-9437.292334
2597.211976,114.855485,76.570323,-9418.149754
2597.212603,153.140646,133.998066,-9399.007173
2597.213230,114.855485,153.140646,-9379.864592
2597.213857,133.998066,172.283227,-9360.722011
2597.214484,133.998066,210.568389,-9399.007173
2597.215112,76.570323,153.140646,-9418.149754
2597.215739,76.570323,210.568389,-9418.149754
2597.216366,133.998066,133.998066,-9399.007173
2597.216993,76.570323,114.855485,-9437.292334
2597.217620,38.285162,114.855485,-9418.149754
2597.218248,38.285162,172.283227,-9418.149754
2597.218875,76.570323,172.283227,-9437.292334
2597.219502,57.427742,172.283227,-9360.722011
2597.220129,57.427742,133.998066,-9360.722011
2597.220756,57.427742,133.998066,-9360.722011
2597.221384,57.427742,95.712904,-9456.434915
2597.222011,133.998066,114.855485,-9475.577496
2597.222638,95.712904,114.855485,-9437.292334
2597.223265,76.570323,114.855485,-9418.149754
2597.223892,133.998066,114.855485,-9418.149754
2597.224520,114.855485,133.998066,-9360.722011
2597.225147,95.712904,95.712904,-9437.292334
2597.225774,76.570323,114.855485,-9418.149754
2597.226401,133.998066,133.998066,-9399.007173
2597.227028,76.570323,153.140646,-9418.149754
2597.227656,76.570323,172.283227,-9418.149754
2597.228283,133.998066,191.425808,-9418.149754
2597.228910,114.855485,133.998066,-9360.722011
2597.229537,114.855485,191.425808,-9360.722011
2597.230164,133.998066,114.855485,-9418.149754
2597.230792,95.712904,114.855485,-9418.149754
2597.231419,133.998066,153.140646,-9418.149754
2597.232046,114.855485,191.425808,-9341.579430
2597.232673,114.855485,133.998066,-9360.722011
2597.233300,133.998066,172.283227,-9418.149754
2597.233928,95.712904,172.283227,-9360.722011
2597.234555,76.570323,114.855485,-9494.720077
2597.235182,133.998066,114.855485,-9418.149754
2597.235809,95.712904,114.855485,-9399.007173
2597.236436,133.998066,210.568389,-9360.722011
2597.237064,57.427742,191.425808,-9341.579430
2597.237691,95.712904,210.568389,-9360.722011
2597.238318,114.855485,172.283227,-9360.722011
2597.238945,38.285162,114.855485,-9418.149754
2597.239572,95.712904,133.998066,-9360.722011
2597.240200,76.570323,172.283227,-9418.149754
2597.240827,76.570323,114.855485,-9418.149754
2597.241454,76.570323,114.855485,-9418.149754
2597.242081,38.285162,76.570323,-9379.864592
2597.242708,76.570323,172.283227,-9418.149754
2597.243336,76.570323,191.425808,-9360.722011
2597.243963,114.855485,172.283227,-9341.579430
2597.244590,76.570323,153.140646,-9418.149754
2597.245217,114.855485,133.998066,-9360.722011
2597.245844,95.712904,153.140646,-9360.722011
2597.246472,76.570323,114.855485,-9418.149754
2597.247099,133.998066,114.855485,-9418.149754
2597.247726,133.998066,114.855485,-9418.149754
2597.248353,76.570323,114.855485,-9418.149754
2597.248980,95.712904,153.140646,-9360.722011
2597.249608,95.712904,133.998066,-9360.722011
2597.250235,114.855485,133.998066,-9360.722011
2597.250862,133.998066,114.855485,-9418.149754
2597.251489,76.570323,172.283227,-9418.149754
2597.252116,133.998066,114.855485,-9418.149754
2597.252744,114.855485,133.998066,-9360.722011
2597.253371,76.570323,76.570323,-9379.864592
2597.253998,133.998066,114.855485,-9418.149754
2597.254625,95.712904,133.998066,-9360.722011
2597.255252,95.712904,153.140646,-9360.722011
2597.255879,76.570323,172.283227,-9418.149754
2597.256507,133.998066,153.140646,-9360.722011
2597.257134,114.855485,76.570323,-9418.149754
2597.257761,133.998066,114.855485,-9418.149754
2597.258388,133.998066,133.998066,-9437.292334
2597.259015,0.000000,153.140646,-9341.579430
2597.259643,133.998066,153.140646,-9418.149754
2597.260270,38.285162,210.568389,-9341.579430
2597.260897,95.712904,133.998066,-9360.722011
2597.261524,76.570323,114.855485,-9360.722011
2597.262151,76.570323,172.283227,-9418.149754
2597.262779,76.570323,114.855485,-9418.149754
2597.263406,95.712904,95.712904,-9456.434915
2597.264033,95.712904,172.283227,-9418.149754
2597.264660,133.998066,114.855485,-9418.149754
2597.265287,76.570323,114.855485,-9418.149754
2597.265915,95.712904,133.998066,-9360.722011
2597.266542,133.998066,153.140646,-9418.149754
2597.267169,57.427742,133.998066,-9360.722011
2597.267796,95.712904,133.998066,-9341.579430
2597.268423,95.712904,172.283227,-9360.722011
2597.269051,57.427742,153.140646,-9360.722011
2597.269678,38.285162,210.568389,-9418.149754
2597.270305,38.285162,210.568389,-9418.149754
2597.270932,76.570323,114.855485,-9418.149754
2597.271559,76.570323,114.855485,-9418.149754
2597.272187,114.855485,153.140646,-9360.722011
2597.272814,133.998066,172.283227,-9418.149754
2597.273441,133.998066,153.140646,-9418.149754
2597.274068,114.855485,114.855485,-9379.864592
2597.274695,57.427742,95.712904,-9399.007173
2597.275323,38.285162,172.283227,-9418.149754
2597.275950,76.570323,172.283227,-9360.722011
2597.276577,95.712904,133.998066,-9360.722011
2597.277204,114.855485,95.712904,-9399.007173
2597.277831,38.285162,153.140646,-9418.149754
2597.278459,95.712904,191.425808,-9360.722011
2597.279086,38.285162,114.855485,-9418.149754
2597.279713,76.570323,114.855485,-9418.149754
2597.280340,76.570323,133.998066,-9360.722011
2597.280967,19.142581,114.855485,-9418.149754
2597.281595,114.855485,153.140646,-9360.722011
2597.282222,133.998066,114.855485,-9418.149754
2597.282849,133.998066,133.998066,-9399.007173
2597.283476,76.570323,153.140646,-9418.149754
2597.284103,76.570323,114.855485,-9418.149754
2597.284731,95.712904,114.855485,-9418.149754
2597.285358,114.855485,133.998066,-9360.722011
2597.285985,76.570323,114.855485,-9418.149754
2597.286612,38.285162,114.855485,-9418.149754
2597.287239,133.998066,114.855485,-9418.149754
2597.287867,76.570323,114.855485,-9418.149754
2597.288494,153.140646,114.855485,-9418.149754
2597.289121,57.427742,95.712904,-9399.007173
2597.289748,76.570323,114.855485,-9418.149754
2597.290375,95.712904,114.855485,-9456.434915
2597.291002,38.285162,114.855485,-9418.149754
2597.291630,76.570323,153.140646,-9418.149754
2597.292257,95.712904,133.998066,-9360.722011
2597.292884,38.285162,172.283227,-9418.149754
2597.293511,153.140646,172.283227,-9399.007173
2597.294138,153.140646,153.140646,-9418.149754
2597.294765,38.285162,172.283227,-9418.149754
2597.295392,114.855485,191.425808,-9322.436850
2597.296020,76.570323,114.855485,-9418.149754
2597.296647,114.855485,133.998066,-9360.722011
2597.297274,114.855485,133.998066,-9360.722011
2597.297901,76.570323,172.283227,-9418.149754
2597.298528,114.855485,153.140646,-9379.864592
2597.299155,153.140646,172.283227,-9399.007173
2597.299782,133.998066,114.855485,-9437.292334
2597.300410,76.570323,153.140646,-9418.149754
2597.301037,38.285162,153.140646,-9418.149754
2597.301664,95.712904,172.283227,-9456.434915
2597.302291,95.712904,133.998066,-9341.579430
2597.302918,19.142581,114.855485,-9418.149754
2597.303545,153.140646,172.283227,-9399.007173
2597.304172,76.570323,172.283227,-9418.149754
2597.304800,76.570323,210.568389,-9418.149754
2597.305427,38.285162,133.998066,-9360.722011
2597.306054,95.712904,153.140646,-9360.722011
2597.306681,76.570323,133.998066,-9322.436850
2597.307308,76.570323,76.570323,-9379.864592
2597.307935,38.285162,172.283227,-9418.149754
2597.308563,133.998066,133.998066,-9399.007173
2597.309190,57.427742,114.855485,-9418.149754
2597.309817,133.998066,210.568389,-9418.149754
2597.310444,76.570323,114.855485,-9360.722011
2597.311071,76.570323,153.140646,-9418.149754
2597.311698,76.570323,114.855485,-9418.149754
2597.312325,76.570323,114.855485,-9418.149754
2597.312953,95.712904,153.140646,-9360.722011
2597.313580,133.998066,153.140646,-9418.149754
2597.314207,133.998066,114.855485,-9360.722011
2597.314834,114.855485,172.283227,-9322.436850
2597.315461,133.998066,114.855485,-9418.149754
2597.316088,76.570323,153.140646,-9418.149754
2597.316715,76.570323,153.140646,-9418.149754
2597.317343,76.570323,153.140646,-9418.149754
2597.317970,133.998066,210.568389,-9418.149754
2597.318597,38.285162,210.568389,-9418.149754
2597.319224,76.570323,153.140646,-9418.149754
2597.319851,38.285162,114.855485,-9418.149754
2597.320478,76.570323,153.140646,-9360.722011
2597.321105,133.998066,114.855485,-9418.149754
2597.321733,133.998066,133.998066,-9379.864592
2597.322360,95.712904,133.998066,-9360.722011
2597.322987,76.570323,114.855485,-9456.434915
2597.323614,95.712904,172.283227,-9418.149754
2597.324241,57.427742,95.712904,-9399.007173
2597.324868,76.570323,114.855485,-9418.149754
2597.325495,76.570323,114.855485,-9418.149754
2597.326123,76.570323,172.283227,-9418.149754
2597.326750,38.285162,153.140646,-9437.292334
2597.327377,76.570323,95.712904,-9437.292334
2597.328004,76.570323,114.855485,-9418.149754
2597.328631,76.570323,76.570323,-9379.864592
2597.329258,95.712904,133.998066,-9360.722011
2597.329885,38.285162,114.855485,-9437.292334
2597.330513,133.998066,114.855485,-9418.149754
2597.331140,38.285162,114.855485,-9418.149754
2597.331767,76.570323,172.283227,-9360.722011
2597.332394,95.712904,172.283227,-9360.722011
2597.333021,76.570323,114.855485,-9418.149754
2597.333648,57.427742,95.712904,-9456.434915
2597.334276,153.140646,133.998066,-9399.007173
2597.334903,133.998066,76.570323,-9379.864592
2597.335530,133.998066,153.140646,-9399.007173
2597.336157,57.427742,133.998066,-9360.722011
2597.336784,76.570323,133.998066,-9360.722011
2597.337411,76.570323,114.855485,-9360.722011
2597.338038,133.998066,153.140646,-9418.149754
2597.338666,57.427742,133.998066,-9360.722011
2597.339293,95.712904,172.283227,-9418.149754
2597.339920,57.427742,114.855485,-9399.007173
2597.340547,133.998066,172.283227,-9418.149754
2597.341174,133.998066,153.140646,-9418.149754
2597.341801,76.570323,95.712904,-9399.007173
2597.342428,76.570323,153.140646,-9360.722011
2597.343056,76.570323,114.855485,-9418.149754
2597.343683,76.570323,210.568389,-9418.149754
2597.344310,38.285162,172.283227,-9437.292334
2597.344937,38.285162,114.855485,-9418.149754
2597.345564,38.285162,114.855485,-9418.149754
2597.346191,76.570323,114.855485,-9418.149754
2597.346818,133.998066,210.568389,-9418.149754
2597.347446,38.285162,210.568389,-9360.722011
2597.348073,133.998066,114.855485,-9418.149754
2597.348700,114.855485,114.855485,-9379.864592
2597.349327,76.570323,114.855485,-9418.149754
2597.349954,95.712904,153.140646,-9322.436850
2597.350581,38.285162,172.283227,-9437.292334
2597.351208,76.570323,172.283227,-9418.149754
2597.351836,172.283227,114.855485,-9379.864592
2597.352463,133.998066,114.855485,-9418.149754
2597.353090,38.285162,114.855485,-9418.149754
2597.353717,133.998066,153.140646,-9418.149754
2597.354344,76.570323,114.855485,-9418.149754
2597.354971,172.283227,210.568389,-9379.864592
2597.355598,133.998066,114.855485,-9418.149754
2597.356226,76.570323,153.140646,-9418.149754
2597.356853,76.570323,172.283227,-9418.149754
2597.357480,133.998066,114.855485,-9418.149754
2597.358107,76.570323,153.140646,-9418.149754
2597.358734,38.285162,172.283227,-9418.149754
2597.359361,133.998066,172.283227,-9418.149754
2597.359988,38.285162,133.998066,-9418.149754
2597.360616,38.285162,114.855485,-9456.434915
2597.361243,153.140646,114.855485,-9418.149754
2597.361870,133.998066,114.855485,-9437.292334
2597.362497,38.285162,114.855485,-9418.149754
2597.363124,153.140646,153.140646,-9399.007173
2597.363751,95.712904,153.140646,-9360.722011
2597.364379,153.140646,153.140646,-9456.434915
2597.365006,133.998066,210.568389,-9418.149754
2597.365633,133.998066,172.283227,-9437.292334
2597.366260,76.570323,210.568389,-9418.149754
2597.366887,133.998066,153.140646,-9418.149754
2597.367514,95.712904,133.998066,-9360.722011
2597.368141,95.712904,133.998066,-9322.436850
2597.368769,76.570323,153.140646,-9418.149754
2597.369396,133.998066,153.140646,-9418.149754
2597.370023,76.570323,133.998066,-9360.722011
2597.370650,76.570323,172.283227,-9418.149754
2597.371277,95.712904,210.568389,-9437.292334
2597.371904,95.712904,95.712904,-9437.292334
2597.372531,95.712904,114.855485,-9379.864592
2597.373159,133.998066,172.283227,-9418.149754
2597.373786,133.998066,114.855485,-9418.149754
2597.374413,76.570323,153.140646,-9437.292334
2597.375040,133.998066,153.140646,-9418.149754
2597.375667,114.855485,133.998066,-9360.722011
2597.376294,38.285162,95.712904,-9399.007173
2597.376921,95.712904,172.283227,-9360.722011
2597.377549,76.570323,114.855485,-9360.722011
2597.378176,95.712904,172.283227,-9360.722011
2597.378803,76.570323,172.283227,-9418.149754
2597.379430,133.998066,133.998066,-9399.007173
2597.380057,38.285162,153.140646,-9360.722011
2597.380684,76.570323,153.140646,-9437.292334
2597.381311,76.570323,114.855485,-9418.149754
2597.381939,95.712904,191.425808,-9360.722011
2597.382566,76.570323,114.855485,-9418.149754
2597.383193,38.285162,172.283227,-9418.149754
2597.383820,57.427742,172.283227,-9418.149754
2597.384447,95.712904,153.140646,-9437.292334
2597.385074,133.998066,114.855485,-9360.722011
2597.385701,172.283227,133.998066,-9360.722011
2597.386329,76.570323,172.283227,-9418.149754
2597.386956,133.998066,172.283227,-9418.149754
2597.387583,114.855485,133.998066,-9360.722011
2597.388210,133.998066,153.140646,-9418.149754
2597.388837,38.285162,210.568389,-9418.149754
2597.389464,95.712904,133.998066,-9360.722011
2597.390092,76.570323,95.712904,-9399.007173
2597.390719,133.998066,133.998066,-9399.007173
2597.391346,38.285162,153.140646,-9456.434915
2597.391973,95.712904,114.855485,-9418.149754
2597.392600,76.570323,114.855485,-9418.149754
2597.393227,76.570323,114.855485,-9418.149754
2597.393854,76.570323,114.855485,-9418.149754
2597.394482,153.140646,210.568389,-9379.864592
2597.395109,114.855485,133.998066,-9418.149754
2597.395736,95.712904,172.283227,-9360.722011
2597.396363,133.998066,172.283227,-9399.007173
2597.396990,76.570323,153.140646,-9418.149754
2597.397617,76.570323,114.855485,-9360.722011
2597.398245,95.712904,133.998066,-9341.579430
2597.398872,76.570323,114.855485,-9399.007173
2597.399499,38.285162,114.855485,-9418.149754
2597.400126,114.855485,153.140646,-9360.722011
2597.400753,95.712904,133.998066,-9360.722011
2597.401380,57.427742,95.712904,-9399.007173
2597.402007,95.712904,153.140646,-9360.722011
2597.402635,95.712904,191.425808,-9360.722011
2597.403262,76.570323,133.998066,-9379.864592
2597.403889,95.712904,133.998066,-9360.722011
2597.404516,76.570323,114.855485,-9418.149754
2597.405143,95.712904,114.855485,-9418.149754
2597.405770,133.998066,114.855485,-9418.149754
2597.406398,114.855485,133.998066,-9418.149754
2597.407025,114.855485,172.283227,-9379.864592
2597.407652,76.570323,210.568389,-9418.149754
2597.408279,95.712904,114.855485,-9456.434915
2597.408906,76.570323,210.568389,-9437.292334
2597.409533,76.570323,114.855485,-9418.149754
2597.410160,95.712904,95.712904,-9437.292334
2597.410788,95.712904,133.998066,-9360.722011
2597.411415,38.285162,153.140646,-9418.149754
2597.412042,133.998066,153.140646,-9399.007173
2597.412669,76.570323,191.425808,-9418.149754
2597.413296,114.855485,133.998066,-9360.722011
2597.413923,95.712904,133.998066,-9284.151688
2597.414551,57.427742,133.998066,-9360.722011
2597.415178,38.285162,114.855485,-9418.149754
2597.415805,76.570323,153.140646,-9418.149754
2597.416432,76.570323,172.283227,-9456.434915
2597.417059,95.712904,133.998066,-9360.722011
2597.417686,95.712904,114.855485,-9418.149754
2597.418313,133.998066,153.140646,-9418.149754
2597.418941,76.570323,172.283227,-9418.149754
2597.419568,76.570323,191.425808,-9418.149754
2597.420195,76.570323,153.140646,-9418.149754
2597.420822,95.712904,153.140646,-9360.722011
2597.421449,133.998066,114.855485,-9437.292334
2597.422076,95.712904,172.283227,-9418.149754
2597.422704,76.570323,153.140646,-9418.149754
2597.423331,133.998066,153.140646,-9418.149754
2597.423958,95.712904,133.998066,-9341.579430
2597.424585,133.998066,114.855485,-9418.149754
2597.425212,76.570323,114.855485,-9418.149754
2597.425839,114.855485,76.570323,-9418.149754
2597.426466,153.140646,172.283227,-9399.007173
2597.427094,133.998066,114.855485,-9418.149754
2597.427721,76.570323,114.855485,-9456.434915
2597.428348,57.427742,95.712904,-9399.007173
2597.428975,38.285162,153.140646,-9418.149754
2597.429602,114.855485,172.283227,-9360.722011
2597.430229,95.712904,114.855485,-9418.149754
2597.430857,38.285162,114.855485,-9418.149754
2597.431484,95.712904,133.998066,-9360.722011
2597.432111,114.855485,95.712904,-9399.007173
2597.432738,153.140646,153.140646,-9399.007173
2597.433365,153.140646,133.998066,-9399.007173
2597.433992,133.998066,172.283227,-9399.007173
2597.434619,133.998066,114.855485,-9418.149754
2597.435247,38.285162,114.855485,-9360.722011
2597.435874,95.712904,172.283227,-9360.722011
2597.436501,76.570323,153.140646,-9418.149754
2597.437128,57.427742,153.140646,-9360.722011
2597.437755,114.855485,133.998066,-9360.722011
2597.438382,114.855485,133.998066,-9360.722011
2597.439010,114.855485,114.855485,-9379.864592
2597.439637,133.998066,133.998066,-9379.864592
2597.440264,95.712904,191.425808,-9418.149754
2597.440891,95.712904,133.998066,-9360.722011
2597.441518,153.140646,191.425808,-9399.007173
2597.442145,133.998066,191.425808,-9418.149754
2597.442772,95.712904,114.855485,-9418.149754
2597.443400,76.570323,95.712904,-9399.007173
2597.444027,133.998066,153.140646,-9418.149754
2597.444654,76.570323,114.855485,-9418.149754
2597.445281,133.998066,172.283227,-9418.149754
2597.445908,133.998066,210.568389,-9437.292334
2597.446535,133.998066,210.568389,-9418.149754
2597.447163,133.998066,229.710970,-9418.149754
2597.447790,95.712904,153.140646,-9360.722011
2597.448417,153.140646,153.140646,-9418.149754
2597.449044,76.570323,229.710970,-9456.434915
2597.449671,153.140646,153.140646,-9399.007173
2597.450298,114.855485,133.998066,-9418.149754
2597.450925,133.998066,191.425808,-9418.149754
2597.451553,133.998066,210.568389,-9456.434915
2597.452180,38.285162,114.855485,-9418.149754
2597.452807,95.712904,133.998066,-9360.722011
2597.453434,114.855485,95.712904,-9399.007173
2597.454061,133.998066,172.283227,-9418.149754
2597.454688,133.998066,172.283227,-9399.007173
2597.455316,76.570323,76.570323,-9379.864592
2597.455943,133.998066,172.283227,-9418.149754
2597.456570,133.998066,172.283227,-9399.007173
2597.457197,133.998066,172.283227,-9418.149754
2597.457824,76.570323,172.283227,-9418.149754
2597.458451,57.427742,172.283227,-9418.149754
2597.459078,76.570323,114.855485,-9418.149754
2597.459706,95.712904,133.998066,-9360.722011
2597.460333,57.427742,172.283227,-9418.149754
2597.460960,76.570323,153.140646,-9360.722011
2597.461587,38.285162,153.140646,-9418.149754
2597.462214,133.998066,114.855485,-9418.149754
2597.462841,133.998066,114.855485,-9418.149754
2597.463469,172.283227,114.855485,-9379.864592
2597.464096,76.570323,76.570323,-9379.864592
2597.464723,38.285162,95.712904,-9399.007173
2597.465350,95.712904,133.998066,-9360.722011
2597.465977,76.570323,114.855485,-9418.149754
2597.466604,95.712904,133.998066,-9360.722011
2597.467231,76.570323,114.855485,-9360.722011
2597.467859,76.570323,153.140646,-9418.149754
2597.468486,57.427742,95.712904,-9399.007173
2597.469113,76.570323,133.998066,-9379.864592
2597.469740,38.285162,153.140646,-9418.149754
2597.470367,19.142581,114.855485,-9437.292334
2597.470994,38.285162,114.855485,-9418.149754
2597.471622,38.285162,153.140646,-9418.149754
2597.472249,19.142581,114.855485,-9418.149754
2597.472876,76.570323,114.855485,-9437.292334
2597.473503,114.855485,95.712904,-9399.007173
2597.474130,38.285162,114.855485,-9418.149754
2597.474757,133.998066,114.855485,-9360.722011
2597.475384,133.998066,172.283227,-9418.149754
2597.476012,133.998066,153.140646,-9418.149754
2597.476639,133.998066,114.855485,-9418.149754
2597.477266,114.855485,133.998066,-9360.722011
2597.477893,57.427742,133.998066,-9360.722011
2597.478520,95.712904,229.710970,-9418.149754
2597.479147,133.998066,210.568389,-9418.149754
2597.479775,153.140646,133.998066,-9399.007173
2597.480402,76.570323,153.140646,-9418.149754
2597.481029,76.570323,114.855485,-9418.149754
2597.481656,38.285162,133.998066,-9360.722011
2597.482283,76.570323,114.855485,-9418.149754
2597.482910,133.998066,133.998066,-9399.007173
2597.483537,76.570323,114.855485,-9418.149754
2597.484165,57.427742,95.712904,-9399.007173
2597.484792,133.998066,133.998066,-9399.007173
2597.485419,19.142581,153.140646,-9418.149754
2597.486046,114.855485,133.998066,-9360.722011
2597.486673,114.855485,95.712904,-9399.007173
2597.487300,133.998066,229.710970,-9418.149754
2597.487928,114.855485,172.283227,-9360.722011
2597.488555,133.998066,114.855485,-9418.149754
2597.489182,76.570323,153.140646,-9418.149754
2597.489809,95.712904,133.998066,-9360.722011
2597.490436,76.570323,153.140646,-9418.149754
2597.491063,76.570323,191.425808,-9360.722011
2597.491691,114.855485,114.855485,-9399.007173
2597.492318,133.998066,133.998066,-9437.292334
2597.492945,76.570323,114.855485,-9418.149754
2597.493572,76.570323,114.855485,-9418.149754
2597.494199,95.712904,133.998066,-9360.722011
2597.494827,114.855485,95.712904,-9399.007173
2597.495454,38.285162,229.710970,-9418.149754
2597.496081,95.712904,248.853550,-9360.722011
2597.496708,95.712904,133.998066,-9360.722011
2597.497336,57.427742,133.998066,-9360.722011
2597.497963,76.570323,210.568389,-9360.722011
2597.498590,95.712904,153.140646,-9418.149754
2597.499217,95.712904,114.855485,-9379.864592
2597.499844,114.855485,191.425808,-9360.722011
2597.500472,133.998066,172.283227,-9360.722011
2597.501099,76.570323,210.568389,-9418.149754
2597.501726,172.283227,210.568389,-9379.864592
2597.502353,133.998066,172.283227,-9418.149754
2597.502980,133.998066,114.855485,-9418.149754
2597.503608,133.998066,133.998066,-9399.007173
2597.504235,76.570323,114.855485,-9418.149754
2597.504862,38.285162,95.712904,-9437.292334
2597.505489,133.998066,133.998066,-9399.007173
2597.506117,133.998066,172.283227,-9418.149754
2597.506744,95.712904,191.425808,-9360.722011
2597.507371,38.285162,153.140646,-9418.149754
2597.507998,114.855485,172.283227,-9360.722011
2597.508625,133.998066,114.855485,-9418.149754
2597.509253,153.140646,133.998066,-9379.864592
2597.509880,57.427742,133.998066,-9341.579430
2597.510507,114.855485,133.998066,-9341.579430
2597.511134,76.570323,114.855485,-9418.149754
2597.511762,210.568389,76.570323,-9418.149754
2597.512389,133.998066,114.855485,-9418.149754
2597.513016,95.712904,133.998066,-9360.722011
2597.513643,76.570323,172.283227,-9437.292334
2597.514270,133.998066,210.568389,-9418.149754
2597.514898,114.855485,114.855485,-9379.864592
2597.515525,76.570323,114.855485,-9418.149754
2597.516152,57.427742,133.998066,-9360.722011
2597.516779,133.998066,76.570323,-9341.579430
2597.517406,76.570323,114.855485,-9418.149754
2597.518034,133.998066,153.140646,-9418.149754
2597.518661,133.998066,172.283227,-9418.149754
2597.519288,38.285162,172.283227,-9418.149754
2597.519915,76.570323,153.140646,-9418.149754
2597.520543,114.855485,133.998066,-9360.722011
2597.521170,76.570323,114.855485,-9418.149754
2597.521797,76.570323,172.283227,-9418.149754
2597.522424,57.427742,172.283227,-9360.722011
2597.523051,38.285162,172.283227,-9418.149754
2597.523679,38.285162,172.283227,-9437.292334
2597.524306,133.998066,114.855485,-9418.149754
2597.524933,57.427742,153.140646,-9456.434915
2597.525560,76.570323,114.855485,-9418.149754
2597.526187,76.570323,133.998066,-9360.722011
2597.526815,133.998066,153.140646,-9456.434915
2597.527442,95.712904,133.998066,-9360.722011
2597.528069,95.712904,114.855485,-9399.007173
2597.528696,38.285162,153.140646,-9418.149754
2597.529324,114.855485,153.140646,-9360.722011
2597.529951,76.570323,210.568389,-9418.149754
2597.530578,153.140646,76.570323,-9399.007173
2597.531205,133.998066,153.140646,-9399.007173
2597.531832,95.712904,133.998066,-9360.722011
2597.532460,133.998066,153.140646,-9418.149754
2597.533087,133.998066,114.855485,-9418.149754
2597.533714,95.712904,114.855485,-9418.149754
2597.534341,114.855485,172.283227,-9360.722011
2597.534968,38.285162,114.855485,-9418.149754
2597.535596,76.570323,210.568389,-9418.149754
2597.536223,38.285162,114.855485,-9418.149754
2597.536850,38.285162,114.855485,-9418.149754
2597.537477,57.427742,172.283227,-9360.722011
2597.538105,133.998066,114.855485,-9437.292334
2597.538732,133.998066,114.855485,-9418.149754
2597.539359,57.427742,133.998066,-9360.722011
2597.539986,114.855485,133.998066,-9341.579430
2597.540613,114.855485,133.998066,-9360.722011
2597.541241,57.427742,191.425808,-9360.722011
2597.541868,95.712904,114.855485,-9418.149754
2597.542495,76.570323,153.140646,-9418.149754
2597.543122,95.712904,133.998066,-9322.436850
2597.543750,76.570323,153.140646,-9418.149754
2597.544377,76.570323,114.855485,-9418.149754
2597.545004,76.570323,210.568389,-9418.149754
2597.545631,114.855485,76.570323,-9437.292334
2597.546258,210.568389,153.140646,-9399.007173
2597.546886,133.998066,153.140646,-9418.149754
2597.547513,76.570323,172.283227,-9418.149754
2597.548140,133.998066,172.283227,-9418.149754
2597.548767,57.427742,153.140646,-9360.722011
2597.549394,76.570323,172.283227,-9418.149754
2597.550022,133.998066,210.568389,-9456.434915
2597.550649,133.998066,191.425808,-9418.149754
2597.551276,95.712904,133.998066,-9360.722011
2597.551903,133.998066,172.283227,-9418.149754
2597.552531,133.998066,114.855485,-9418.149754
2597.553158,172.283227,76.570323,-9418.149754
2597.553785,95.712904,95.712904,-9399.007173
2597.554412,76.570323,210.568389,-9418.149754
2597.555039,76.570323,172.283227,-9360.722011
2597.555667,38.285162,114.855485,-9418.149754
2597.556294,76.570323,114.855485,-9418.149754
2597.556921,76.570323,114.855485,-9418.149754
2597.557548,38.285162,172.283227,-9418.149754
2597.558175,133.998066,114.855485,-9418.149754
2597.558803,38.285162,114.855485,-9437.292334
2597.559430,95.712904,95.712904,-9456.434915
2597.560057,133.998066,114.855485,-9418.149754
2597.560684,133.998066,114.855485,-9360.722011
2597.561312,38.285162,114.855485,-9456.434915
2597.561939,95.712904,133.998066,-9360.722011
2597.562566,95.712904,133.998066,-9360.722011
2597.563193,133.998066,114.855485,-9418.149754
2597.563820,95.712904,153.140646,-9360.722011
2597.564448,76.570323,172.283227,-9418.149754
2597.565075,95.712904,133.998066,-9360.722011
2597.565702,95.712904,153.140646,-9437.292334
2597.566329,114.855485,133.998066,-9360.722011
2597.566956,133.998066,153.140646,-9418.149754
2597.567584,57.427742,133.998066,-9360.722011
2597.568211,76.570323,172.283227,-9418.149754
2597.568838,95.712904,191.425808,-9360.722011
2597.569465,95.712904,153.140646,-9418.149754
2597.570093,133.998066,114.855485,-9418.149754
2597.570720,95.712904,114.855485,-9418.149754
2597.571347,95.712904,133.998066,-9360.722011
2597.571974,57.427742,95.712904,-9399.007173
2597.572601,76.570323,191.425808,-9418.149754
2597.573229,76.570323,210.568389,-9360.722011
2597.573856,133.998066,153.140646,-9360.722011
2597.574483,133.998066,114.855485,-9418.149754
2597.575110,95.712904,114.855485,-9418.149754
2597.575738,133.998066,114.855485,-9418.149754
2597.576365,114.855485,133.998066,-9360.722011
2597.576992,76.570323,114.855485,-9418.149754
2597.577619,57.427742,133.998066,-9418.149754
2597.578246,38.285162,114.855485,-9418.149754
2597.578874,153.140646,133.998066,-9437.292334
2597.579501,76.570323,114.855485,-9418.149754
2597.580128,95.712904,95.712904,-9399.007173
2597.580755,38.285162,114.855485,-9418.149754
2597.581382,133.998066,114.855485,-9418.149754
2597.582010,76.570323,114.855485,-9437.292334
2597.582637,76.570323,114.855485,-9418.149754
2597.583264,38.285162,114.855485,-9418.149754
2597.583891,133.998066,133.998066,-9399.007173
2597.584519,153.140646,153.140646,-9399.007173
2597.585146,133.998066,114.855485,-9456.434915
2597.585773,172.283227,114.855485,-9322.436850
2597.586400,76.570323,172.283227,-9418.149754
2597.587027,76.570323,153.140646,-9418.149754
2597.587655,133.998066,114.855485,-9418.149754
2597.588282,153.140646,153.140646,-9418.149754
2597.588909,38.285162,114.855485,-9437.292334
2597.589536,95.712904,153.140646,-9360.722011
2597.590163,133.998066,114.855485,-9360.722011
2597.590791,114.855485,133.998066,-9418.149754
2597.591418,76.570323,114.855485,-9418.149754
2597.592045,38.285162,114.855485,-9418.149754
2597.592672,38.285162,114.855485,-9418.149754
2597.593300,76.570323,114.855485,-9418.149754
2597.593927,76.570323,133.998066,-9322.436850
2597.594554,114.855485,114.855485,-9379.864592
2597.595181,76.570323,114.855485,-9418.149754
2597.595809,153.140646,172.283227,-9399.007173
2597.596436,38.285162,114.855485,-9418.149754
2597.597063,133.998066,114.855485,-9418.149754
2597.597690,133.998066,210.568389,-9418.149754
2597.598318,95.712904,153.140646,-9360.722011
2597.598945,76.570323,114.855485,-9418.149754
2597.599572,38.285162,172.283227,-9418.149754
2597.600200,133.998066,114.855485,-9418.149754
2597.600827,38.285162,114.855485,-9437.292334
2597.601454,95.712904,114.855485,-9418.149754
2597.602081,133.998066,114.855485,-9418.149754
2597.602709,76.570323,76.570323,-9379.864592
2597.603336,133.998066,114.855485,-9418.149754
2597.603963,95.712904,114.855485,-9418.149754
2597.604590,57.427742,191.425808,-9341.579430
2597.605218,76.570323,172.283227,-9418.149754
2597.605845,133.998066,153.140646,-9437.292334
2597.606472,76.570323,153.140646,-9418.149754
2597.607099,95.712904,114.855485,-9418.149754
2597.607727,76.570323,172.283227,-9418.149754
2597.608354,19.142581,114.855485,-9418.149754
2597.608981,76.570323,114.855485,-9418.149754
2597.609608,95.712904,133.998066,-9360.722011
2597.610236,114.855485,114.855485,-9322.436850
2597.610863,76.570323,114.855485,-9418.149754
2597.611490,114.855485,133.998066,-9360.722011
2597.612117,114.855485,95.712904,-9399.007173
2597.612745,76.570323,153.140646,-9418.149754
2597.613372,76.570323,172.283227,-9418.149754
2597.613999,76.570323,153.140646,-9418.149754
2597.614626,38.285162,114.855485,-9418.149754
2597.615254,95.712904,133.998066,-9360.722011
2597.615881,76.570323,153.140646,-9418.149754
2597.616508,38.285162,114.855485,-9418.149754
2597.617135,76.570323,114.855485,-9418.149754
2597.617763,76.570323,114.855485,-9418.149754
2597.618390,76.570323,191.425808,-9418.149754
2597.619017,76.570323,114.855485,-9418.149754
2597.619644,114.855485,133.998066,-9360.722011
2597.620272,95.712904,172.283227,-9360.722011
2597.620899,76.570323,153.140646,-9418.149754
2597.621526,76.570323,114.855485,-9418.149754
2597.622153,95.712904,191.425808,-9418.149754
2597.622781,133.998066,133.998066,-9399.007173
2597.623408,95.712904,172.283227,-9341.579430
2597.624035,95.712904,114.855485,-9418.149754
2597.624662,133.998066,114.855485,-9360.722011
2597.625290,114.855485,95.712904,-9379.864592
2597.625917,191.425808,114.855485,-9379.864592
2597.626544,76.570323,172.283227,-9418.149754
2597.627171,133.998066,114.855485,-9418.149754
2597.627799,133.998066,172.283227,-9418.149754
2597.628426,95.712904,133.998066,-9341.579430
2597.629053,76.570323,114.855485,-9418.149754
2597.629680,133.998066,210.568389,-9418.149754
2597.630308,95.712904,114.855485,-9418.149754
2597.630935,153.140646,172.283227,-9399.007173
2597.631562,95.712904,133.998066,-9360.722011
2597.632189,133.998066,114.855485,-9418.149754
2597.632817,95.712904,172.283227,-9360.722011
2597.633444,133.998066,114.855485,-9418.149754
2597.634071,114.855485,172.283227,-9360.722011
2597.634698,114.855485,95.712904,-9399.007173
2597.635326,95.712904,133.998066,-9360.722011
2597.635953,133.998066,114.855485,-9418.149754
2597.636580,114.855485,95.712904,-9399.007173
2597.637207,133.998066,114.855485,-9418.149754
2597.637835,133.998066,153.140646,-9418.149754
2597.638462,172.283227,114.855485,-9379.864592
2597.639089,57.427742,133.998066,-9360.722011
2597.639716,133.998066,172.283227,-9418.149754
2597.640344,76.570323,133.998066,-9360.722011
2597.640971,133.998066,172.283227,-9418.149754
2597.641598,114.855485,133.998066,-9360.722011
2597.642225,38.285162,153.140646,-9418.149754
2597.642853,133.998066,76.570323,-9379.864592
2597.643480,133.998066,210.568389,-9437.292334
2597.644107,133.998066,114.855485,-9360.722011
2597.644734,133.998066,210.568389,-9418.149754
2597.645362,76.570323,153.140646,-9418.149754
2597.645989,133.998066,153.140646,-9418.149754
2597.646616,95.712904,153.140646,-9360.722011
2597.647243,133.998066,191.425808,-9456.434915
2597.647871,133.998066,172.283227,-9418.149754
2597.648498,38.285162,114.855485,-9399.007173
2597.649125,76.570323,172.283227,-9418.149754
2597.649752,76.570323,114.855485,-9418.149754
2597.650380,133.998066,114.855485,-9418.149754
2597.651007,114.855485,76.570323,-9418.149754
2597.651634,76.570323,210.568389,-9418.149754
2597.652261,133.998066,248.853550,-9379.864592
2597.652889,38.285162,114.855485,-9418.149754
2597.653516,133.998066,114.855485,-9418.149754
2597.654143,57.427742,133.998066,-9360.722011
2597.654770,95.712904,153.140646,-9418.149754
2597.655398,153.140646,133.998066,-9456.434915
2597.656025,114.855485,133.998066,-9360.722011
2597.656652,76.570323,114.855485,-9418.149754
2597.657279,133.998066,153.140646,-9418.149754
2597.657907,95.712904,191.425808,-9360.722011
2597.658534,95.712904,133.998066,-9360.722011
2597.659161,38.285162,114.855485,-9475.577496
2597.659789,76.570323,114.855485,-9437.292334
2597.660416,76.570323,114.855485,-9418.149754
2597.661043,133.998066,114.855485,-9418.149754
2597.661670,76.570323,133.998066,-9360.722011
2597.662298,57.427742,153.140646,-9341.579430
2597.662925,95.712904,172.283227,-9418.149754
2597.663552,57.427742,153.140646,-9360.722011
2597.664179,76.570323,114.855485,-9456.434915
2597.664807,38.285162,153.140646,-9437.292334
2597.665434,76.570323,153.140646,-9456.434915
2597.666061,76.570323,114.855485,-9418.149754
2597.666688,95.712904,95.712904,-9399.007173
2597.667316,76.570323,76.570323,-9399.007173
2597.667943,133.998066,191.425808,-9418.149754
2597.668570,133.998066,191.425808,-9456.434915
2597.669197,133.998066,114.855485,-9360.722011
2597.669825,76.570323,172.283227,-9437.292334
2597.670452,133.998066,153.140646,-9418.149754
2597.671079,114.855485,133.998066,-9360.722011
2597.671706,133.998066,114.855485,-9360.722011
2597.672334,76.570323,172.283227,-9418.149754
2597.672961,76.570323,191.425808,-9418.149754
2597.673588,133.998066,153.140646,-9418.149754
2597.674215,76.570323,172.283227,-9418.149754
2597.674843,133.998066,191.425808,-9418.149754
2597.675470,38.285162,191.425808,-9456.434915
2597.676097,172.283227,210.568389,-9379.864592
2597.676724,114.855485,114.855485,-9399.007173
2597.677352,76.570323,114.855485,-9437.292334
2597.677979,76.570323,153.140646,-9418.149754
2597.678606,76.570323,133.998066,-9360.722011
2597.679233,76.570323,114.855485,-9418.149754
2597.679861,114.855485,95.712904,-9399.007173
2597.680488,95.712904,191.425808,-9360.722011
2597.681115,133.998066,153.140646,-9418.149754
2597.681742,153.140646,133.998066,-9399.007173
2597.682370,95.712904,133.998066,-9418.149754
2597.682997,76.570323,191.425808,-9418.149754
2597.683624,76.570323,210.568389,-9418.149754
2597.684251,76.570323,114.855485,-9418.149754
2597.684879,133.998066,172.283227,-9418.149754
2597.685506,133.998066,153.140646,-9418.149754
2597.686133,76.570323,114.855485,-9437.292334
2597.686760,114.855485,172.283227,-9418.149754
2597.687388,133.998066,210.568389,-9418.149754
2597.688015,153.140646,191.425808,-9399.007173
2597.688642,76.570323,114.855485,-9418.149754
2597.689269,95.712904,133.998066,-9360.722011
2597.689897,57.427742,95.712904,-9399.007173
2597.690524,76.570323,153.140646,-9418.149754
2597.691151,76.570323,153.140646,-9360.722011
2597.691779,114.855485,133.998066,-9360.722011
2597.692407,133.998066,114.855485,-9418.149754
2597.693034,76.570323,114.855485,-9418.149754
2597.693662,76.570323,153.140646,-9418.149754
2597.694290,76.570323,95.712904,-9399.007173
2597.694917,76.570323,114.855485,-9418.149754
2597.695545,76.570323,210.568389,-9418.149754
2597.696172,76.570323,210.568389,-9418.149754
2597.696800,153.140646,133.998066,-9456.434915
2597.697428,133.998066,76.570323,-9379.864592
2597.698055,114.855485,133.998066,-9360.722011
2597.698683,133.998066,153.140646,-9418.149754
2597.699310,76.570323,114.855485,-9418.149754
2597.699938,76.570323,114.855485,-9418.149754
2597.700566,133.998066,114.855485,-9418.149754
2597.701193,95.712904,133.998066,-9360.722011
2597.701821,95.712904,133.998066,-9341.579430
2597.702448,57.427742,133.998066,-9360.722011
2597.703076,76.570323,114.855485,-9418.149754
2597.703704,133.998066,210.568389,-9360.722011
2597.704331,76.570323,153.140646,-9418.149754
2597.704959,133.998066,114.855485,-9418.149754
2597.705586,38.285162,114.855485,-9418.149754
2597.706214,95.712904,114.855485,-9418.149754
2597.706842,76.570323,153.140646,-9418.149754
2597.707469,76.570323,114.855485,-9418.149754
2597.708097,76.570323,172.283227,-9418.149754
2597.708725,133.998066,133.998066,-9399.007173
2597.709352,76.570323,114.855485,-9418.149754
2597.709980,133.998066,153.140646,-9418.149754
2597.710607,133.998066,191.425808,-9456.434915
2597.711235,76.570323,114.855485,-9418.149754
2597.711863,57.427742,133.998066,-9360.722011
2597.712490,57.427742,172.283227,-9360.722011
2597.713118,38.285162,153.140646,-9418.149754
2597.713745,114.855485,248.853550,-9360.722011
2597.714373,38.285162,153.140646,-9418.149754
2597.715001,38.285162,172.283227,-9418.149754
2597.715628,38.285162,76.570323,-9379.864592
2597.716256,76.570323,133.998066,-9360.722011
2597.716883,76.570323,114.855485,-9418.149754
2597.717511,76.570323,114.855485,-9418.149754
2597.718139,38.285162,133.998066,-9360.722011
2597.718766,38.285162,114.855485,-9418.149754
2597.719394,114.855485,133.998066,-9322.436850
2597.720021,95.712904,114.855485,-9418.149754
2597.720649,114.855485,133.998066,-9341.579430
2597.721277,133.998066,114.855485,-9360.722011
2597.721904,114.855485,172.283227,-9360.722011
2597.722532,38.285162,114.855485,-9418.149754
2597.723159,133.998066,153.140646,-9437.292334
2597.723787,133.998066,133.998066,-9399.007173
2597.724415,76.570323,114.855485,-9418.149754
2597.725042,76.570323,210.568389,-9418.149754
2597.725670,76.570323,153.140646,-9437.292334
2597.726298,95.712904,210.568389,-9418.149754
2597.726925,57.427742,172.283227,-9360.722011
2597.727553,95.712904,172.283227,-9360.722011
2597.728180,114.855485,153.140646,-9418.149754
2597.728808,38.285162,153.140646,-9418.149754
2597.729436,95.712904,153.140646,-9379.864592
2597.730063,153.140646,95.712904,-9360.722011
2597.730691,95.712904,95.712904,-9399.007173
2597.731318,133.998066,114.855485,-9418.149754
2597.731946,76.570323,172.283227,-9418.149754
2597.732574,38.285162,114.855485,-9418.149754
2597.733201,133.998066,114.855485,-9418.149754
2597.733829,38.285162,114.855485,-9418.149754
2597.734456,76.570323,153.140646,-9418.149754
2597.735084,76.570323,210.568389,-9418.149754
2597.735712,133.998066,172.283227,-9360.722011
2597.736339,114.855485,114.855485,-9379.864592
2597.736967,95.712904,133.998066,-9360.722011
2597.737594,153.140646,133.998066,-9399.007173
2597.738222,57.427742,172.283227,-9360.722011
2597.738850,95.712904,114.855485,-9418.149754
2597.739477,133.998066,172.283227,-9418.149754
2597.740105,114.855485,114.855485,-9379.864592
2597.740732,133.998066,172.283227,-9418.149754
2597.741360,57.427742,191.425808,-9360.722011
2597.741988,133.998066,172.283227,-9360.722011
2597.742615,76.570323,133.998066,-9360.722011
2597.743243,95.712904,95.712904,-9399.007173
2597.743871,38.285162,114.855485,-9418.149754
2597.744498,76.570323,172.283227,-9418.149754
2597.745126,76.570323,114.855485,-9418.149754
2597.745753,38.285162,114.855485,-9418.149754
2597.746381,133.998066,172.283227,-9418.149754
2597.747009,133.998066,114.855485,-9418.149754
2597.747636,95.712904,133.998066,-9360.722011
2597.748264,133.998066,114.855485,-9418.149754
2597.748891,153.140646,133.998066,-9399.007173
2597.749519,133.998066,114.855485,-9418.149754
2597.750147,95.712904,114.855485,-9418.149754
2597.750774,133.998066,114.855485,-9418.149754
2597.751402,95.712904,172.283227,-9360.722011
2597.752029,38.285162,114.855485,-9418.149754
2597.752657,133.998066,133.998066,-9399.007173
2597.753285,76.570323,191.425808,-9418.149754
2597.753912,57.427742,153.140646,-9360.722011
2597.754540,76.570323,172.283227,-9418.149754
2597.755167,57.427742,114.855485,-9418.149754
2597.755795,76.570323,133.998066,-9360.722011
2597.756423,153.140646,133.998066,-9399.007173
2597.757050,114.855485,114.855485,-9322.436850
2597.757678,153.140646,133.998066,-9399.007173
2597.758305,172.283227,172.283227,-9379.864592
2597.758933,133.998066,172.283227,-9418.149754
2597.759561,133.998066,172.283227,-9418.149754
2597.760188,133.998066,114.855485,-9418.149754
2597.760816,95.712904,191.425808,-9360.722011
2597.761444,76.570323,114.855485,-9418.149754
2597.762071,76.570323,172.283227,-9418.149754
2597.762699,76.570323,172.283227,-9418.149754
2597.763326,133.998066,172.283227,-9418.149754
2597.763954,76.570323,114.855485,-9456.434915
2597.764582,76.570323,114.855485,-9437.292334
2597.765209,38.285162,114.855485,-9418.149754
2597.765837,76.570323,114.855485,-9418.149754
2597.766464,133.998066,153.140646,-9437.292334
2597.767092,172.283227,114.855485,-9379.864592
2597.767720,38.285162,114.855485,-9418.149754
2597.768347,95.712904,114.855485,-9399.007173
2597.768975,95.712904,114.855485,-9475.577496
2597.769602,76.570323,153.140646,-9399.007173
2597.770230,133.998066,172.283227,-9418.149754
2597.770858,133.998066,172.283227,-9418.149754
2597.771485,95.712904,95.712904,-9399.007173
2597.772113,172.283227,133.998066,-9418.149754
2597.772740,114.855485,248.853550,-9360.722011
2597.773368,76.570323,114.855485,-9418.149754
2597.773996,76.570323,191.425808,-9418.149754
2597.774623,76.570323,114.855485,-9418.149754
2597.775251,76.570323,172.283227,-9418.149754
2597.775878,95.712904,133.998066,-9360.722011
2597.776506,95.712904,114.855485,-9418.149754
2597.777134,76.570323,210.568389,-9418.149754
2597.777761,95.712904,153.140646,-9360.722011
2597.778389,38.285162,114.855485,-9418.149754
2597.779017,133.998066,114.855485,-9418.149754
2597.779644,76.570323,114.855485,-9418.149754
2597.780272,95.712904,114.855485,-9418.149754
2597.780899,114.855485,95.712904,-9399.007173
2597.781527,133.998066,210.568389,-9399.007173
2597.782155,57.427742,133.998066,-9360.722011
2597.782782,76.570323,114.855485,-9418.149754
2597.783410,95.712904,95.712904,-9399.007173
2597.784037,133.998066,114.855485,-9360.722011
2597.784665,172.283227,114.855485,-9379.864592
2597.785293,153.140646,133.998066,-9399.007173
2597.785920,133.998066,172.283227,-9399.007173
2597.786548,76.570323,172.283227,-9418.149754
2597.787175,76.570323,248.853550,-9360.722011
2597.787803,133.998066,210.568389,-9360.722011
2597.788431,153.140646,133.998066,-9399.007173
2597.789058,76.570323,210.568389,-9418.149754
2597.789686,95.712904,153.140646,-9418.149754
2597.790313,76.570323,153.140646,-9379.864592
2597.790941,95.712904,133.998066,-9360.722011
2597.791569,114.855485,133.998066,-9322.436850
2597.792196,114.855485,95.712904,-9399.007173
2597.792824,191.425808,114.855485,-9379.864592
2597.793451,114.855485,133.998066,-9360.722011
2597.794079,76.570323,76.570323,-9379.864592
2597.794706,76.570323,114.855485,-9418.149754
2597.795334,76.570323,114.855485,-9418.149754
2597.795962,76.570323,114.855485,-9418.149754
2597.796589,95.712904,133.998066,-9360.722011
2597.797217,133.998066,114.855485,-9418.149754
2597.797844,133.998066,191.425808,-9399.007173
2597.798472,76.570323,114.855485,-9418.149754
2597.799099,38.285162,153.140646,-9418.149754
2597.799727,95.712904,114.855485,-9418.149754
2597.800355,133.998066,114.855485,-9360.722011
2597.800982,114.855485,114.855485,-9379.864592
2597.801610,114.855485,95.712904,-9399.007173
2597.802237,133.998066,114.855485,-9418.149754
2597.802865,114.855485,95.712904,-9399.007173
2597.803492,114.855485,114.855485,-9399.007173
2597.804120,76.570323,153.140646,-9418.149754
2597.804748,76.570323,210.568389,-9418.149754
2597.805375,133.998066,114.855485,-9418.149754
2597.806003,76.570323,114.855485,-9418.149754
2597.806630,133.998066,172.283227,-9399.007173
2597.807258,76.570323,153.140646,-9418.149754
2597.807885,95.712904,210.568389,-9341.579430
2597.808513,133.998066,76.570323,-9379.864592
2597.809140,76.570323,76.570323,-9379.864592
2597.809768,57.427742,95.712904,-9399.007173
2597.810396,76.570323,114.855485,-9437.292334
2597.811023,76.570323,114.855485,-9418.149754
2597.811651,95.712904,95.712904,-9399.007173
2597.812278,76.570323,114.855485,-9418.149754
2597.812906,133.998066,172.283227,-9418.149754
2597.813533,95.712904,172.283227,-9360.722011
2597.814161,57.427742,153.140646,-9360.722011
2597.814789,38.285162,114.855485,-9418.149754
2597.815416,172.283227,76.570323,-9437.292334
2597.816044,76.570323,114.855485,-9475.577496
2597.816671,76.570323,153.140646,-9418.149754
2597.817299,133.998066,114.855485,-9418.149754
2597.817926,95.712904,95.712904,-9437.292334
2597.818554,133.998066,114.855485,-9418.149754
2597.819182,76.570323,114.855485,-9418.149754
2597.819809,76.570323,191.425808,-9418.149754
2597.820437,38.285162,172.283227,-9437.292334
2597.821064,114.855485,153.140646,-9360.722011
2597.821692,133.998066,172.283227,-9418.149754
2597.822319,76.570323,114.855485,-9418.149754
2597.822947,133.998066,114.855485,-9418.149754
2597.823574,133.998066,114.855485,-9418.149754
2597.824202,95.712904,114.855485,-9418.149754
2597.824830,95.712904,114.855485,-9399.007173
2597.825457,114.855485,153.140646,-9360.722011
2597.826085,133.998066,114.855485,-9456.434915
2597.826712,114.855485,114.855485,-9437.292334
2597.827340,114.855485,133.998066,-9360.722011
2597.827967,76.570323,114.855485,-9418.149754
2597.828595,133.998066,114.855485,-9418.149754
2597.829223,133.998066,133.998066,-9399.007173
2597.829850,95.712904,153.140646,-9418.149754
2597.830478,133.998066,114.855485,-9418.149754
2597.831105,76.570323,153.140646,-9456.434915
2597.831733,133.998066,114.855485,-9418.149754
2597.832360,133.998066,191.425808,-9418.149754
2597.832988,76.570323,114.855485,-9418.149754
2597.833616,114.855485,153.140646,-9379.864592
2597.834243,95.712904,172.283227,-9360.722011
2597.834871,76.570323,114.855485,-9456.434915
2597.835498,57.427742,114.855485,-9399.007173
2597.836126,76.570323,114.855485,-9418.149754
2597.836753,38.285162,114.855485,-9418.149754
2597.837381,38.285162,76.570323,-9379.864592
2597.838009,133.998066,153.140646,-9456.434915
2597.838636,114.855485,133.998066,-9360.722011
2597.839264,-38.285162,191.425808,-9399.007173
2597.839891,133.998066,114.855485,-9437.292334
2597.840519,95.712904,172.283227,-9418.149754
2597.841146,133.998066,114.855485,-9456.434915
2597.841774,133.998066,114.855485,-9418.149754
2597.842401,76.570323,153.140646,-9418.149754
2597.843029,114.855485,133.998066,-9341.579430
2597.843657,133.998066,153.140646,-9418.149754
2597.844284,76.570323,114.855485,-9418.149754
2597.844912,114.855485,172.283227,-9399.007173
2597.845539,38.285162,114.855485,-9418.149754
2597.846167,114.855485,133.998066,-9360.722011
2597.846794,76.570323,153.140646,-9418.149754
2597.847422,114.855485,172.283227,-9360.722011
2597.848050,57.427742,153.140646,-9360.722011
2597.848677,133.998066,153.140646,-9418.149754
2597.849305,114.855485,172.283227,-9341.579430
2597.849932,76.570323,153.140646,-9418.149754
2597.850560,133.998066,114.855485,-9418.149754
2597.851187,133.998066,153.140646,-9399.007173
2597.851815,133.998066,153.140646,-9418.149754
2597.852443,76.570323,172.283227,-9418.149754
2597.853070,153.140646,114.855485,-9418.149754
2597.853698,133.998066,114.855485,-9418.149754
2597.854325,153.140646,133.998066,-9399.007173
2597.854953,114.855485,172.283227,-9360.722011
2597.855580,133.998066,133.998066,-9399.007173
2597.856208,38.285162,114.855485,-9418.149754
2597.856836,76.570323,172.283227,-9418.149754
2597.857463,133.998066,153.140646,-9418.149754
2597.858091,38.285162,114.855485,-9437.292334
2597.858718,153.140646,133.998066,-9399.007173
2597.859346,76.570323,172.283227,-9418.149754
2597.859973,57.427742,95.712904,-9399.007173
2597.860601,133.998066,114.855485,-9437.292334
2597.861228,95.712904,95.712904,-9399.007173
2597.861856,57.427742,153.140646,-9437.292334
2597.862484,133.998066,114.855485,-9418.149754
2597.863111,76.570323,114.855485,-9418.149754
2597.863739,95.712904,133.998066,-9360.722011
2597.864366,133.998066,210.568389,-9418.149754
2597.864994,38.285162,114.855485,-9418.149754
2597.865621,133.998066,133.998066,-9456.434915
2597.866249,76.570323,133.998066,-9418.149754
2597.866877,76.570323,153.140646,-9418.149754
2597.867504,133.998066,153.140646,-9456.434915
2597.868132,76.570323,114.855485,-9418.149754
2597.868759,38.285162,210.568389,-9360.722011
2597.869387,57.427742,172.283227,-9341.579430
2597.870014,133.998066,114.855485,-9418.149754
2597.870642,95.712904,153.140646,-9360.722011
2597.871270,57.427742,153.140646,-9360.722011
2597.871897,95.712904,133.998066,-9360.722011
2597.872525,76.570323,114.855485,-9418.149754
2597.873152,76.570323,114.855485,-9418.149754
2597.873780,38.285162,114.855485,-9437.292334
2597.874407,153.140646,191.425808,-9399.007173
2597.875035,133.998066,191.425808,-9399.007173
2597.875662,57.427742,114.855485,-9418.149754
2597.876290,38.285162,114.855485,-9418.149754
2597.876918,76.570323,114.855485,-9418.149754
2597.877545,76.570323,114.855485,-9418.149754
2597.878173,38.285162,172.283227,-9418.149754
2597.878800,76.570323,76.570323,-9379.864592
2597.879428,76.570323,114.855485,-9418.149754
2597.880055,95.712904,95.712904,-9379.864592
2597.880683,57.427742,133.998066,-9322.436850
2597.881311,76.570323,114.855485,-9341.579430
2597.881938,95.712904,210.568389,-9418.149754
2597.882566,172.283227,172.283227,-9379.864592
2597.883193,133.998066,153.140646,-9399.007173
2597.883821,95.712904,133.998066,-9360.722011
2597.884448,38.285162,114.855485,-9456.434915
2597.885076,76.570323,114.855485,-9418.149754
2597.885704,57.427742,153.140646,-9341.579430
2597.886331,153.140646,114.855485,-9418.149754
2597.886959,133.998066,114.855485,-9360.722011
2597.887586,95.712904,95.712904,-9399.007173
2597.888214,38.285162,114.855485,-9418.149754
2597.888841,133.998066,153.140646,-9418.149754
2597.889469,114.855485,133.998066,-9341.579430
2597.890097,95.712904,114.855485,-9418.149754
2597.890724,133.998066,114.855485,-9360.722011
2597.891352,57.427742,114.855485,-9418.149754
2597.891979,57.427742,133.998066,-9360.722011
2597.892606,133.998066,114.855485,-9418.149754
2597.893234,76.570323,114.855485,-9418.149754
2597.893861,133.998066,114.855485,-9418.149754
2597.894488,95.712904,95.712904,-9437.292334
2597.895116,76.570323,114.855485,-9418.149754
2597.895743,114.855485,172.283227,-9322.436850
2597.896371,76.570323,172.283227,-9418.149754
2597.896998,76.570323,114.855485,-9418.149754
2597.897625,0.000000,153.140646,-9360.722011
2597.898253,38.285162,114.855485,-9418.149754
2597.898880,76.570323,114.855485,-9418.149754
2597.899507,38.285162,114.855485,-9456.434915
2597.900135,38.285162,114.855485,-9418.149754
2597.900762,95.712904,114.855485,-9399.007173
2597.901389,76.570323,114.855485,-9418.149754
2597.902017,76.570323,114.855485,-9360.722011
2597.902644,57.427742,133.998066,-9360.722011
2597.903272,172.283227,114.855485,-9379.864592
2597.903899,95.712904,114.855485,-9456.434915
2597.904526,76.570323,114.855485,-9418.149754
2597.905154,133.998066,114.855485,-9418.149754
2597.905781,57.427742,133.998066,-9284.151688
2597.906408,133.998066,133.998066,-9399.007173
2597.907036,133.998066,114.855485,-9418.149754
2597.907663,76.570323,114.855485,-9418.149754
2597.908290,57.427742,153.140646,-9418.149754
2597.908918,76.570323,153.140646,-9360.722011
2597.909545,133.998066,172.283227,-9437.292334
2597.910173,133.998066,153.140646,-9418.149754
2597.910800,133.998066,210.568389,-9418.149754
2597.911427,76.570323,114.855485,-9418.149754
2597.912055,38.285162,153.140646,-9418.149754
2597.912682,172.283227,133.998066,-9418.149754
2597.913309,133.998066,153.140646,-9399.007173
2597.913937,114.855485,133.998066,-9360.722011
2597.914564,133.998066,114.855485,-9418.149754
2597.915191,38.285162,210.568389,-9437.292334
2597.915819,38.285162,114.855485,-9418.149754
2597.916446,38.285162,210.568389,-9418.149754
2597.917074,95.712904,114.855485,-9418.149754
2597.917701,95.712904,114.855485,-9418.149754
2597.918328,133.998066,114.855485,-9418.149754
2597.918956,76.570323,114.855485,-9418.149754
2597.919583,95.712904,114.855485,-9418.149754
2597.920210,76.570323,114.855485,-9418.149754
2597.920838,95.712904,133.998066,-9341.579430
2597.921465,19.142581,172.283227,-9418.149754
2597.922092,114.855485,95.712904,-9399.007173
2597.922720,114.855485,95.712904,-9399.007173
2597.923347,76.570323,172.283227,-9418.149754
2597.923975,133.998066,114.855485,-9418.149754
2597.924602,76.570323,114.855485,-9418.149754
2597.925229,76.570323,114.855485,-9418.149754
2597.925857,133.998066,114.855485,-9437.292334
2597.926484,114.855485,133.998066,-9360.722011
2597.927111,114.855485,133.998066,-9360.722011
2597.927739,76.570323,114.855485,-9418.149754
2597.928366,76.570323,114.855485,-9418.149754
2597.928993,114.855485,153.140646,-9360.722011
2597.929621,114.855485,172.283227,-9360.722011
2597.930248,133.998066,114.855485,-9418.149754
2597.930876,76.570323,210.568389,-9360.722011
2597.931503,95.712904,172.283227,-9360.722011
2597.932130,133.998066,95.712904,-9360.722011
2597.932758,76.570323,114.855485,-9418.149754
2597.933385,95.712904,133.998066,-9360.722011
2597.934012,133.998066,153.140646,-9418.149754
2597.934640,133.998066,191.425808,-9418.149754
2597.935267,76.570323,153.140646,-9437.292334
2597.935894,38.285162,114.855485,-9418.149754
2597.936522,153.140646,133.998066,-9399.007173
2597.937149,76.570323,114.855485,-9418.149754
2597.937777,114.855485,210.568389,-9360.722011
2597.938404,133.998066,153.140646,-9437.292334
2597.939031,57.427742,114.855485,-9418.149754
2597.939659,76.570323,114.855485,-9418.149754
2597.940286,76.570323,114.855485,-9418.149754
2597.940913,76.570323,172.283227,-9418.149754
2597.941541,38.285162,114.855485,-9437.292334
2597.942168,76.570323,153.140646,-9418.149754
2597.942795,114.855485,95.712904,-9399.007173
2597.943423,76.570323,172.283227,-9418.149754
2597.944050,0.000000,172.283227,-9360.722011
2597.944678,114.855485,114.855485,-9379.864592
2597.945305,133.998066,153.140646,-9418.149754
2597.945932,38.285162,114.855485,-9418.149754
2597.946560,76.570323,210.568389,-9418.149754
2597.947187,133.998066,153.140646,-9418.149754
2597.947814,76.570323,172.283227,-9475.577496
2597.948442,76.570323,191.425808,-9360.722011
2597.949069,95.712904,153.140646,-9360.722011
2597.949696,76.570323,114.855485,-9418.149754
2597.950324,76.570323,172.283227,-9418.149754
2597.950951,57.427742,114.855485,-9475.577496
2597.951579,95.712904,95.712904,-9399.007173
2597.952206,153.140646,133.998066,-9379.864592
2597.952833,95.712904,172.283227,-9360.722011
2597.953461,76.570323,114.855485,-9418.149754
2597.954088,38.285162,114.855485,-9418.149754
2597.954715,76.570323,133.998066,-9360.722011
2597.955343,172.283227,76.570323,-9418.149754
2597.955970,153.140646,95.712904,-9360.722011
2597.956597,133.998066,191.425808,-9456.434915
2597.957225,133.998066,114.855485,-9418.149754
2597.957852,76.570323,114.855485,-9418.149754
2597.958480,38.285162,114.855485,-9494.720077
2597.959107,76.570323,114.855485,-9437.292334
2597.959734,133.998066,153.140646,-9418.149754
2597.960362,114.855485,38.285162,-9399.007173
2597.960989,114.855485,95.712904,-9437.292334
2597.961616,76.570323,114.855485,-9418.149754
2597.962244,114.855485,133.998066,-9360.722011
2597.962871,76.570323,133.998066,-9360.722011
2597.963498,114.855485,133.998066,-9360.722011
2597.964126,114.855485,95.712904,-9379.864592
2597.964753,76.570323,114.855485,-9456.434915
2597.965381,38.285162,114.855485,-9418.149754
2597.966008,76.570323,114.855485,-9418.149754
2597.966635,38.285162,114.855485,-9418.149754
2597.967263,38.285162,133.998066,-9379.864592
2597.967890,38.285162,172.283227,-9418.149754
2597.968517,76.570323,153.140646,-9494.720077
2597.969145,76.570323,114.855485,-9456.434915
2597.969772,57.427742,153.140646,-9360.722011
2597.970399,76.570323,114.855485,-9418.149754
2597.971027,76.570323,95.712904,-9399.007173
2597.971654,133.998066,133.998066,-9399.007173
2597.972282,114.855485,95.712904,-9399.007173
2597.972909,76.570323,76.570323,-9322.436850
2597.973536,133.998066,114.855485,-9360.722011
2597.974164,172.283227,114.855485,-9379.864592
2597.974791,153.140646,153.140646,-9379.864592
2597.975418,114.855485,133.998066,-9360.722011
2597.976046,76.570323,172.283227,-9399.007173
2597.976673,76.570323,114.855485,-9360.722011
2597.977300,114.855485,95.712904,-9399.007173
2597.977928,76.570323,76.570323,-9379.864592
2597.978555,76.570323,153.140646,-9418.149754
2597.979183,114.855485,153.140646,-9360.722011
2597.979810,19.142581,114.855485,-9456.434915
2597.980437,38.285162,210.568389,-9418.149754
2597.981065,95.712904,153.140646,-9360.722011
2597.981692,153.140646,172.283227,-9437.292334
2597.982319,76.570323,114.855485,-9418.149754
2597.982947,76.570323,172.283227,-9418.149754
2597.983574,76.570323,172.283227,-9418.149754
2597.984201,38.285162,114.855485,-9418.149754
2597.984829,133.998066,114.855485,-9418.149754
2597.985456,76.570323,153.140646,-9418.149754
2597.986084,114.855485,191.425808,-9360.722011
2597.986711,114.855485,172.283227,-9360.722011
2597.987338,133.998066,114.855485,-9418.149754
2597.987966,114.855485,153.140646,-9379.864592
2597.988593,95.712904,95.712904,-9399.007173
2597.989220,95.712904,153.140646,-9360.722011
2597.989848,76.570323,153.140646,-9418.149754
2597.990475,114.855485,95.712904,-9399.007173
2597.991102,133.998066,172.283227,-9418.149754
2597.991730,133.998066,114.855485,-9418.149754
2597.992357,114.855485,133.998066,-9360.722011
2597.992985,114.855485,153.140646,-9360.722011
2597.993613,133.998066,114.855485,-9418.149754
2597.994240,76.570323,114.855485,-9418.149754
2597.994868,114.855485,95.712904,-9399.007173
2597.995495,76.570323,114.855485,-9418.149754
2597.996123,57.427742,95.712904,-9399.007173
2597.996750,95.712904,133.998066,-9360.722011
2597.997378,114.855485,95.712904,-9399.007173
2597.998005,95.712904,133.998066,-9360.722011
2597.998633,38.285162,114.855485,-9418.149754
2597.999260,38.285162,172.283227,-9418.149754
2597.999888,95.712904,172.283227,-9360.722011
2598.000516,114.855485,95.712904,-9399.007173
2598.001143,114.855485,133.998066,-9360.722011
2598.001771,76.570323,172.283227,-9437.292334
2598.002398,114.855485,191.425808,-9360.722011
2598.003026,114.855485,133.998066,-9360.722011
2598.003653,76.570323,114.855485,-9437.292334
2598.004281,76.570323,114.855485,-9437.292334
2598.004908,133.998066,172.283227,-9418.149754
2598.005536,133.998066,114.855485,-9418.149754
2598.006163,95.712904,153.140646,-9418.149754
2598.006791,76.570323,114.855485,-9360.722011
2598.007419,95.712904,133.998066,-9360.722011
2598.008046,95.712904,172.283227,-9360.722011
2598.008674,114.855485,172.283227,-9360.722011
2598.009301,133.998066,153.140646,-9418.149754
2598.009929,76.570323,114.855485,-9418.149754
2598.010556,153.140646,133.998066,-9399.007173
2598.011184,114.855485,153.140646,-9360.722011
2598.011811,153.140646,172.283227,-9399.007173
2598.012439,76.570323,114.855485,-9418.149754
2598.013066,76.570323,114.855485,-9418.149754
2598.013694,76.570323,153.140646,-9418.149754
2598.014322,38.285162,210.568389,-9456.434915
2598.014949,76.570323,114.855485,-9360.722011
2598.015577,76.570323,229.710970,-9418.149754
2598.016204,38.285162,172.283227,-9418.149754
2598.016832,76.570323,114.855485,-9418.149754
2598.017459,38.285162,114.855485,-9418.149754
2598.018087,95.712904,133.998066,-9360.722011
2598.018714,133.998066,76.570323,-9322.436850
2598.019342,76.570323,114.855485,-9418.149754
2598.019969,95.712904,153.140646,-9360.722011
2598.020597,38.285162,210.568389,-9475.577496
2598.021225,133.998066,114.855485,-9360.722011
2598.021852,76.570323,114.855485,-9418.149754
2598.022480,38.285162,153.140646,-9418.149754
2598.023107,76.570323,133.998066,-9360.722011
2598.023735,76.570323,114.855485,-9418.149754
2598.024362,95.712904,133.998066,-9360.722011
2598.024990,133.998066,114.855485,-9418.149754
2598.025617,76.570323,191.425808,-9418.149754
2598.026245,133.998066,114.855485,-9418.149754
2598.026872,76.570323,210.568389,-9418.149754
2598.027500,114.855485,133.998066,-9360.722011
2598.028128,133.998066,114.855485,-9418.149754
2598.028755,95.712904,153.140646,-9360.722011
2598.029383,76.570323,153.140646,-9418.149754
2598.030010,95.712904,114.855485,-9418.149754
2598.030638,76.570323,210.568389,-9360.722011
2598.031265,57.427742,133.998066,-9360.722011
2598.031893,57.427742,210.568389,-9360.722011
2598.032520,114.855485,133.998066,-9360.722011
2598.033148,95.712904,133.998066,-9360.722011
2598.033775,95.712904,114.855485,-9418.149754
2598.034403,95.712904,153.140646,-9360.722011
2598.035031,38.285162,153.140646,-9418.149754
2598.035658,95.712904,133.998066,-9360.722011
2598.036286,76.570323,153.140646,-9418.149754
2598.036913,95.712904,153.140646,-9360.722011
2598.037541,153.140646,191.425808,-9399.007173
2598.038168,76.570323,114.855485,-9418.149754
2598.038796,133.998066,133.998066,-9379.864592
2598.039423,95.712904,172.283227,-9341.579430
2598.040051,76.570323,172.283227,-9360.722011
2598.040678,114.855485,133.998066,-9418.149754
2598.041306,133.998066,172.283227,-9399.007173
2598.041934,38.285162,153.140646,-9418.149754
2598.042561,133.998066,153.140646,-9418.149754
2598.043189,95.712904,153.140646,-9360.722011
2598.043816,95.712904,114.855485,-9418.149754
2598.044444,133.998066,114.855485,-9418.149754
2598.045071,153.140646,114.855485,-9360.722011
2598.045699,57.427742,191.425808,-9360.722011
2598.046326,57.427742,172.283227,-9475.577496
2598.046954,38.285162,153.140646,-9418.149754
2598.047582,114.855485,172.283227,-9360.722011
2598.048209,133.998066,114.855485,-9418.149754
2598.048837,95.712904,95.712904,-9399.007173
2598.049464,95.712904,133.998066,-9418.149754
2598.050092,76.570323,114.855485,-9418.149754
2598.050719,133.998066,114.855485,-9475.577496
2598.051347,133.998066,229.710970,-9418.149754
2598.051974,95.712904,191.425808,-9360.722011
2598.052602,76.570323,153.140646,-9418.149754
2598.053229,76.570323,114.855485,-9418.149754
2598.053857,114.855485,133.998066,-9360.722011
2598.054485,133.998066,114.855485,-9418.149754
2598.055112,114.855485,133.998066,-9360.722011
2598.055740,95.712904,95.712904,-9322.436850
2598.056367,76.570323,114.855485,-9418.149754
2598.056995,76.570323,114.855485,-9418.149754
2598.057622,76.570323,76.570323,-9379.864592
2598.058250,133.998066,114.855485,-9418.149754
2598.058877,153.140646,133.998066,-9456.434915
2598.059505,153.140646,133.998066,-9399.007173
2598.060132,133.998066,114.855485,-9418.149754
2598.060760,95.712904,114.855485,-9379.864592
2598.061388,95.712904,95.712904,-9399.007173
2598.062015,133.998066,114.855485,-9418.149754
2598.062643,133.998066,210.568389,-9418.149754
2598.063270,133.998066,114.855485,-9418.149754
2598.063898,38.285162,172.283227,-9418.149754
2598.064525,76.570323,133.998066,-9360.722011
2598.065153,133.998066,114.855485,-9418.149754
2598.065780,76.570323,153.140646,-9418.149754
2598.066408,38.285162,114.855485,-9418.149754
2598.067035,38.285162,172.283227,-9418.149754
2598.067663,76.570323,153.140646,-9418.149754
2598.068291,133.998066,114.855485,-9456.434915
2598.068918,210.568389,133.998066,-9399.007173
2598.069546,133.998066,133.998066,-9399.007173
2598.070173,76.570323,191.425808,-9437.292334
2598.070801,76.570323,210.568389,-9418.149754
2598.071428,76.570323,114.855485,-9418.149754
2598.072056,38.285162,153.140646,-9418.149754
2598.072683,76.570323,114.855485,-9418.149754
2598.073311,133.998066,229.710970,-9418.149754
2598.073938,38.285162,172.283227,-9360.722011
2598.074566,76.570323,210.568389,-9418.149754
2598.075194,38.285162,153.140646,-9418.149754
2598.075821,38.285162,153.140646,-9418.149754
2598.076449,114.855485,95.712904,-9399.007173
2598.077076,133.998066,114.855485,-9418.149754
2598.077704,57.427742,153.140646,-9418.149754
2598.078331,133.998066,210.568389,-9418.149754
2598.078959,76.570323,191.425808,-9437.292334
2598.079586,133.998066,172.283227,-9399.007173
2598.080214,114.855485,153.140646,-9360.722011
2598.080841,95.712904,191.425808,-9360.722011
2598.081469,95.712904,191.425808,-9360.722011
2598.082097,114.855485,153.140646,-9360.722011
2598.082724,172.283227,114.855485,-9322.436850
2598.083352,114.855485,133.998066,-9322.436850
2598.083979,38.285162,153.140646,-9418.149754
2598.084607,76.570323,114.855485,-9418.149754
2598.085234,38.285162,114.855485,-9437.292334
2598.085862,76.570323,95.712904,-9399.007173
2598.086489,114.855485,172.283227,-9379.864592
2598.087117,76.570323,114.855485,-9418.149754
2598.087744,57.427742,172.283227,-9360.722011
2598.088372,133.998066,153.140646,-9418.149754
2598.089000,76.570323,133.998066,-9360.722011
2598.089627,153.140646,153.140646,-9399.007173
2598.090255,76.570323,210.568389,-9418.149754
2598.090882,38.285162,172.283227,-9418.149754
2598.091510,114.855485,133.998066,-9360.722011
2598.092137,133.998066,114.855485,-9418.149754
2598.092765,133.998066,95.712904,-9360.722011
2598.093393,114.855485,133.998066,-9360.722011
2598.094020,76.570323,172.283227,-9418.149754
2598.094648,114.855485,133.998066,-9360.722011
2598.095275,133.998066,114.855485,-9475.577496
2598.095903,133.998066,114.855485,-9456.434915
2598.096531,76.570323,114.855485,-9418.149754
2598.097158,95.712904,95.712904,-9399.007173
2598.097786,95.712904,95.712904,-9399.007173
2598.098413,114.855485,133.998066,-9360.722011
2598.099041,95.712904,95.712904,-9399.007173
2598.099669,133.998066,172.283227,-9418.149754
2598.100296,76.570323,114.855485,-9456.434915
2598.100924,133.998066,114.855485,-9418.149754
2598.101551,76.570323,114.855485,-9418.149754
2598.102179,76.570323,114.855485,-9418.149754
2598.102807,133.998066,114.855485,-9456.434915
2598.103434,95.712904,172.283227,-9360.722011
2598.104062,76.570323,114.855485,-9437.292334
2598.104689,76.570323,95.712904,-9399.007173
2598.105317,114.855485,114.855485,-9399.007173
2598.105945,114.855485,153.140646,-9360.722011
2598.106572,133.998066,210.568389,-9418.149754
2598.107200,133.998066,153.140646,-9360.722011
2598.107827,95.712904,172.283227,-9360.722011
2598.108455,133.998066,153.140646,-9399.007173
2598.109082,38.285162,114.855485,-9418.149754
2598.109710,57.427742,153.140646,-9418.149754
2598.110338,76.570323,210.568389,-9418.149754
2598.110965,76.570323,172.283227,-9418.149754
2598.111593,76.570323,153.140646,-9418.149754
2598.112220,133.998066,191.425808,-9399.007173
2598.112848,76.570323,210.568389,-9418.149754
2598.113476,76.570323,114.855485,-9418.149754
2598.114103,114.855485,114.855485,-9379.864592
2598.114731,153.140646,153.140646,-9399.007173
2598.115358,95.712904,133.998066,-9360.722011
2598.115986,95.712904,95.712904,-9399.007173
2598.116614,133.998066,114.855485,-9418.149754
2598.117241,95.712904,133.998066,-9341.579430
2598.117869,114.855485,95.712904,-9456.434915
2598.118496,76.570323,114.855485,-9418.149754
2598.119124,133.998066,114.855485,-9418.149754
2598.119752,114.855485,153.140646,-9418.149754
2598.120379,133.998066,133.998066,-9399.007173
2598.121007,95.712904,114.855485,-9418.149754
2598.121634,95.712904,191.425808,-9360.722011
2598.122262,76.570323,153.140646,-9418.149754
2598.122890,133.998066,114.855485,-9418.149754
2598.123517,57.427742,95.712904,-9399.007173
2598.124145,76.570323,114.855485,-9418.149754
2598.124772,76.570323,95.712904,-9399.007173
2598.125400,95.712904,172.283227,-9418.149754
2598.126028,133.998066,210.568389,-9418.149754
2598.126655,95.712904,133.998066,-9360.722011
2598.127283,133.998066,210.568389,-9418.149754
2598.127910,133.998066,153.140646,-9418.149754
2598.128538,133.998066,114.855485,-9418.149754
2598.129166,153.140646,248.853550,-9456.434915
2598.129793,133.998066,153.140646,-9418.149754
2598.130421,76.570323,114.855485,-9418.149754
2598.131048,133.998066,114.855485,-9418.149754
2598.131676,210.568389,133.998066,-9399.007173
2598.132304,153.140646,133.998066,-9399.007173
2598.132931,133.998066,114.855485,-9475.577496
2598.133559,76.570323,114.855485,-9418.149754
2598.134186,114.855485,191.425808,-9360.722011
2598.134814,38.285162,114.855485,-9418.149754
2598.135442,38.285162,153.140646,-9418.149754
2598.136069,76.570323,153.140646,-9418.149754
2598.136697,95.712904,95.712904,-9399.007173
2598.137324,38.285162,172.283227,-9418.149754
2598.137952,95.712904,172.283227,-9418.149754
2598.138580,133.998066,153.140646,-9418.149754
2598.139207,153.140646,133.998066,-9399.007173
2598.139835,76.570323,114.855485,-9418.149754
2598.140462,38.285162,172.283227,-9360.722011
2598.141090,76.570323,114.855485,-9418.149754
2598.141718,172.283227,76.570323,-9418.149754
2598.142345,133.998066,114.855485,-9418.149754
2598.142973,76.570323,153.140646,-9418.149754
2598.143600,38.285162,114.855485,-9418.149754
2598.144228,19.142581,114.855485,-9418.149754
2598.144856,95.712904,172.283227,-9418.149754
2598.145483,95.712904,172.283227,-9437.292334
2598.146111,76.570323,172.283227,-9418.149754
2598.146738,133.998066,172.283227,-9418.149754
2598.147366,76.570323,172.283227,-9418.149754
2598.147994,133.998066,133.998066,-9456.434915
2598.148621,95.712904,172.283227,-9360.722011
2598.149249,114.855485,76.570323,-9418.149754
2598.149876,95.712904,133.998066,-9360.722011
2598.150504,95.712904,172.283227,-9418.149754
2598.151132,76.570323,114.855485,-9418.149754
2598.151759,76.570323,172.283227,-9418.149754
2598.152387,76.570323,114.855485,-9418.149754
2598.153014,95.712904,133.998066,-9360.722011
2598.153642,57.427742,133.998066,-9360.722011
2598.154270,95.712904,114.855485,-9399.007173
2598.154897,133.998066,153.140646,-9418.149754
2598.155525,38.285162,172.283227,-9418.149754
2598.156152,76.570323,114.855485,-9418.149754
2598.156780,133.998066,133.998066,-9399.007173
2598.157408,133.998066,133.998066,-9437.292334
2598.158035,114.855485,172.283227,-9379.864592
2598.158663,133.998066,114.855485,-9418.149754
2598.159290,133.998066,172.283227,-9418.149754
2598.159918,153.140646,191.425808,-9399.007173
2598.160546,76.570323,114.855485,-9418.149754
2598.161173,114.855485,133.998066,-9360.722011
2598.161801,76.570323,114.855485,-9418.149754
2598.162428,76.570323,114.855485,-9418.149754
2598.163056,95.712904,133.998066,-9341.579430
2598.163684,76.570323,210.568389,-9418.149754
2598.164311,153.140646,172.283227,-9418.149754
2598.164939,76.570323,153.140646,-9418.149754
2598.165566,114.855485,133.998066,-9360.722011
2598.166194,133.998066,133.998066,-9399.007173
2598.166822,95.712904,191.425808,-9360.722011
2598.167449,133.998066,114.855485,-9418.149754
2598.168077,57.427742,229.710970,-9418.149754
2598.168704,38.285162,133.998066,-9360.722011
2598.169332,76.570323,172.283227,-9418.149754
2598.169960,76.570323,114.855485,-9418.149754
2598.170587,95.712904,114.855485,-9418.149754
2598.171215,76.570323,172.283227,-9418.149754
2598.171842,38.285162,153.140646,-9418.149754
2598.172470,76.570323,76.570323,-9379.864592
2598.173098,38.285162,114.855485,-9418.149754
2598.173725,57.427742,95.712904,-9399.007173
2598.174353,95.712904,172.283227,-9399.007173
2598.174980,133.998066,153.140646,-9418.149754
2598.175608,114.855485,133.998066,-9360.722011
2598.176236,133.998066,172.283227,-9456.434915
2598.176863,114.855485,95.712904,-9379.864592
2598.177491,76.570323,114.855485,-9456.434915
2598.178118,172.283227,114.855485,-9379.864592
2598.178746,114.855485,114.855485,-9379.864592
2598.179374,76.570323,114.855485,-9437.292334
2598.180001,76.570323,114.855485,-9418.149754
2598.180629,114.855485,133.998066,-9360.722011
2598.181256,133.998066,133.998066,-9399.007173
2598.181884,38.285162,114.855485,-9418.149754
2598.182512,133.998066,114.855485,-9418.149754
2598.183139,114.855485,133.998066,-9341.579430
2598.183767,95.712904,133.998066,-9360.722011
2598.184394,38.285162,114.855485,-9418.149754
2598.185022,114.855485,133.998066,-9360.722011
2598.185650,76.570323,153.140646,-9360.722011
2598.186277,133.998066,172.283227,-9418.149754
2598.186905,114.855485,153.140646,-9360.722011
2598.187532,76.570323,153.140646,-9418.149754
2598.188160,57.427742,133.998066,-9360.722011
2598.188788,95.712904,133.998066,-9360.722011
2598.189415,133.998066,172.283227,-9437.292334
2598.190043,114.855485,133.998066,-9418.149754
2598.190670,76.570323,191.425808,-9475.577496
2598.191298,76.570323,114.855485,-9456.434915
2598.191926,38.285162,114.855485,-9418.149754
2598.192553,114.855485,133.998066,-9322.436850
2598.193181,153.140646,95.712904,-9360.722011
2598.193808,114.855485,172.283227,-9360.722011
2598.194436,38.285162,133.998066,-9360.722011
2598.195064,76.570323,210.568389,-9437.292334
2598.195691,133.998066,114.855485,-9437.292334
2598.196319,172.283227,114.855485,-9379.864592
2598.196946,133.998066,210.568389,-9418.149754
2598.197574,153.140646,191.425808,-9399.007173
2598.198202,133.998066,133.998066,-9399.007173
2598.198829,95.712904,76.570323,-9322.436850
2598.199457,114.855485,95.712904,-9456.434915
2598.200084,153.140646,191.425808,-9399.007173
2598.200712,76.570323,210.568389,-9418.149754
2598.201339,95.712904,210.568389,-9418.149754
2598.201967,114.855485,95.712904,-9399.007173
2598.202594,38.285162,76.570323,-9379.864592
2598.203222,76.570323,114.855485,-9418.149754
2598.203849,172.283227,76.570323,-9456.434915
2598.204477,114.855485,133.998066,-9360.722011
2598.205104,76.570323,114.855485,-9456.434915
2598.205732,133.998066,114.855485,-9360.722011
2598.206359,76.570323,172.283227,-9437.292334
2598.206986,114.855485,172.283227,-9418.149754
2598.207614,38.285162,114.855485,-9418.149754
2598.208241,76.570323,114.855485,-9418.149754
2598.208869,95.712904,95.712904,-9399.007173
2598.209496,95.712904,191.425808,-9418.149754
2598.210124,0.000000,191.425808,-9379.864592
2598.210751,95.712904,172.283227,-9360.722011
2598.211379,95.712904,133.998066,-9418.149754
2598.212006,114.855485,95.712904,-9399.007173
2598.212634,133.998066,114.855485,-9418.149754
2598.213261,38.285162,114.855485,-9418.149754
2598.213889,76.570323,114.855485,-9437.292334
2598.214516,76.570323,114.855485,-9418.149754
2598.215144,114.855485,133.998066,-9360.722011
2598.215771,114.855485,95.712904,-9379.864592
2598.216399,133.998066,191.425808,-9418.149754
2598.217026,76.570323,114.855485,-9418.149754
2598.217654,76.570323,210.568389,-9418.149754
2598.218281,76.570323,153.140646,-9418.149754
2598.218909,95.712904,153.140646,-9418.149754
2598.219536,95.712904,114.855485,-9418.149754
2598.220164,76.570323,210.568389,-9456.434915
2598.220791,133.998066,210.568389,-9418.149754
2598.221419,172.283227,172.283227,-9379.864592
2598.222046,133.998066,114.855485,-9418.149754
2598.222674,38.285162,114.855485,-9418.149754
2598.223301,76.570323,114.855485,-9456.434915
2598.223929,76.570323,114.855485,-9418.149754
2598.224556,95.712904,172.283227,-9418.149754
2598.225184,133.998066,114.855485,-9418.149754
2598.225811,172.283227,153.140646,-9379.864592
2598.226439,38.285162,114.855485,-9437.292334
2598.227066,38.285162,114.855485,-9418.149754
2598.227694,133.998066,133.998066,-9456.434915
2598.228321,133.998066,114.855485,-9418.149754
2598.228949,133.998066,114.855485,-9418.149754
2598.229576,95.712904,95.712904,-9399.007173
2598.230204,133.998066,133.998066,-9399.007173
2598.230831,133.998066,172.283227,-9418.149754
2598.231459,133.998066,172.283227,-9399.007173
2598.232086,114.855485,133.998066,-9360.722011
2598.232714,153.140646,133.998066,-9399.007173
2598.233341,133.998066,153.140646,-9456.434915
2598.233969,133.998066,172.283227,-9360.722011
2598.234596,133.998066,172.283227,-9418.149754
2598.235224,133.998066,76.570323,-9379.864592
2598.235851,114.855485,95.712904,-9399.007173
2598.236479,114.855485,210.568389,-9379.864592
2598.237106,172.283227,172.283227,-9379.864592
2598.237734,133.998066,191.425808,-9399.007173
2598.238361,76.570323,153.140646,-9360.722011
2598.238989,133.998066,210.568389,-9399.007173
2598.239616,76.570323,229.710970,-9418.149754
2598.240244,76.570323,153.140646,-9418.149754
2598.240871,95.712904,114.855485,-9456.434915
2598.241499,76.570323,114.855485,-9456.434915
2598.242126,57.427742,133.998066,-9360.722011
2598.242754,76.570323,172.283227,-9437.292334
2598.243381,133.998066,114.855485,-9418.149754
2598.244009,114.855485,133.998066,-9360.722011
2598.244636,153.140646,95.712904,-9360.722011
2598.245264,95.712904,133.998066,-9360.722011
2598.245891,38.285162,133.998066,-9360.722011
2598.246519,133.998066,114.855485,-9418.149754
2598.247146,95.712904,133.998066,-9341.579430
2598.247774,76.570323,114.855485,-9418.149754
2598.248401,76.570323,114.855485,-9437.292334
2598.249029,76.570323,114.855485,-9418.149754
2598.249656,76.570323,114.855485,-9418.149754
2598.250284,133.998066,114.855485,-9360.722011
2598.250911,38.285162,114.855485,-9418.149754
2598.251539,95.712904,133.998066,-9360.722011
2598.252166,172.283227,114.855485,-9513.862658
2598.252794,114.855485,95.712904,-9399.007173
