#time,accel_x,accel_y,accel_z
2091.749972,76.570323,210.568389,-9456.434915
2091.750599,38.285162,172.283227,-9418.149754
2091.751226,153.140646,153.140646,-9418.149754
2091.751852,133.998066,114.855485,-9437.292334
2091.752479,133.998066,133.998066,-9456.434915
2091.753106,57.427742,114.855485,-9418.149754
2091.753732,133.998066,114.855485,-9418.149754
2091.754359,114.855485,95.712904,-9513.862658
2091.754986,153.140646,133.998066,-9456.434915
2091.755612,153.140646,133.998066,-9475.577496
2091.756239,76.570323,114.855485,-9475.577496
2091.756866,133.998066,172.283227,-9494.720077
2091.757492,133.998066,153.140646,-9418.149754
2091.758119,76.570323,114.855485,-9437.292334
2091.758745,38.285162,114.855485,-9418.149754
2091.759372,76.570323,114.855485,-9418.149754
2091.759999,76.570323,76.570323,-9399.007173
2091.760625,153.140646,133.998066,-9399.007173
2091.761252,133.998066,133.998066,-9456.434915
2091.761879,76.570323,114.855485,-9437.292334
2091.762505,76.570323,114.855485,-9456.434915
2091.763132,38.285162,114.855485,-9418.149754
2091.763759,95.712904,95.712904,-9437.292334
2091.764385,76.570323,114.855485,-9418.149754
2091.765012,95.712904,114.855485,-9475.577496
2091.765639,57.427742,153.140646,-9360.722011
2091.766265,76.570323,191.425808,-9533.005238
2091.766892,133.998066,114.855485,-9418.149754
2091.767519,133.998066,153.140646,-9418.149754
2091.768145,172.283227,210.568389,-9379.864592
2091.768772,133.998066,133.998066,-9399.007173
2091.769399,114.855485,95.712904,-9456.434915
2091.770025,95.712904,114.855485,-9475.577496
2091.770652,76.570323,153.140646,-9437.292334
2091.771278,76.570323,172.283227,-9437.292334
2091.771905,76.570323,114.855485,-9418.149754
2091.772532,76.570323,114.855485,-9418.149754
2091.773158,133.998066,114.855485,-9418.149754
2091.773785,76.570323,191.425808,-9494.720077
2091.774412,76.570323,114.855485,-9418.149754
2091.775038,133.998066,114.855485,-9418.149754
2091.775665,95.712904,133.998066,-9360.722011
2091.776292,133.998066,133.998066,-9399.007173
2091.776918,76.570323,172.283227,-9437.292334
2091.777545,95.712904,114.855485,-9456.434915
2091.778172,133.998066,114.855485,-9418.149754
2091.778798,76.570323,210.568389,-9456.434915
2091.779425,76.570323,114.855485,-9437.292334
2091.780052,76.570323,114.855485,-9418.149754
2091.780678,172.283227,114.855485,-9379.864592
2091.781305,153.140646,210.568389,-9456.434915
2091.781932,95.712904,95.712904,-9399.007173
2091.782558,133.998066,114.855485,-9418.149754
2091.783185,38.285162,114.855485,-9437.292334
2091.783811,19.142581,114.855485,-9437.292334
2091.784438,76.570323,114.855485,-9418.149754
2091.785065,95.712904,95.712904,-9399.007173
2091.785691,76.570323,114.855485,-9418.149754
2091.786318,133.998066,153.140646,-9418.149754
2091.786945,133.998066,114.855485,-9418.149754
2091.787571,133.998066,114.855485,-9418.149754
2091.788198,76.570323,114.855485,-9494.720077
2091.788825,76.570323,114.855485,-9418.149754
2091.789451,38.285162,153.140646,-9418.149754
2091.790078,95.712904,95.712904,-9399.007173
2091.790705,153.140646,114.855485,-9418.149754
2091.791331,38.285162,210.568389,-9418.149754
2091.791958,38.285162,114.855485,-9418.149754
2091.792585,133.998066,114.855485,-9418.149754
2091.793211,133.998066,172.283227,-9399.007173
2091.793838,38.285162,153.140646,-9437.292334
2091.794465,76.570323,95.712904,-9437.292334
2091.795091,76.570323,172.283227,-9456.434915
2091.795718,133.998066,210.568389,-9475.577496
2091.796344,210.568389,172.283227,-9399.007173
2091.796971,95.712904,133.998066,-9360.722011
2091.797598,133.998066,172.283227,-9418.149754
2091.798224,76.570323,172.283227,-9437.292334
2091.798851,76.570323,172.283227,-9418.149754
2091.799478,133.998066,210.568389,-9437.292334
2091.800104,133.998066,114.855485,-9418.149754
2091.800731,95.712904,114.855485,-9494.720077
2091.801358,133.998066,172.283227,-9399.007173
2091.801984,76.570323,114.855485,-9475.577496
2091.802611,76.570323,114.855485,-9475.577496
2091.803238,19.142581,172.283227,-9475.577496
2091.803864,76.570323,114.855485,-9475.577496
2091.804491,57.427742,114.855485,-9494.720077
2091.805118,153.140646,133.998066,-9494.720077
2091.805744,153.140646,133.998066,-9494.720077
2091.806371,76.570323,172.283227,-9418.149754
2091.806997,76.570323,114.855485,-9475.577496
2091.807625,133.998066,114.855485,-9418.149754
2091.808252,57.427742,133.998066,-9360.722011
2091.808879,76.570323,153.140646,-9418.149754
2091.809506,38.285162,210.568389,-9418.149754
2091.810133,76.570323,191.425808,-9418.149754
2091.810760,38.285162,114.855485,-9418.149754
2091.811387,95.712904,95.712904,-9399.007173
2091.812014,38.285162,114.855485,-9418.149754
2091.812641,153.140646,153.140646,-9399.007173
2091.813268,133.998066,153.140646,-9437.292334
2091.813895,133.998066,114.855485,-9437.292334
2091.814522,114.855485,95.712904,-9399.007173
2091.815149,19.142581,114.855485,-9437.292334
2091.815776,38.285162,114.855485,-9475.577496
2091.816403,38.285162,114.855485,-9418.149754
2091.817030,95.712904,133.998066,-9360.722011
2091.817657,95.712904,95.712904,-9399.007173
2091.818284,76.570323,114.855485,-9418.149754
2091.818911,76.570323,114.855485,-9418.149754
2091.819538,76.570323,114.855485,-9437.292334
2091.820165,76.570323,114.855485,-9418.149754
2091.820792,76.570323,114.855485,-9399.007173
2091.821419,76.570323,114.855485,-9418.149754
2091.822046,38.285162,210.568389,-9437.292334
2091.822673,38.285162,114.855485,-9475.577496
2091.823300,76.570323,114.855485,-9437.292334
2091.823927,133.998066,172.283227,-9437.292334
2091.824554,76.570323,114.855485,-9418.149754
2091.825181,57.427742,172.283227,-9437.292334
2091.825809,114.855485,114.855485,-9418.149754
2091.826436,114.855485,95.712904,-9399.007173
2091.827063,133.998066,153.140646,-9418.149754
2091.827690,76.570323,153.140646,-9418.149754
2091.828317,133.998066,114.855485,-9437.292334
2091.828944,133.998066,114.855485,-9418.149754
2091.829571,133.998066,153.140646,-9418.149754
2091.830198,133.998066,114.855485,-9475.577496
2091.830825,76.570323,114.855485,-9437.292334
2091.831452,133.998066,153.140646,-9475.577496
2091.832079,133.998066,114.855485,-9418.149754
2091.832706,133.998066,114.855485,-9418.149754
2091.833333,38.285162,114.855485,-9418.149754
2091.833960,133.998066,114.855485,-9456.434915
2091.834587,76.570323,114.855485,-9418.149754
2091.835214,76.570323,114.855485,-9456.434915
2091.835841,76.570323,114.855485,-9456.434915
2091.836468,133.998066,114.855485,-9437.292334
2091.837095,76.570323,114.855485,-9456.434915
2091.837722,76.570323,114.855485,-9418.149754
2091.838349,38.285162,172.283227,-9418.149754
2091.838976,38.285162,153.140646,-9475.577496
2091.839603,133.998066,191.425808,-9437.292334
2091.840230,133.998066,114.855485,-9437.292334
2091.840857,76.570323,172.283227,-9418.149754
2091.841484,114.855485,133.998066,-9360.722011
2091.842111,133.998066,114.855485,-9437.292334
2091.842738,133.998066,114.855485,-9418.149754
2091.843365,153.140646,114.855485,-9456.434915
2091.843993,76.570323,114.855485,-9418.149754
2091.844620,114.855485,95.712904,-9399.007173
2091.845247,95.712904,114.855485,-9475.577496
2091.845874,133.998066,114.855485,-9418.149754
2091.846501,76.570323,191.425808,-9418.149754
2091.847128,76.570323,114.855485,-9494.720077
2091.847755,76.570323,153.140646,-9418.149754
2091.848382,95.712904,172.283227,-9418.149754
2091.849009,133.998066,114.855485,-9533.005238
2091.849636,76.570323,172.283227,-9418.149754
2091.850263,76.570323,114.855485,-9494.720077
2091.850890,114.855485,133.998066,-9360.722011
2091.851517,76.570323,114.855485,-9475.577496
2091.852144,76.570323,172.283227,-9418.149754
2091.852771,133.998066,114.855485,-9418.149754
2091.853398,133.998066,172.283227,-9437.292334
2091.854025,95.712904,114.855485,-9418.149754
2091.854652,76.570323,153.140646,-9418.149754
2091.855279,133.998066,114.855485,-9456.434915
2091.855906,76.570323,114.855485,-9456.434915
2091.856533,133.998066,172.283227,-9418.149754
2091.857160,38.285162,172.283227,-9437.292334
2091.857787,172.283227,76.570323,-9475.577496
2091.858414,76.570323,114.855485,-9418.149754
2091.859041,133.998066,133.998066,-9456.434915
2091.859668,76.570323,114.855485,-9437.292334
2091.860295,133.998066,114.855485,-9418.149754
2091.860922,133.998066,114.855485,-9475.577496
2091.861549,133.998066,114.855485,-9418.149754
2091.862176,38.285162,172.283227,-9418.149754
2091.862804,76.570323,133.998066,-9360.722011
2091.863431,133.998066,114.855485,-9418.149754
2091.864058,76.570323,172.283227,-9418.149754
2091.864685,76.570323,153.140646,-9418.149754
2091.865312,133.998066,114.855485,-9456.434915
2091.865939,76.570323,114.855485,-9418.149754
2091.866566,76.570323,114.855485,-9418.149754
2091.867193,133.998066,114.855485,-9418.149754
2091.867820,95.712904,95.712904,-9399.007173
2091.868447,95.712904,114.855485,-9437.292334
2091.869074,76.570323,191.425808,-9418.149754
2091.869701,76.570323,114.855485,-9418.149754
2091.870328,76.570323,114.855485,-9437.292334
2091.870955,76.570323,114.855485,-9437.292334
2091.871582,95.712904,95.712904,-9494.720077
2091.872209,76.570323,114.855485,-9418.149754
2091.872836,38.285162,114.855485,-9418.149754
2091.873463,76.570323,172.283227,-9456.434915
2091.874090,133.998066,172.283227,-9437.292334
2091.874717,133.998066,114.855485,-9418.149754
2091.875344,133.998066,114.855485,-9418.149754
2091.875971,76.570323,114.855485,-9418.149754
2091.876598,114.855485,172.283227,-9437.292334
2091.877225,76.570323,114.855485,-9475.577496
2091.877852,153.140646,114.855485,-9456.434915
2091.878479,133.998066,114.855485,-9456.434915
2091.879106,133.998066,172.283227,-9456.434915
2091.879733,76.570323,153.140646,-9456.434915
2091.880360,76.570323,114.855485,-9533.005238
2091.880988,38.285162,172.283227,-9456.434915
2091.881615,153.140646,133.998066,-9456.434915
2091.882242,133.998066,114.855485,-9418.149754
2091.882869,76.570323,114.855485,-9418.149754
2091.883496,38.285162,114.855485,-9418.149754
2091.884123,95.712904,114.855485,-9418.149754
2091.884750,76.570323,133.998066,-9360.722011
2091.885377,76.570323,95.712904,-9399.007173
2091.886004,153.140646,172.283227,-9399.007173
2091.886631,76.570323,210.568389,-9418.149754
2091.887258,57.427742,133.998066,-9418.149754
2091.887885,133.998066,114.855485,-9418.149754
2091.888512,76.570323,172.283227,-9360.722011
2091.889139,76.570323,114.855485,-9418.149754
2091.889766,76.570323,114.855485,-9418.149754
2091.890393,76.570323,153.140646,-9418.149754
2091.891020,76.570323,114.855485,-9437.292334
2091.891647,76.570323,172.283227,-9418.149754
2091.892274,76.570323,153.140646,-9418.149754
2091.892901,76.570323,114.855485,-9418.149754
2091.893528,76.570323,133.998066,-9360.722011
2091.894155,76.570323,114.855485,-9418.149754
2091.894782,133.998066,172.283227,-9418.149754
2091.895409,114.855485,191.425808,-9360.722011
2091.896036,76.570323,114.855485,-9418.149754
2091.896663,133.998066,133.998066,-9513.862658
2091.897290,133.998066,114.855485,-9418.149754
2091.897917,76.570323,172.283227,-9418.149754
2091.898544,95.712904,114.855485,-9437.292334
2091.899172,38.285162,114.855485,-9475.577496
2091.899799,76.570323,114.855485,-9418.149754
2091.900426,76.570323,172.283227,-9418.149754
2091.901053,76.570323,153.140646,-9418.149754
2091.901680,95.712904,114.855485,-9418.149754
2091.902307,38.285162,210.568389,-9418.149754
2091.902934,38.285162,153.140646,-9456.434915
2091.903561,95.712904,210.568389,-9418.149754
2091.904188,153.140646,153.140646,-9399.007173
2091.904815,76.570323,229.710970,-9418.149754
2091.905442,76.570323,114.855485,-9418.149754
2091.906069,76.570323,114.855485,-9418.149754
2091.906696,38.285162,172.283227,-9418.149754
2091.907323,153.140646,133.998066,-9494.720077
2091.907950,133.998066,172.283227,-9418.149754
2091.908578,76.570323,172.283227,-9456.434915
2091.909205,95.712904,153.140646,-9437.292334
2091.909832,95.712904,172.283227,-9418.149754
2091.910460,38.285162,114.855485,-9418.149754
2091.911087,95.712904,114.855485,-9360.722011
2091.911714,114.855485,95.712904,-9399.007173
2091.912342,76.570323,172.283227,-9533.005238
2091.912969,76.570323,191.425808,-9456.434915
2091.913596,76.570323,114.855485,-9437.292334
2091.914224,38.285162,114.855485,-9418.149754
2091.914851,133.998066,114.855485,-9418.149754
2091.915478,133.998066,114.855485,-9418.149754
2091.916106,76.570323,210.568389,-9456.434915
2091.916733,114.855485,114.855485,-9379.864592
2091.917360,76.570323,172.283227,-9437.292334
2091.917988,95.712904,172.283227,-9437.292334
2091.918615,133.998066,172.283227,-9437.292334
2091.919242,76.570323,153.140646,-9418.149754
2091.919870,19.142581,114.855485,-9456.434915
2091.920497,38.285162,153.140646,-9437.292334
2091.921124,38.285162,172.283227,-9437.292334
2091.921752,133.998066,114.855485,-9418.149754
2091.922379,133.998066,153.140646,-9399.007173
2091.923006,76.570323,114.855485,-9437.292334
2091.923634,76.570323,114.855485,-9475.577496
2091.924261,76.570323,172.283227,-9418.149754
2091.924888,114.855485,95.712904,-9399.007173
2091.925516,133.998066,172.283227,-9418.149754
2091.926143,76.570323,114.855485,-9418.149754
2091.926770,76.570323,114.855485,-9418.149754
2091.927398,76.570323,153.140646,-9418.149754
2091.928025,133.998066,153.140646,-9456.434915
2091.928652,133.998066,153.140646,-9399.007173
2091.929280,76.570323,172.283227,-9418.149754
2091.929907,133.998066,153.140646,-9494.720077
2091.930534,133.998066,95.712904,-9437.292334
2091.931162,153.140646,153.140646,-9437.292334
2091.931789,76.570323,153.140646,-9456.434915
2091.932416,57.427742,114.855485,-9456.434915
2091.933044,133.998066,114.855485,-9437.292334
2091.933671,57.427742,95.712904,-9399.007173
2091.934298,76.570323,114.855485,-9437.292334
2091.934926,133.998066,210.568389,-9418.149754
2091.935553,76.570323,114.855485,-9418.149754
2091.936180,95.712904,133.998066,-9360.722011
2091.936808,76.570323,172.283227,-9418.149754
2091.937435,76.570323,114.855485,-9418.149754
2091.938062,76.570323,153.140646,-9418.149754
2091.938690,153.140646,133.998066,-9399.007173
2091.939317,95.712904,95.712904,-9399.007173
2091.939944,95.712904,172.283227,-9456.434915
2091.940572,133.998066,114.855485,-9418.149754
2091.941199,76.570323,172.283227,-9418.149754
2091.941826,114.855485,172.283227,-9360.722011
2091.942454,76.570323,114.855485,-9494.720077
2091.943081,153.140646,172.283227,-9437.292334
2091.943708,76.570323,114.855485,-9418.149754
2091.944336,95.712904,114.855485,-9418.149754
2091.944963,133.998066,172.283227,-9418.149754
2091.945590,114.855485,76.570323,-9418.149754
2091.946218,76.570323,114.855485,-9437.292334
2091.946845,76.570323,114.855485,-9418.149754
2091.947472,114.855485,95.712904,-9399.007173
2091.948100,172.283227,114.855485,-9379.864592
2091.948727,133.998066,153.140646,-9456.434915
2091.949354,95.712904,172.283227,-9418.149754
2091.949982,133.998066,114.855485,-9456.434915
2091.950609,133.998066,114.855485,-9418.149754
2091.951236,76.570323,114.855485,-9418.149754
2091.951864,76.570323,210.568389,-9437.292334
2091.952491,76.570323,172.283227,-9418.149754
2091.953118,133.998066,153.140646,-9456.434915
2091.953746,76.570323,114.855485,-9418.149754
2091.954373,133.998066,114.855485,-9418.149754
2091.955000,76.570323,114.855485,-9437.292334
2091.955628,133.998066,114.855485,-9456.434915
2091.956255,76.570323,153.140646,-9456.434915
2091.956882,114.855485,229.710970,-9418.149754
2091.957510,153.140646,133.998066,-9399.007173
2091.958137,153.140646,133.998066,-9399.007173
2091.958764,19.142581,114.855485,-9418.149754
2091.959392,95.712904,114.855485,-9437.292334
2091.960019,76.570323,114.855485,-9418.149754
2091.960646,133.998066,114.855485,-9418.149754
2091.961274,76.570323,114.855485,-9437.292334
2091.961901,133.998066,114.855485,-9418.149754
2091.962528,38.285162,153.140646,-9418.149754
2091.963156,76.570323,114.855485,-9418.149754
2091.963783,114.855485,210.568389,-9418.149754
2091.964410,76.570323,172.283227,-9437.292334
2091.965038,133.998066,114.855485,-9475.577496
2091.965665,114.855485,114.855485,-9399.007173
2091.966292,76.570323,114.855485,-9475.577496
2091.966920,95.712904,95.712904,-9456.434915
2091.967547,133.998066,172.283227,-9437.292334
2091.968174,76.570323,172.283227,-9475.577496
2091.968802,95.712904,95.712904,-9399.007173
2091.969429,38.285162,172.283227,-9418.149754
2091.970056,38.285162,153.140646,-9437.292334
2091.970684,95.712904,114.855485,-9418.149754
2091.971311,38.285162,114.855485,-9418.149754
2091.971938,114.855485,95.712904,-9399.007173
2091.972566,76.570323,172.283227,-9418.149754
2091.973193,76.570323,210.568389,-9418.149754
2091.973820,95.712904,191.425808,-9360.722011
2091.974448,76.570323,114.855485,-9418.149754
2091.975075,95.712904,114.855485,-9437.292334
2091.975702,38.285162,172.283227,-9437.292334
2091.976330,114.855485,95.712904,-9399.007173
2091.976957,172.283227,114.855485,-9379.864592
2091.977584,95.712904,114.855485,-9399.007173
2091.978212,76.570323,114.855485,-9418.149754
2091.978839,133.998066,114.855485,-9418.149754
2091.979466,133.998066,172.283227,-9418.149754
2091.980094,76.570323,172.283227,-9418.149754
2091.980721,153.140646,133.998066,-9399.007173
2091.981348,76.570323,210.568389,-9437.292334
2091.981976,76.570323,191.425808,-9456.434915
2091.982603,76.570323,114.855485,-9418.149754
2091.983230,95.712904,133.998066,-9360.722011
2091.983858,76.570323,76.570323,-9322.436850
2091.984485,76.570323,95.712904,-9437.292334
2091.985112,133.998066,133.998066,-9456.434915
2091.985740,76.570323,153.140646,-9418.149754
2091.986367,76.570323,114.855485,-9456.434915
2091.986994,38.285162,191.425808,-9360.722011
2091.987622,76.570323,210.568389,-9418.149754
2091.988249,38.285162,114.855485,-9418.149754
2091.988876,133.998066,114.855485,-9437.292334
2091.989504,57.427742,172.283227,-9418.149754
2091.990131,133.998066,114.855485,-9437.292334
2091.990758,95.712904,95.712904,-9399.007173
2091.991386,76.570323,210.568389,-9418.149754
2091.992013,95.712904,114.855485,-9418.149754
2091.992640,95.712904,153.140646,-9456.434915
2091.993268,57.427742,95.712904,-9456.434915
2091.993895,95.712904,95.712904,-9494.720077
2091.994522,95.712904,114.855485,-9399.007173
2091.995150,133.998066,114.855485,-9418.149754
2091.995777,191.425808,114.855485,-9379.864592
2091.996405,76.570323,172.283227,-9456.434915
2091.997032,76.570323,114.855485,-9418.149754
2091.997659,38.285162,114.855485,-9456.434915
2091.998287,133.998066,114.855485,-9437.292334
2091.998914,76.570323,114.855485,-9475.577496
2091.999541,38.285162,114.855485,-9418.149754
2092.000169,76.570323,114.855485,-9418.149754
2092.000796,76.570323,172.283227,-9418.149754
2092.001423,133.998066,114.855485,-9418.149754
2092.002051,153.140646,133.998066,-9399.007173
2092.002678,95.712904,95.712904,-9399.007173
2092.003305,76.570323,114.855485,-9418.149754
2092.003933,76.570323,172.283227,-9418.149754
2092.004560,133.998066,114.855485,-9456.434915
2092.005187,133.998066,153.140646,-9475.577496
2092.005815,133.998066,114.855485,-9418.149754
2092.006442,153.140646,133.998066,-9456.434915
2092.007069,133.998066,114.855485,-9418.149754
2092.007697,76.570323,114.855485,-9475.577496
2092.008324,133.998066,114.855485,-9437.292334
2092.008951,76.570323,114.855485,-9456.434915
2092.009579,76.570323,114.855485,-9418.149754
2092.010206,76.570323,114.855485,-9418.149754
2092.010834,114.855485,95.712904,-9399.007173
2092.011461,76.570323,114.855485,-9418.149754
2092.012088,76.570323,153.140646,-9418.149754
2092.012716,76.570323,114.855485,-9418.149754
2092.013343,172.283227,76.570323,-9418.149754
2092.013971,133.998066,114.855485,-9418.149754
2092.014598,133.998066,229.710970,-9437.292334
2092.015226,114.855485,153.140646,-9360.722011
2092.015853,133.998066,153.140646,-9418.149754
2092.016480,133.998066,210.568389,-9456.434915
2092.017108,76.570323,114.855485,-9437.292334
2092.017735,76.570323,114.855485,-9418.149754
2092.018363,133.998066,114.855485,-9494.720077
2092.018990,38.285162,114.855485,-9475.577496
2092.019617,76.570323,172.283227,-9418.149754
2092.020245,38.285162,210.568389,-9418.149754
2092.020872,38.285162,114.855485,-9418.149754
2092.021500,114.855485,95.712904,-9399.007173
2092.022127,76.570323,114.855485,-9437.292334
2092.022755,133.998066,114.855485,-9418.149754
2092.023382,95.712904,95.712904,-9399.007173
2092.024009,114.855485,114.855485,-9379.864592
2092.024637,76.570323,114.855485,-9418.149754
2092.025264,133.998066,172.283227,-9418.149754
2092.025892,76.570323,210.568389,-9418.149754
2092.026519,76.570323,114.855485,-9418.149754
2092.027146,57.427742,95.712904,-9399.007173
2092.027774,153.140646,133.998066,-9399.007173
2092.028401,76.570323,114.855485,-9418.149754
2092.029029,76.570323,114.855485,-9418.149754
2092.029656,76.570323,172.283227,-9456.434915
2092.030284,114.855485,114.855485,-9379.864592
2092.030911,95.712904,95.712904,-9437.292334
2092.031538,95.712904,153.140646,-9437.292334
2092.032166,133.998066,210.568389,-9418.149754
2092.032793,76.570323,172.283227,-9418.149754
2092.033421,95.712904,210.568389,-9437.292334
2092.034048,76.570323,172.283227,-9456.434915
2092.034675,133.998066,133.998066,-9399.007173
2092.035303,95.712904,114.855485,-9418.149754
2092.035930,133.998066,114.855485,-9456.434915
2092.036558,95.712904,95.712904,-9437.292334
2092.037185,153.140646,133.998066,-9494.720077
2092.037812,133.998066,114.855485,-9475.577496
2092.038440,76.570323,114.855485,-9418.149754
2092.039067,133.998066,114.855485,-9418.149754
2092.039695,133.998066,114.855485,-9437.292334
2092.040322,76.570323,153.140646,-9437.292334
2092.040950,76.570323,114.855485,-9475.577496
2092.041577,133.998066,133.998066,-9399.007173
2092.042204,95.712904,95.712904,-9456.434915
2092.042832,76.570323,95.712904,-9399.007173
2092.043459,114.855485,95.712904,-9399.007173
2092.044087,133.998066,114.855485,-9494.720077
2092.044714,153.140646,191.425808,-9399.007173
2092.045341,76.570323,114.855485,-9437.292334
2092.045969,76.570323,114.855485,-9418.149754
2092.046596,76.570323,114.855485,-9437.292334
2092.047224,76.570323,191.425808,-9418.149754
2092.047851,95.712904,133.998066,-9360.722011
2092.048479,133.998066,114.855485,-9418.149754
2092.049106,76.570323,114.855485,-9418.149754
2092.049733,133.998066,114.855485,-9418.149754
2092.050361,76.570323,114.855485,-9418.149754
2092.050988,133.998066,114.855485,-9437.292334
2092.051616,57.427742,172.283227,-9418.149754
2092.052243,133.998066,210.568389,-9418.149754
2092.052870,95.712904,133.998066,-9360.722011
2092.053498,76.570323,153.140646,-9418.149754
2092.054125,153.140646,172.283227,-9437.292334
2092.054753,76.570323,114.855485,-9418.149754
2092.055380,133.998066,172.283227,-9437.292334
2092.056008,153.140646,133.998066,-9456.434915
2092.056635,133.998066,114.855485,-9456.434915
2092.057262,133.998066,153.140646,-9475.577496
2092.057890,76.570323,210.568389,-9418.149754
2092.058517,38.285162,172.283227,-9418.149754
2092.059145,133.998066,210.568389,-9456.434915
2092.059772,172.283227,153.140646,-9379.864592
2092.060399,95.712904,133.998066,-9360.722011
2092.061027,153.140646,153.140646,-9437.292334
2092.061654,114.855485,76.570323,-9418.149754
2092.062282,133.998066,114.855485,-9418.149754
2092.062909,114.855485,114.855485,-9399.007173
2092.063537,133.998066,114.855485,-9456.434915
2092.064164,153.140646,133.998066,-9399.007173
2092.064791,114.855485,95.712904,-9437.292334
2092.065419,95.712904,95.712904,-9456.434915
2092.066046,76.570323,114.855485,-9418.149754
2092.066674,76.570323,153.140646,-9418.149754
2092.067301,38.285162,114.855485,-9437.292334
2092.067928,76.570323,153.140646,-9475.577496
2092.068556,95.712904,114.855485,-9437.292334
2092.069183,153.140646,133.998066,-9456.434915
2092.069811,76.570323,114.855485,-9494.720077
2092.070438,114.855485,95.712904,-9437.292334
2092.071066,133.998066,210.568389,-9456.434915
2092.071693,133.998066,172.283227,-9475.577496
2092.072320,76.570323,172.283227,-9456.434915
2092.072948,133.998066,210.568389,-9418.149754
2092.073575,76.570323,172.283227,-9360.722011
2092.074203,38.285162,210.568389,-9418.149754
2092.074830,172.283227,114.855485,-9379.864592
2092.075457,76.570323,210.568389,-9418.149754
2092.076085,133.998066,172.283227,-9399.007173
2092.076712,114.855485,95.712904,-9399.007173
2092.077340,76.570323,114.855485,-9437.292334
2092.077967,76.570323,210.568389,-9418.149754
2092.078595,38.285162,210.568389,-9418.149754
2092.079222,133.998066,114.855485,-9437.292334
2092.079849,76.570323,114.855485,-9418.149754
2092.080477,76.570323,114.855485,-9494.720077
2092.081104,76.570323,210.568389,-9418.149754
2092.081732,76.570323,210.568389,-9418.149754
2092.082359,153.140646,133.998066,-9456.434915
2092.082986,76.570323,172.283227,-9418.149754
2092.083614,95.712904,133.998066,-9418.149754
2092.084241,153.140646,114.855485,-9418.149754
2092.084869,76.570323,172.283227,-9418.149754
2092.085496,133.998066,114.855485,-9456.434915
2092.086124,76.570323,172.283227,-9456.434915
2092.086751,76.570323,114.855485,-9437.292334
2092.087378,76.570323,114.855485,-9418.149754
2092.088006,133.998066,172.283227,-9418.149754
2092.088633,133.998066,153.140646,-9456.434915
2092.089261,172.283227,114.855485,-9379.864592
2092.089888,76.570323,114.855485,-9418.149754
2092.090515,76.570323,114.855485,-9418.149754
2092.091143,76.570323,153.140646,-9494.720077
2092.091770,38.285162,114.855485,-9418.149754
2092.092398,133.998066,114.855485,-9456.434915
2092.093025,76.570323,210.568389,-9456.434915
2092.093653,95.712904,172.283227,-9360.722011
2092.094280,133.998066,172.283227,-9418.149754
2092.094907,172.283227,172.283227,-9379.864592
2092.095535,153.140646,133.998066,-9456.434915
2092.096162,133.998066,114.855485,-9475.577496
2092.096790,76.570323,114.855485,-9456.434915
2092.097417,133.998066,172.283227,-9418.149754
2092.098044,38.285162,153.140646,-9418.149754
2092.098672,133.998066,133.998066,-9399.007173
2092.099299,133.998066,114.855485,-9437.292334
2092.099927,76.570323,114.855485,-9437.292334
2092.100554,172.283227,172.283227,-9399.007173
2092.101182,133.998066,153.140646,-9456.434915
2092.101809,133.998066,114.855485,-9418.149754
2092.102436,114.855485,95.712904,-9399.007173
2092.103064,133.998066,114.855485,-9437.292334
2092.103691,38.285162,114.855485,-9418.149754
2092.104319,38.285162,153.140646,-9418.149754
2092.104946,76.570323,114.855485,-9418.149754
2092.105573,114.855485,95.712904,-9399.007173
2092.106201,133.998066,153.140646,-9418.149754
2092.106828,95.712904,210.568389,-9399.007173
2092.107456,76.570323,191.425808,-9456.434915
2092.108083,76.570323,153.140646,-9418.149754
2092.108710,57.427742,95.712904,-9437.292334
2092.109338,133.998066,114.855485,-9418.149754
2092.109965,133.998066,210.568389,-9418.149754
2092.110592,153.140646,191.425808,-9399.007173
2092.111219,133.998066,95.712904,-9418.149754
2092.111846,76.570323,114.855485,-9418.149754
2092.112474,133.998066,133.998066,-9399.007173
2092.113101,38.285162,114.855485,-9456.434915
2092.113728,38.285162,114.855485,-9418.149754
2092.114355,76.570323,114.855485,-9494.720077
2092.114982,76.570323,114.855485,-9418.149754
2092.115610,95.712904,95.712904,-9399.007173
2092.116237,38.285162,210.568389,-9418.149754
2092.116864,76.570323,172.283227,-9475.577496
2092.117491,38.285162,114.855485,-9475.577496
2092.118119,19.142581,114.855485,-9456.434915
2092.118746,76.570323,114.855485,-9418.149754
2092.119373,76.570323,114.855485,-9437.292334
2092.120000,76.570323,172.283227,-9456.434915
2092.120627,133.998066,172.283227,-9437.292334
2092.121255,76.570323,114.855485,-9456.434915
2092.121882,114.855485,114.855485,-9399.007173
2092.122509,133.998066,191.425808,-9418.149754
2092.123136,76.570323,114.855485,-9437.292334
2092.123764,133.998066,114.855485,-9418.149754
2092.124391,133.998066,172.283227,-9418.149754
2092.125018,133.998066,114.855485,-9418.149754
2092.125645,76.570323,114.855485,-9456.434915
2092.126272,95.712904,95.712904,-9399.007173
2092.126900,76.570323,114.855485,-9418.149754
2092.127527,38.285162,114.855485,-9418.149754
2092.128154,76.570323,114.855485,-9418.149754
2092.128781,76.570323,172.283227,-9418.149754
2092.129408,76.570323,153.140646,-9418.149754
2092.130036,114.855485,95.712904,-9494.720077
2092.130663,76.570323,114.855485,-9418.149754
2092.131290,76.570323,153.140646,-9418.149754
2092.131917,133.998066,172.283227,-9456.434915
2092.132545,76.570323,153.140646,-9475.577496
2092.133172,76.570323,172.283227,-9437.292334
2092.133799,153.140646,172.283227,-9399.007173
2092.134426,133.998066,248.853550,-9399.007173
2092.135053,133.998066,210.568389,-9418.149754
2092.135681,133.998066,172.283227,-9418.149754
2092.136308,76.570323,153.140646,-9437.292334
2092.136935,38.285162,114.855485,-9418.149754
2092.137562,133.998066,172.283227,-9418.149754
2092.138190,95.712904,133.998066,-9360.722011
2092.138817,76.570323,172.283227,-9494.720077
2092.139444,57.427742,114.855485,-9418.149754
2092.140071,76.570323,114.855485,-9437.292334
2092.140698,95.712904,133.998066,-9418.149754
2092.141326,114.855485,95.712904,-9399.007173
2092.141953,76.570323,172.283227,-9418.149754
2092.142580,133.998066,133.998066,-9571.290400
2092.143207,95.712904,114.855485,-9456.434915
2092.143835,133.998066,172.283227,-9437.292334
2092.144462,95.712904,95.712904,-9399.007173
2092.145089,38.285162,114.855485,-9418.149754
2092.145716,133.998066,172.283227,-9456.434915
2092.146343,76.570323,172.283227,-9418.149754
2092.146971,133.998066,153.140646,-9418.149754
2092.147598,133.998066,172.283227,-9418.149754
2092.148225,76.570323,133.998066,-9360.722011
2092.148852,133.998066,114.855485,-9418.149754
2092.149479,76.570323,95.712904,-9399.007173
2092.150107,57.427742,133.998066,-9360.722011
2092.150734,153.140646,133.998066,-9399.007173
2092.151361,133.998066,114.855485,-9437.292334
2092.151988,172.283227,76.570323,-9418.149754
2092.152616,133.998066,114.855485,-9418.149754
2092.153243,38.285162,114.855485,-9456.434915
2092.153870,95.712904,95.712904,-9437.292334
2092.154497,153.140646,133.998066,-9437.292334
2092.155124,133.998066,153.140646,-9456.434915
2092.155752,153.140646,172.283227,-9399.007173
2092.156379,76.570323,114.855485,-9494.720077
2092.157006,133.998066,153.140646,-9475.577496
2092.157633,76.570323,172.283227,-9456.434915
2092.158261,76.570323,114.855485,-9475.577496
2092.158888,76.570323,153.140646,-9437.292334
2092.159515,133.998066,114.855485,-9418.149754
2092.160142,114.855485,114.855485,-9322.436850
2092.160769,76.570323,114.855485,-9437.292334
2092.161397,133.998066,114.855485,-9418.149754
2092.162024,38.285162,114.855485,-9437.292334
2092.162651,133.998066,153.140646,-9418.149754
2092.163278,76.570323,172.283227,-9418.149754
2092.163905,76.570323,153.140646,-9418.149754
2092.164533,153.140646,153.140646,-9399.007173
2092.165160,172.283227,76.570323,-9418.149754
2092.165787,38.285162,172.283227,-9418.149754
2092.166414,76.570323,153.140646,-9418.149754
2092.167042,76.570323,172.283227,-9533.005238
2092.167669,133.998066,210.568389,-9418.149754
2092.168296,38.285162,210.568389,-9456.434915
2092.168923,133.998066,114.855485,-9437.292334
2092.169550,76.570323,114.855485,-9418.149754
2092.170178,76.570323,172.283227,-9456.434915
2092.170805,76.570323,172.283227,-9418.149754
2092.171432,95.712904,114.855485,-9418.149754
2092.172059,153.140646,191.425808,-9437.292334
2092.172687,76.570323,114.855485,-9418.149754
2092.173314,76.570323,114.855485,-9418.149754
2092.173941,114.855485,114.855485,-9456.434915
2092.174568,133.998066,114.855485,-9418.149754
2092.175195,133.998066,172.283227,-9418.149754
2092.175823,133.998066,114.855485,-9456.434915
2092.176450,76.570323,114.855485,-9475.577496
2092.177077,95.712904,153.140646,-9456.434915
2092.177704,133.998066,191.425808,-9399.007173
2092.178332,95.712904,133.998066,-9360.722011
2092.178959,153.140646,172.283227,-9399.007173
2092.179586,133.998066,114.855485,-9418.149754
2092.180213,76.570323,153.140646,-9437.292334
2092.180840,153.140646,133.998066,-9456.434915
2092.181468,76.570323,114.855485,-9418.149754
2092.182095,76.570323,114.855485,-9418.149754
2092.182722,133.998066,172.283227,-9418.149754
2092.183349,153.140646,153.140646,-9399.007173
2092.183976,95.712904,133.998066,-9360.722011
2092.184604,95.712904,114.855485,-9399.007173
2092.185231,76.570323,172.283227,-9437.292334
2092.185858,38.285162,191.425808,-9437.292334
2092.186485,133.998066,114.855485,-9456.434915
2092.187113,172.283227,114.855485,-9379.864592
2092.187740,76.570323,114.855485,-9418.149754
2092.188367,133.998066,114.855485,-9456.434915
2092.188994,153.140646,114.855485,-9437.292334
2092.189621,133.998066,114.855485,-9437.292334
2092.190249,76.570323,172.283227,-9437.292334
2092.190876,38.285162,172.283227,-9418.149754
2092.191503,76.570323,210.568389,-9418.149754
2092.192130,76.570323,172.283227,-9418.149754
2092.192758,38.285162,114.855485,-9418.149754
2092.193385,95.712904,210.568389,-9418.149754
2092.194012,133.998066,172.283227,-9399.007173
2092.194639,133.998066,114.855485,-9437.292334
2092.195266,133.998066,114.855485,-9475.577496
2092.195894,133.998066,114.855485,-9418.149754
2092.196521,95.712904,210.568389,-9418.149754
2092.197148,76.570323,172.283227,-9418.149754
2092.197775,133.998066,153.140646,-9437.292334
2092.198402,76.570323,172.283227,-9456.434915
2092.199030,133.998066,133.998066,-9475.577496
2092.199657,133.998066,114.855485,-9418.149754
2092.200284,153.140646,172.283227,-9399.007173
2092.200911,153.140646,133.998066,-9456.434915
2092.201539,38.285162,114.855485,-9418.149754
2092.202166,95.712904,172.283227,-9418.149754
2092.202793,114.855485,153.140646,-9360.722011
2092.203420,76.570323,114.855485,-9418.149754
2092.204047,38.285162,114.855485,-9437.292334
2092.204675,133.998066,114.855485,-9437.292334
2092.205302,153.140646,133.998066,-9456.434915
2092.205929,153.140646,133.998066,-9399.007173
2092.206556,76.570323,114.855485,-9360.722011
2092.207184,172.283227,114.855485,-9494.720077
2092.207811,76.570323,114.855485,-9418.149754
2092.208438,95.712904,153.140646,-9418.149754
2092.209065,95.712904,114.855485,-9418.149754
2092.209692,76.570323,114.855485,-9418.149754
2092.210319,76.570323,114.855485,-9475.577496
2092.210946,133.998066,153.140646,-9418.149754
2092.211573,76.570323,210.568389,-9494.720077
2092.212200,133.998066,153.140646,-9456.434915
2092.212828,95.712904,114.855485,-9418.149754
2092.213455,133.998066,172.283227,-9418.149754
2092.214082,95.712904,248.853550,-9360.722011
2092.214709,76.570323,153.140646,-9437.292334
2092.215336,153.140646,172.283227,-9399.007173
2092.215963,133.998066,153.140646,-9418.149754
2092.216590,19.142581,210.568389,-9418.149754
2092.217217,114.855485,153.140646,-9418.149754
2092.217844,153.140646,133.998066,-9399.007173
2092.218471,76.570323,172.283227,-9418.149754
2092.219098,133.998066,153.140646,-9418.149754
2092.219725,38.285162,172.283227,-9456.434915
2092.220352,133.998066,153.140646,-9418.149754
2092.220980,133.998066,153.140646,-9418.149754
2092.221607,95.712904,114.855485,-9418.149754
2092.222234,95.712904,172.283227,-9360.722011
2092.222861,57.427742,114.855485,-9418.149754
2092.223488,76.570323,114.855485,-9418.149754
2092.224115,38.285162,114.855485,-9418.149754
2092.224742,76.570323,114.855485,-9494.720077
2092.225369,153.140646,153.140646,-9399.007173
2092.225996,133.998066,172.283227,-9418.149754
2092.226623,95.712904,153.140646,-9437.292334
2092.227250,133.998066,114.855485,-9418.149754
2092.227877,133.998066,114.855485,-9418.149754
2092.228505,153.140646,133.998066,-9437.292334
2092.229132,133.998066,172.283227,-9418.149754
2092.229759,133.998066,114.855485,-9418.149754
2092.230386,95.712904,114.855485,-9418.149754
2092.231013,76.570323,114.855485,-9456.434915
2092.231640,38.285162,114.855485,-9418.149754
2092.232267,133.998066,172.283227,-9418.149754
2092.232894,76.570323,191.425808,-9418.149754
2092.233521,153.140646,133.998066,-9399.007173
2092.234148,153.140646,133.998066,-9399.007173
2092.234775,76.570323,114.855485,-9437.292334
2092.235402,76.570323,153.140646,-9456.434915
2092.236029,95.712904,114.855485,-9437.292334
2092.236657,95.712904,95.712904,-9437.292334
2092.237284,38.285162,114.855485,-9418.149754
2092.237911,76.570323,114.855485,-9456.434915
2092.238538,133.998066,172.283227,-9418.149754
2092.239165,133.998066,172.283227,-9456.434915
2092.239792,76.570323,153.140646,-9418.149754
2092.240419,38.285162,172.283227,-9418.149754
2092.241046,76.570323,114.855485,-9475.577496
2092.241673,38.285162,210.568389,-9456.434915
2092.242300,95.712904,114.855485,-9418.149754
2092.242927,38.285162,210.568389,-9418.149754
2092.243554,38.285162,114.855485,-9437.292334
2092.244181,95.712904,114.855485,-9418.149754
2092.244809,133.998066,114.855485,-9418.149754
2092.245436,76.570323,114.855485,-9418.149754
2092.246063,76.570323,114.855485,-9418.149754
2092.246690,76.570323,114.855485,-9418.149754
2092.247317,133.998066,114.855485,-9418.149754
2092.247944,172.283227,172.283227,-9360.722011
2092.248571,153.140646,210.568389,-9399.007173
2092.249198,133.998066,210.568389,-9418.149754
2092.249825,76.570323,153.140646,-9418.149754
2092.250452,95.712904,133.998066,-9418.149754
2092.251079,38.285162,114.855485,-9418.149754
2092.251706,76.570323,172.283227,-9418.149754
2092.252334,76.570323,153.140646,-9418.149754
2092.252961,95.712904,133.998066,-9360.722011
2092.253588,38.285162,172.283227,-9437.292334
2092.254215,76.570323,172.283227,-9399.007173
2092.254842,133.998066,114.855485,-9418.149754
2092.255469,38.285162,210.568389,-9418.149754
2092.256096,133.998066,133.998066,-9399.007173
2092.256723,133.998066,229.710970,-9418.149754
2092.257350,133.998066,114.855485,-9418.149754
2092.257977,133.998066,114.855485,-9418.149754
2092.258604,95.712904,114.855485,-9418.149754
2092.259231,76.570323,114.855485,-9456.434915
2092.259858,133.998066,114.855485,-9418.149754
2092.260486,76.570323,114.855485,-9456.434915
2092.261113,133.998066,114.855485,-9418.149754
2092.261740,133.998066,114.855485,-9418.149754
2092.262367,76.570323,114.855485,-9418.149754
2092.262994,76.570323,210.568389,-9418.149754
2092.263621,133.998066,114.855485,-9418.149754
2092.264248,95.712904,172.283227,-9360.722011
2092.264875,133.998066,133.998066,-9399.007173
2092.265502,76.570323,114.855485,-9418.149754
2092.266129,153.140646,133.998066,-9437.292334
2092.266756,133.998066,114.855485,-9456.434915
2092.267383,114.855485,95.712904,-9456.434915
2092.268010,114.855485,95.712904,-9456.434915
2092.268638,57.427742,114.855485,-9418.149754
2092.269265,38.285162,114.855485,-9418.149754
2092.269892,57.427742,76.570323,-9379.864592
2092.270519,114.855485,114.855485,-9379.864592
2092.271146,133.998066,114.855485,-9418.149754
2092.271773,133.998066,114.855485,-9418.149754
2092.272400,95.712904,95.712904,-9437.292334
2092.273027,38.285162,153.140646,-9418.149754
2092.273654,133.998066,114.855485,-9418.149754
2092.274281,133.998066,114.855485,-9418.149754
2092.274908,76.570323,114.855485,-9418.149754
2092.275535,76.570323,114.855485,-9418.149754
2092.276163,133.998066,114.855485,-9418.149754
2092.276790,133.998066,114.855485,-9456.434915
2092.277417,133.998066,153.140646,-9418.149754
2092.278044,38.285162,153.140646,-9456.434915
2092.278671,76.570323,172.283227,-9418.149754
2092.279298,76.570323,153.140646,-9494.720077
2092.279925,133.998066,210.568389,-9418.149754
2092.280552,76.570323,153.140646,-9418.149754
2092.281179,76.570323,153.140646,-9456.434915
2092.281806,95.712904,172.283227,-9360.722011
2092.282433,76.570323,114.855485,-9494.720077
2092.283060,133.998066,114.855485,-9418.149754
2092.283687,76.570323,114.855485,-9456.434915
2092.284315,76.570323,172.283227,-9418.149754
2092.284942,95.712904,114.855485,-9418.149754
2092.285569,38.285162,153.140646,-9456.434915
2092.286196,153.140646,191.425808,-9399.007173
2092.286823,76.570323,153.140646,-9418.149754
2092.287450,153.140646,172.283227,-9399.007173
2092.288077,153.140646,133.998066,-9399.007173
2092.288704,133.998066,114.855485,-9418.149754
2092.289331,76.570323,114.855485,-9437.292334
2092.289958,76.570323,114.855485,-9475.577496
2092.290585,95.712904,153.140646,-9437.292334
2092.291212,133.998066,114.855485,-9418.149754
2092.291839,153.140646,172.283227,-9399.007173
2092.292467,153.140646,133.998066,-9399.007173
2092.293094,133.998066,114.855485,-9418.149754
2092.293721,133.998066,114.855485,-9418.149754
2092.294348,76.570323,172.283227,-9418.149754
2092.294975,38.285162,114.855485,-9456.434915
2092.295602,76.570323,114.855485,-9418.149754
2092.296229,38.285162,229.710970,-9418.149754
2092.296856,76.570323,114.855485,-9437.292334
2092.297483,76.570323,153.140646,-9418.149754
2092.298110,38.285162,114.855485,-9475.577496
2092.298737,133.998066,153.140646,-9456.434915
2092.299364,133.998066,153.140646,-9418.149754
2092.299991,153.140646,114.855485,-9418.149754
2092.300619,76.570323,114.855485,-9418.149754
2092.301246,76.570323,114.855485,-9418.149754
2092.301873,133.998066,172.283227,-9456.434915
2092.302500,76.570323,114.855485,-9418.149754
2092.303127,133.998066,114.855485,-9418.149754
2092.303754,133.998066,114.855485,-9437.292334
2092.304381,76.570323,114.855485,-9456.434915
2092.305008,76.570323,114.855485,-9533.005238
2092.305635,95.712904,95.712904,-9399.007173
2092.306262,95.712904,95.712904,-9399.007173
2092.306889,76.570323,114.855485,-9418.149754
2092.307516,38.285162,153.140646,-9456.434915
2092.308144,76.570323,153.140646,-9456.434915
2092.308771,76.570323,172.283227,-9418.149754
2092.309398,76.570323,172.283227,-9418.149754
2092.310026,76.570323,172.283227,-9418.149754
2092.310653,76.570323,114.855485,-9418.149754
2092.311281,153.140646,172.283227,-9475.577496
2092.311908,153.140646,172.283227,-9399.007173
2092.312536,76.570323,172.283227,-9418.149754
2092.313164,76.570323,172.283227,-9456.434915
2092.313791,76.570323,210.568389,-9418.149754
2092.314419,76.570323,114.855485,-9418.149754
2092.315046,95.712904,210.568389,-9418.149754
2092.315674,114.855485,95.712904,-9456.434915
2092.316301,133.998066,172.283227,-9418.149754
2092.316929,76.570323,114.855485,-9418.149754
2092.317556,76.570323,114.855485,-9418.149754
2092.318184,38.285162,114.855485,-9418.149754
2092.318812,95.712904,114.855485,-9475.577496
2092.319439,133.998066,172.283227,-9456.434915
2092.320067,95.712904,114.855485,-9437.292334
2092.320694,76.570323,172.283227,-9418.149754
2092.321322,76.570323,114.855485,-9418.149754
2092.321949,38.285162,114.855485,-9418.149754
2092.322577,76.570323,172.283227,-9418.149754
2092.323204,38.285162,153.140646,-9437.292334
2092.323832,114.855485,95.712904,-9399.007173
2092.324460,76.570323,153.140646,-9418.149754
2092.325087,57.427742,95.712904,-9494.720077
2092.325715,57.427742,95.712904,-9456.434915
2092.326342,38.285162,114.855485,-9418.149754
2092.326970,133.998066,114.855485,-9418.149754
2092.327597,95.712904,191.425808,-9475.577496
2092.328225,153.140646,133.998066,-9437.292334
2092.328852,76.570323,114.855485,-9418.149754
2092.329480,76.570323,95.712904,-9437.292334
2092.330108,76.570323,114.855485,-9456.434915
2092.330735,76.570323,172.283227,-9418.149754
2092.331363,19.142581,133.998066,-9456.434915
2092.331990,38.285162,114.855485,-9475.577496
2092.332618,133.998066,172.283227,-9418.149754
2092.333245,133.998066,133.998066,-9418.149754
2092.333873,76.570323,172.283227,-9418.149754
2092.334500,57.427742,95.712904,-9437.292334
2092.335128,95.712904,114.855485,-9418.149754
2092.335756,76.570323,114.855485,-9399.007173
2092.336383,95.712904,114.855485,-9399.007173
2092.337011,133.998066,133.998066,-9399.007173
2092.337638,76.570323,114.855485,-9418.149754
2092.338266,76.570323,153.140646,-9437.292334
2092.338893,95.712904,114.855485,-9475.577496
2092.339521,133.998066,210.568389,-9437.292334
2092.340148,133.998066,172.283227,-9418.149754
2092.340776,95.712904,172.283227,-9456.434915
2092.341404,38.285162,114.855485,-9418.149754
2092.342031,38.285162,153.140646,-9456.434915
2092.342659,38.285162,153.140646,-9456.434915
2092.343286,95.712904,191.425808,-9360.722011
2092.343914,38.285162,172.283227,-9456.434915
2092.344541,76.570323,114.855485,-9418.149754
2092.345169,38.285162,153.140646,-9418.149754
2092.345796,95.712904,172.283227,-9418.149754
2092.346424,133.998066,114.855485,-9418.149754
2092.347052,76.570323,114.855485,-9418.149754
2092.347679,133.998066,114.855485,-9456.434915
2092.348307,76.570323,114.855485,-9418.149754
2092.348934,76.570323,114.855485,-9418.149754
2092.349562,133.998066,191.425808,-9437.292334
2092.350189,76.570323,172.283227,-9418.149754
2092.350817,133.998066,153.140646,-9437.292334
2092.351444,76.570323,114.855485,-9418.149754
2092.352072,57.427742,133.998066,-9360.722011
2092.352700,133.998066,114.855485,-9437.292334
2092.353327,153.140646,133.998066,-9399.007173
2092.353955,172.283227,76.570323,-9418.149754
2092.354582,76.570323,153.140646,-9418.149754
2092.355210,153.140646,133.998066,-9456.434915
2092.355837,133.998066,76.570323,-9399.007173
2092.356465,191.425808,76.570323,-9418.149754
2092.357092,133.998066,172.283227,-9418.149754
2092.357720,76.570323,114.855485,-9437.292334
2092.358348,133.998066,133.998066,-9399.007173
2092.358975,76.570323,210.568389,-9456.434915
2092.359603,133.998066,114.855485,-9418.149754
2092.360230,76.570323,114.855485,-9418.149754
2092.360858,76.570323,114.855485,-9437.292334
2092.361485,133.998066,172.283227,-9456.434915
2092.362113,57.427742,95.712904,-9437.292334
2092.362740,76.570323,114.855485,-9475.577496
2092.363368,95.712904,133.998066,-9533.005238
2092.363996,133.998066,114.855485,-9437.292334
2092.364623,38.285162,153.140646,-9360.722011
2092.365251,133.998066,153.140646,-9418.149754
2092.365878,133.998066,114.855485,-9418.149754
2092.366506,133.998066,210.568389,-9360.722011
2092.367133,76.570323,153.140646,-9418.149754
2092.367761,133.998066,114.855485,-9418.149754
2092.368388,76.570323,172.283227,-9456.434915
2092.369016,76.570323,114.855485,-9475.577496
2092.369644,133.998066,172.283227,-9418.149754
2092.370271,133.998066,153.140646,-9418.149754
2092.370899,76.570323,153.140646,-9418.149754
2092.371526,38.285162,172.283227,-9437.292334
2092.372154,133.998066,153.140646,-9418.149754
2092.372781,153.140646,133.998066,-9399.007173
2092.373409,114.855485,172.283227,-9418.149754
2092.374037,153.140646,133.998066,-9399.007173
2092.374664,133.998066,95.712904,-9360.722011
2092.375292,133.998066,114.855485,-9437.292334
2092.375919,114.855485,133.998066,-9360.722011
2092.376547,76.570323,172.283227,-9437.292334
2092.377174,76.570323,114.855485,-9418.149754
2092.377802,76.570323,114.855485,-9456.434915
2092.378429,95.712904,114.855485,-9418.149754
2092.379057,38.285162,172.283227,-9418.149754
2092.379685,76.570323,114.855485,-9418.149754
2092.380312,133.998066,153.140646,-9418.149754
2092.380940,153.140646,133.998066,-9437.292334
2092.381567,76.570323,114.855485,-9418.149754
2092.382195,76.570323,114.855485,-9418.149754
2092.382822,76.570323,153.140646,-9437.292334
2092.383450,133.998066,114.855485,-9418.149754
2092.384077,133.998066,114.855485,-9418.149754
2092.384705,133.998066,172.283227,-9437.292334
2092.385333,76.570323,172.283227,-9456.434915
2092.385960,95.712904,172.283227,-9418.149754
2092.386588,76.570323,114.855485,-9437.292334
2092.387215,133.998066,114.855485,-9456.434915
2092.387843,153.140646,133.998066,-9399.007173
2092.388470,133.998066,153.140646,-9399.007173
2092.389098,114.855485,133.998066,-9360.722011
2092.389725,133.998066,114.855485,-9418.149754
2092.390353,133.998066,114.855485,-9418.149754
2092.390981,133.998066,114.855485,-9475.577496
2092.391608,38.285162,114.855485,-9418.149754
2092.392236,76.570323,114.855485,-9437.292334
2092.392863,133.998066,172.283227,-9437.292334
2092.393491,133.998066,114.855485,-9456.434915
2092.394118,76.570323,114.855485,-9437.292334
2092.394746,133.998066,172.283227,-9456.434915
2092.395373,133.998066,210.568389,-9418.149754
2092.396001,95.712904,172.283227,-9456.434915
2092.396629,153.140646,229.710970,-9437.292334
2092.397256,153.140646,153.140646,-9399.007173
2092.397884,133.998066,114.855485,-9456.434915
2092.398511,38.285162,114.855485,-9456.434915
2092.399139,133.998066,210.568389,-9437.292334
2092.399766,76.570323,114.855485,-9418.149754
2092.400394,133.998066,114.855485,-9418.149754
2092.401021,133.998066,210.568389,-9418.149754
2092.401649,133.998066,114.855485,-9418.149754
2092.402277,153.140646,133.998066,-9399.007173
2092.402904,76.570323,172.283227,-9418.149754
2092.403532,76.570323,114.855485,-9418.149754
2092.404159,38.285162,114.855485,-9494.720077
2092.404787,76.570323,114.855485,-9418.149754
2092.405414,114.855485,95.712904,-9399.007173
2092.406042,133.998066,114.855485,-9418.149754
2092.406669,153.140646,133.998066,-9399.007173
2092.407297,133.998066,114.855485,-9418.149754
2092.407925,153.140646,153.140646,-9399.007173
2092.408552,153.140646,153.140646,-9437.292334
2092.409180,76.570323,172.283227,-9437.292334
2092.409808,133.998066,172.283227,-9437.292334
2092.410435,133.998066,172.283227,-9418.149754
2092.411063,153.140646,172.283227,-9399.007173
2092.411691,95.712904,153.140646,-9418.149754
2092.412319,133.998066,114.855485,-9418.149754
2092.412947,76.570323,114.855485,-9418.149754
2092.413575,76.570323,114.855485,-9418.149754
2092.414203,133.998066,114.855485,-9418.149754
2092.414830,153.140646,133.998066,-9456.434915
2092.415458,153.140646,172.283227,-9399.007173
2092.416086,133.998066,172.283227,-9418.149754
2092.416714,57.427742,210.568389,-9456.434915
2092.417342,76.570323,114.855485,-9418.149754
2092.417970,38.285162,114.855485,-9475.577496
2092.418598,57.427742,114.855485,-9418.149754
2092.419225,133.998066,153.140646,-9418.149754
2092.419853,76.570323,172.283227,-9418.149754
2092.420481,133.998066,153.140646,-9437.292334
2092.421109,76.570323,153.140646,-9418.149754
2092.421737,153.140646,133.998066,-9494.720077
2092.422365,133.998066,114.855485,-9418.149754
2092.422993,19.142581,114.855485,-9456.434915
2092.423620,133.998066,114.855485,-9437.292334
2092.424248,133.998066,114.855485,-9418.149754
2092.424876,133.998066,172.283227,-9418.149754
2092.425504,172.283227,76.570323,-9418.149754
2092.426132,76.570323,172.283227,-9456.434915
2092.426760,133.998066,191.425808,-9399.007173
2092.427388,133.998066,153.140646,-9418.149754
2092.428015,76.570323,172.283227,-9437.292334
2092.428643,38.285162,172.283227,-9456.434915
2092.429271,133.998066,210.568389,-9437.292334
2092.429899,76.570323,172.283227,-9456.434915
2092.430527,76.570323,153.140646,-9418.149754
2092.431155,133.998066,114.855485,-9437.292334
2092.431783,38.285162,153.140646,-9475.577496
2092.432410,76.570323,153.140646,-9475.577496
2092.433038,95.712904,172.283227,-9437.292334
2092.433666,133.998066,153.140646,-9475.577496
2092.434294,76.570323,95.712904,-9399.007173
2092.434922,153.140646,133.998066,-9399.007173
2092.435550,133.998066,114.855485,-9418.149754
2092.436178,133.998066,229.710970,-9475.577496
2092.436805,133.998066,114.855485,-9418.149754
2092.437433,153.140646,133.998066,-9399.007173
2092.438061,133.998066,133.998066,-9456.434915
2092.438689,76.570323,114.855485,-9418.149754
2092.439317,133.998066,114.855485,-9418.149754
2092.439945,38.285162,114.855485,-9418.149754
2092.440573,114.855485,95.712904,-9399.007173
2092.441200,95.712904,114.855485,-9456.434915
2092.441828,76.570323,133.998066,-9360.722011
2092.442456,95.712904,153.140646,-9494.720077
2092.443084,114.855485,95.712904,-9437.292334
2092.443712,76.570323,114.855485,-9456.434915
2092.444340,76.570323,153.140646,-9418.149754
2092.444968,76.570323,153.140646,-9418.149754
2092.445595,133.998066,153.140646,-9418.149754
2092.446223,133.998066,153.140646,-9418.149754
2092.446851,76.570323,114.855485,-9418.149754
2092.447479,133.998066,114.855485,-9418.149754
2092.448107,133.998066,153.140646,-9456.434915
2092.448735,133.998066,172.283227,-9418.149754
2092.449363,76.570323,153.140646,-9418.149754
2092.449991,76.570323,114.855485,-9437.292334
2092.450618,95.712904,114.855485,-9475.577496
2092.451246,95.712904,153.140646,-9418.149754
2092.451874,76.570323,172.283227,-9437.292334
2092.452502,133.998066,114.855485,-9456.434915
2092.453130,76.570323,114.855485,-9437.292334
2092.453758,57.427742,114.855485,-9437.292334
2092.454386,133.998066,114.855485,-9418.149754
2092.455013,95.712904,95.712904,-9399.007173
2092.455641,76.570323,114.855485,-9418.149754
2092.456269,76.570323,114.855485,-9437.292334
2092.456897,133.998066,153.140646,-9418.149754
2092.457525,76.570323,114.855485,-9418.149754
2092.458153,76.570323,114.855485,-9418.149754
2092.458781,38.285162,114.855485,-9418.149754
2092.459408,95.712904,114.855485,-9399.007173
2092.460036,114.855485,133.998066,-9360.722011
2092.460664,133.998066,133.998066,-9456.434915
2092.461292,133.998066,191.425808,-9399.007173
2092.461920,133.998066,114.855485,-9418.149754
2092.462548,133.998066,114.855485,-9418.149754
2092.463176,153.140646,153.140646,-9456.434915
2092.463803,133.998066,114.855485,-9418.149754
2092.464431,172.283227,172.283227,-9379.864592
2092.465059,76.570323,153.140646,-9437.292334
2092.465687,76.570323,153.140646,-9418.149754
2092.466315,133.998066,191.425808,-9418.149754
2092.466943,133.998066,133.998066,-9399.007173
2092.467571,57.427742,153.140646,-9418.149754
2092.468198,76.570323,114.855485,-9418.149754
2092.468826,38.285162,172.283227,-9418.149754
2092.469454,57.427742,172.283227,-9437.292334
2092.470082,95.712904,114.855485,-9418.149754
2092.470710,76.570323,114.855485,-9456.434915
2092.471338,153.140646,133.998066,-9456.434915
2092.471966,76.570323,114.855485,-9437.292334
2092.472593,114.855485,172.283227,-9379.864592
2092.473221,76.570323,114.855485,-9418.149754
2092.473849,95.712904,114.855485,-9456.434915
2092.474477,114.855485,153.140646,-9418.149754
2092.475105,133.998066,114.855485,-9418.149754
2092.475733,95.712904,95.712904,-9456.434915
2092.476361,76.570323,172.283227,-9475.577496
2092.476988,133.998066,191.425808,-9399.007173
2092.477616,133.998066,172.283227,-9456.434915
2092.478244,133.998066,114.855485,-9437.292334
2092.478872,95.712904,172.283227,-9418.149754
2092.479500,38.285162,114.855485,-9437.292334
2092.480128,76.570323,229.710970,-9418.149754
2092.480756,133.998066,210.568389,-9418.149754
2092.481383,114.855485,133.998066,-9437.292334
2092.482011,76.570323,210.568389,-9418.149754
2092.482639,38.285162,153.140646,-9418.149754
2092.483267,172.283227,114.855485,-9399.007173
2092.483895,95.712904,114.855485,-9360.722011
2092.484523,57.427742,172.283227,-9418.149754
2092.485151,76.570323,114.855485,-9418.149754
2092.485778,76.570323,172.283227,-9418.149754
2092.486406,133.998066,153.140646,-9418.149754
2092.487034,133.998066,133.998066,-9399.007173
2092.487662,76.570323,172.283227,-9437.292334
2092.488290,133.998066,153.140646,-9475.577496
2092.488918,95.712904,153.140646,-9475.577496
2092.489546,76.570323,114.855485,-9475.577496
2092.490173,133.998066,114.855485,-9456.434915
2092.490801,153.140646,172.283227,-9437.292334
2092.491429,133.998066,114.855485,-9533.005238
2092.492057,133.998066,133.998066,-9399.007173
2092.492685,133.998066,114.855485,-9418.149754
2092.493313,133.998066,133.998066,-9437.292334
2092.493941,76.570323,153.140646,-9418.149754
2092.494568,133.998066,191.425808,-9456.434915
2092.495196,76.570323,114.855485,-9418.149754
2092.495824,38.285162,114.855485,-9418.149754
2092.496452,95.712904,133.998066,-9418.149754
2092.497080,95.712904,114.855485,-9399.007173
2092.497708,76.570323,114.855485,-9456.434915
2092.498336,133.998066,172.283227,-9456.434915
2092.498963,133.998066,114.855485,-9418.149754
2092.499591,133.998066,114.855485,-9418.149754
2092.500219,133.998066,114.855485,-9418.149754
2092.500847,76.570323,114.855485,-9456.434915
2092.501475,133.998066,114.855485,-9418.149754
2092.502103,153.140646,191.425808,-9494.720077
2092.502731,76.570323,172.283227,-9418.149754
2092.503359,133.998066,114.855485,-9418.149754
2092.503986,133.998066,153.140646,-9475.577496
2092.504614,76.570323,114.855485,-9418.149754
2092.505242,133.998066,191.425808,-9399.007173
2092.505870,57.427742,133.998066,-9360.722011
2092.506498,153.140646,153.140646,-9399.007173
2092.507126,76.570323,114.855485,-9418.149754
2092.507754,133.998066,172.283227,-9418.149754
2092.508381,95.712904,210.568389,-9418.149754
2092.509009,114.855485,153.140646,-9418.149754
2092.509637,76.570323,114.855485,-9418.149754
2092.510265,95.712904,172.283227,-9418.149754
2092.510892,133.998066,153.140646,-9437.292334
2092.511520,114.855485,191.425808,-9360.722011
2092.512147,76.570323,114.855485,-9437.292334
2092.512775,133.998066,114.855485,-9418.149754
2092.513402,133.998066,210.568389,-9418.149754
2092.514030,133.998066,172.283227,-9399.007173
2092.514657,76.570323,210.568389,-9418.149754
2092.515285,133.998066,133.998066,-9437.292334
2092.515912,76.570323,114.855485,-9437.292334
2092.516540,133.998066,114.855485,-9456.434915
2092.517167,76.570323,114.855485,-9533.005238
2092.517795,133.998066,114.855485,-9437.292334
2092.518422,76.570323,172.283227,-9456.434915
2092.519050,76.570323,114.855485,-9456.434915
2092.519677,133.998066,153.140646,-9418.149754
2092.520305,76.570323,210.568389,-9418.149754
2092.520932,133.998066,172.283227,-9437.292334
2092.521560,114.855485,95.712904,-9399.007173
2092.522187,76.570323,114.855485,-9418.149754
2092.522815,153.140646,114.855485,-9456.434915
2092.523442,153.140646,133.998066,-9513.862658
2092.524070,172.283227,172.283227,-9379.864592
2092.524697,133.998066,172.283227,-9418.149754
2092.525325,76.570323,191.425808,-9418.149754
2092.525953,95.712904,210.568389,-9456.434915
2092.526580,57.427742,114.855485,-9418.149754
2092.527208,95.712904,153.140646,-9437.292334
2092.527835,57.427742,172.283227,-9418.149754
2092.528463,133.998066,114.855485,-9418.149754
2092.529090,76.570323,114.855485,-9475.577496
2092.529718,57.427742,114.855485,-9456.434915
2092.530345,76.570323,114.855485,-9418.149754
2092.530973,76.570323,114.855485,-9418.149754
2092.531600,76.570323,153.140646,-9418.149754
2092.532228,95.712904,114.855485,-9418.149754
2092.532855,153.140646,133.998066,-9399.007173
2092.533483,133.998066,191.425808,-9513.862658
2092.534110,38.285162,172.283227,-9437.292334
2092.534738,76.570323,172.283227,-9456.434915
2092.535365,76.570323,153.140646,-9418.149754
2092.535993,76.570323,114.855485,-9418.149754
2092.536620,76.570323,229.710970,-9418.149754
2092.537248,95.712904,114.855485,-9456.434915
2092.537875,76.570323,114.855485,-9418.149754
2092.538503,38.285162,114.855485,-9418.149754
2092.539130,76.570323,210.568389,-9418.149754
2092.539758,76.570323,114.855485,-9418.149754
2092.540385,76.570323,114.855485,-9437.292334
2092.541013,76.570323,114.855485,-9475.577496
2092.541640,76.570323,114.855485,-9418.149754
2092.542268,38.285162,191.425808,-9475.577496
2092.542895,38.285162,210.568389,-9418.149754
2092.543523,76.570323,153.140646,-9418.149754
2092.544150,133.998066,172.283227,-9418.149754
2092.544778,76.570323,114.855485,-9418.149754
2092.545406,76.570323,114.855485,-9418.149754
2092.546033,76.570323,95.712904,-9456.434915
2092.546661,76.570323,114.855485,-9456.434915
2092.547288,133.998066,114.855485,-9418.149754
2092.547916,133.998066,114.855485,-9418.149754
2092.548543,114.855485,76.570323,-9418.149754
2092.549171,133.998066,172.283227,-9418.149754
2092.549798,76.570323,114.855485,-9437.292334
2092.550426,95.712904,95.712904,-9399.007173
2092.551053,76.570323,114.855485,-9418.149754
2092.551681,114.855485,95.712904,-9437.292334
2092.552308,133.998066,114.855485,-9418.149754
2092.552936,76.570323,172.283227,-9418.149754
2092.553563,133.998066,172.283227,-9456.434915
2092.554191,133.998066,114.855485,-9456.434915
2092.554818,133.998066,114.855485,-9418.149754
2092.555446,76.570323,95.712904,-9399.007173
2092.556073,133.998066,114.855485,-9456.434915
2092.556701,133.998066,191.425808,-9399.007173
2092.557328,133.998066,114.855485,-9437.292334
2092.557956,133.998066,172.283227,-9437.292334
2092.558583,95.712904,114.855485,-9456.434915
2092.559211,114.855485,153.140646,-9360.722011
2092.559838,153.140646,133.998066,-9399.007173
2092.560466,38.285162,114.855485,-9418.149754
2092.561093,172.283227,114.855485,-9399.007173
2092.561721,76.570323,114.855485,-9418.149754
2092.562348,76.570323,114.855485,-9418.149754
2092.562976,57.427742,76.570323,-9379.864592
2092.563604,114.855485,133.998066,-9360.722011
2092.564231,114.855485,191.425808,-9360.722011
2092.564859,133.998066,248.853550,-9399.007173
2092.565486,38.285162,153.140646,-9437.292334
2092.566114,57.427742,153.140646,-9360.722011
2092.566741,38.285162,114.855485,-9418.149754
2092.567369,76.570323,114.855485,-9437.292334
2092.567996,76.570323,114.855485,-9437.292334
2092.568624,95.712904,114.855485,-9418.149754
2092.569251,133.998066,114.855485,-9418.149754
2092.569879,133.998066,114.855485,-9418.149754
2092.570506,95.712904,133.998066,-9360.722011
2092.571134,57.427742,153.140646,-9418.149754
2092.571761,133.998066,153.140646,-9456.434915
2092.572389,133.998066,172.283227,-9456.434915
2092.573016,76.570323,172.283227,-9475.577496
2092.573644,133.998066,114.855485,-9418.149754
2092.574271,153.140646,153.140646,-9494.720077
2092.574899,133.998066,153.140646,-9456.434915
2092.575526,76.570323,172.283227,-9418.149754
2092.576154,133.998066,133.998066,-9399.007173
2092.576781,133.998066,153.140646,-9418.149754
2092.577409,133.998066,133.998066,-9437.292334
2092.578036,76.570323,114.855485,-9456.434915
2092.578664,114.855485,114.855485,-9494.720077
2092.579291,76.570323,114.855485,-9456.434915
2092.579919,76.570323,153.140646,-9437.292334
2092.580546,133.998066,210.568389,-9437.292334
2092.581174,133.998066,153.140646,-9418.149754
2092.581801,114.855485,95.712904,-9399.007173
2092.582429,133.998066,229.710970,-9399.007173
2092.583057,76.570323,210.568389,-9418.149754
2092.583684,153.140646,172.283227,-9456.434915
2092.584312,133.998066,114.855485,-9418.149754
2092.584939,76.570323,114.855485,-9456.434915
2092.585567,114.855485,95.712904,-9456.434915
2092.586194,133.998066,114.855485,-9437.292334
2092.586822,95.712904,133.998066,-9475.577496
2092.587449,38.285162,114.855485,-9437.292334
2092.588077,133.998066,114.855485,-9475.577496
2092.588704,95.712904,95.712904,-9437.292334
2092.589332,133.998066,172.283227,-9437.292334
2092.589959,76.570323,153.140646,-9418.149754
2092.590587,133.998066,114.855485,-9437.292334
2092.591214,114.855485,153.140646,-9360.722011
2092.591842,133.998066,210.568389,-9418.149754
2092.592469,76.570323,172.283227,-9456.434915
2092.593097,133.998066,172.283227,-9399.007173
2092.593724,95.712904,114.855485,-9437.292334
2092.594352,95.712904,210.568389,-9456.434915
2092.594979,95.712904,133.998066,-9360.722011
2092.595607,133.998066,133.998066,-9379.864592
2092.596234,76.570323,210.568389,-9418.149754
2092.596862,133.998066,153.140646,-9418.149754
2092.597489,133.998066,172.283227,-9399.007173
2092.598117,76.570323,210.568389,-9418.149754
2092.598744,38.285162,210.568389,-9418.149754
2092.599372,76.570323,153.140646,-9456.434915
2092.599999,38.285162,114.855485,-9418.149754
2092.600627,114.855485,133.998066,-9360.722011
2092.601254,38.285162,172.283227,-9418.149754
2092.601882,76.570323,191.425808,-9494.720077
2092.602510,114.855485,229.710970,-9399.007173
2092.603137,76.570323,191.425808,-9437.292334
2092.603765,76.570323,114.855485,-9475.577496
2092.604392,95.712904,95.712904,-9399.007173
2092.605020,76.570323,172.283227,-9418.149754
2092.605647,133.998066,114.855485,-9475.577496
2092.606275,95.712904,95.712904,-9475.577496
2092.606902,133.998066,114.855485,-9418.149754
2092.607530,38.285162,114.855485,-9475.577496
2092.608157,114.855485,95.712904,-9456.434915
2092.608785,133.998066,153.140646,-9437.292334
2092.609412,133.998066,133.998066,-9399.007173
2092.610040,76.570323,114.855485,-9475.577496
2092.610667,38.285162,153.140646,-9475.577496
2092.611295,133.998066,114.855485,-9494.720077
2092.611922,133.998066,114.855485,-9418.149754
2092.612550,76.570323,114.855485,-9475.577496
2092.613177,38.285162,114.855485,-9418.149754
2092.613805,76.570323,114.855485,-9418.149754
2092.614432,95.712904,76.570323,-9379.864592
2092.615060,76.570323,172.283227,-9456.434915
2092.615687,76.570323,114.855485,-9418.149754
2092.616314,133.998066,114.855485,-9437.292334
2092.616942,153.140646,133.998066,-9456.434915
2092.617569,133.998066,210.568389,-9418.149754
2092.618197,38.285162,172.283227,-9418.149754
2092.618824,76.570323,172.283227,-9418.149754
2092.619452,95.712904,153.140646,-9418.149754
2092.620079,133.998066,114.855485,-9418.149754
2092.620707,114.855485,133.998066,-9418.149754
2092.621334,76.570323,172.283227,-9418.149754
2092.621962,38.285162,172.283227,-9418.149754
2092.622589,76.570323,172.283227,-9437.292334
2092.623217,133.998066,153.140646,-9418.149754
2092.623844,76.570323,114.855485,-9437.292334
2092.624472,76.570323,114.855485,-9456.434915
2092.625099,76.570323,133.998066,-9360.722011
2092.625727,76.570323,191.425808,-9418.149754
2092.626354,57.427742,133.998066,-9360.722011
2092.626982,76.570323,114.855485,-9418.149754
2092.627609,76.570323,95.712904,-9399.007173
2092.628237,95.712904,95.712904,-9456.434915
2092.628864,57.427742,114.855485,-9418.149754
2092.629491,133.998066,114.855485,-9418.149754
2092.630119,133.998066,210.568389,-9418.149754
2092.630746,133.998066,114.855485,-9418.149754
2092.631374,38.285162,114.855485,-9418.149754
2092.632001,114.855485,95.712904,-9456.434915
2092.632629,114.855485,114.855485,-9437.292334
2092.633256,172.283227,76.570323,-9418.149754
2092.633884,133.998066,210.568389,-9437.292334
2092.634511,38.285162,114.855485,-9437.292334
2092.635139,153.140646,133.998066,-9399.007173
2092.635766,153.140646,133.998066,-9456.434915
2092.636394,76.570323,153.140646,-9475.577496
2092.637021,95.712904,133.998066,-9475.577496
2092.637649,76.570323,172.283227,-9437.292334
2092.638276,95.712904,95.712904,-9399.007173
2092.638904,95.712904,95.712904,-9399.007173
2092.639531,76.570323,114.855485,-9418.149754
2092.640159,76.570323,114.855485,-9418.149754
2092.640786,114.855485,133.998066,-9418.149754
2092.641414,95.712904,95.712904,-9399.007173
2092.642041,133.998066,114.855485,-9418.149754
2092.642669,153.140646,172.283227,-9437.292334
2092.643296,153.140646,133.998066,-9475.577496
2092.643923,95.712904,114.855485,-9418.149754
2092.644551,133.998066,133.998066,-9456.434915
2092.645178,153.140646,172.283227,-9513.862658
2092.645806,153.140646,153.140646,-9513.862658
2092.646433,133.998066,114.855485,-9475.577496
2092.647061,76.570323,114.855485,-9418.149754
2092.647688,76.570323,114.855485,-9418.149754
2092.648316,76.570323,114.855485,-9360.722011
2092.648943,76.570323,114.855485,-9475.577496
2092.649571,133.998066,114.855485,-9494.720077
2092.650198,76.570323,191.425808,-9418.149754
2092.650826,114.855485,95.712904,-9399.007173
2092.651453,76.570323,114.855485,-9418.149754
2092.652081,133.998066,153.140646,-9418.149754
2092.652708,133.998066,153.140646,-9399.007173
2092.653336,133.998066,153.140646,-9437.292334
2092.653963,76.570323,210.568389,-9418.149754
2092.654591,38.285162,114.855485,-9494.720077
2092.655218,114.855485,95.712904,-9456.434915
2092.655846,133.998066,172.283227,-9456.434915
2092.656473,76.570323,172.283227,-9437.292334
2092.657100,57.427742,114.855485,-9418.149754
2092.657728,76.570323,114.855485,-9418.149754
2092.658355,76.570323,191.425808,-9418.149754
2092.658983,38.285162,114.855485,-9418.149754
2092.659610,76.570323,114.855485,-9418.149754
2092.660238,76.570323,95.712904,-9399.007173
2092.660865,38.285162,153.140646,-9437.292334
2092.661493,76.570323,133.998066,-9360.722011
2092.662120,76.570323,114.855485,-9418.149754
2092.662748,133.998066,191.425808,-9513.862658
2092.663375,114.855485,210.568389,-9456.434915
2092.664003,38.285162,172.283227,-9399.007173
2092.664630,38.285162,114.855485,-9437.292334
2092.665258,38.285162,114.855485,-9418.149754
2092.665885,133.998066,114.855485,-9418.149754
2092.666513,57.427742,114.855485,-9418.149754
2092.667140,76.570323,229.710970,-9418.149754
2092.667768,38.285162,210.568389,-9418.149754
2092.668395,38.285162,153.140646,-9418.149754
2092.669023,133.998066,114.855485,-9418.149754
2092.669650,133.998066,153.140646,-9418.149754
2092.670277,76.570323,153.140646,-9437.292334
2092.670905,76.570323,172.283227,-9437.292334
2092.671532,114.855485,76.570323,-9418.149754
2092.672160,76.570323,153.140646,-9418.149754
2092.672787,76.570323,114.855485,-9456.434915
2092.673415,76.570323,172.283227,-9437.292334
2092.674042,133.998066,172.283227,-9418.149754
2092.674670,133.998066,172.283227,-9418.149754
2092.675297,114.855485,95.712904,-9399.007173
2092.675925,153.140646,114.855485,-9437.292334
2092.676552,133.998066,153.140646,-9418.149754
2092.677180,133.998066,114.855485,-9418.149754
2092.677807,95.712904,114.855485,-9418.149754
2092.678435,172.283227,76.570323,-9456.434915
2092.679062,133.998066,153.140646,-9418.149754
2092.679690,153.140646,191.425808,-9437.292334
2092.680317,95.712904,172.283227,-9360.722011
2092.680945,95.712904,210.568389,-9418.149754
2092.681572,95.712904,133.998066,-9360.722011
2092.682200,95.712904,114.855485,-9418.149754
2092.682827,38.285162,114.855485,-9418.149754
2092.683454,76.570323,172.283227,-9360.722011
2092.684082,95.712904,172.283227,-9437.292334
2092.684709,76.570323,114.855485,-9418.149754
2092.685337,133.998066,114.855485,-9418.149754
2092.685964,114.855485,133.998066,-9360.722011
2092.686592,133.998066,133.998066,-9456.434915
2092.687219,76.570323,114.855485,-9418.149754
2092.687847,57.427742,133.998066,-9360.722011
2092.688474,76.570323,114.855485,-9418.149754
2092.689102,133.998066,114.855485,-9437.292334
2092.689729,76.570323,114.855485,-9418.149754
2092.690357,38.285162,153.140646,-9456.434915
2092.690984,38.285162,114.855485,-9456.434915
2092.691612,133.998066,191.425808,-9399.007173
2092.692239,76.570323,114.855485,-9360.722011
2092.692867,57.427742,133.998066,-9360.722011
2092.693494,95.712904,95.712904,-9399.007173
2092.694122,38.285162,114.855485,-9418.149754
2092.694749,133.998066,172.283227,-9437.292334
2092.695377,76.570323,114.855485,-9418.149754
2092.696004,95.712904,133.998066,-9360.722011
2092.696631,38.285162,114.855485,-9418.149754
2092.697259,76.570323,172.283227,-9418.149754
2092.697886,133.998066,172.283227,-9456.434915
2092.698514,76.570323,114.855485,-9418.149754
2092.699141,153.140646,133.998066,-9399.007173
2092.699769,133.998066,114.855485,-9418.149754
2092.700396,133.998066,114.855485,-9418.149754
2092.701024,133.998066,133.998066,-9456.434915
2092.701651,76.570323,153.140646,-9418.149754
2092.702279,38.285162,114.855485,-9418.149754
2092.702906,38.285162,114.855485,-9418.149754
2092.703534,76.570323,114.855485,-9418.149754
2092.704161,133.998066,114.855485,-9437.292334
2092.704789,133.998066,114.855485,-9418.149754
2092.705416,76.570323,172.283227,-9418.149754
2092.706044,38.285162,172.283227,-9418.149754
2092.706671,172.283227,76.570323,-9418.149754
2092.707299,133.998066,114.855485,-9418.149754
2092.707926,114.855485,76.570323,-9437.292334
2092.708554,114.855485,133.998066,-9360.722011
2092.709181,133.998066,114.855485,-9456.434915
2092.709809,133.998066,172.283227,-9418.149754
2092.710436,76.570323,153.140646,-9456.434915
2092.711063,76.570323,210.568389,-9418.149754
2092.711691,133.998066,114.855485,-9418.149754
2092.712318,153.140646,133.998066,-9399.007173
2092.712946,133.998066,114.855485,-9418.149754
2092.713573,38.285162,210.568389,-9418.149754
2092.714201,76.570323,114.855485,-9437.292334
2092.714828,95.712904,95.712904,-9399.007173
2092.715456,38.285162,172.283227,-9418.149754
2092.716083,57.427742,210.568389,-9418.149754
2092.716711,76.570323,114.855485,-9418.149754
2092.717338,133.998066,114.855485,-9437.292334
2092.717966,133.998066,210.568389,-9456.434915
2092.718593,114.855485,95.712904,-9494.720077
2092.719221,133.998066,114.855485,-9418.149754
2092.719848,133.998066,114.855485,-9437.292334
2092.720475,210.568389,133.998066,-9399.007173
2092.721103,153.140646,191.425808,-9399.007173
2092.721730,172.283227,76.570323,-9418.149754
2092.722358,133.998066,191.425808,-9399.007173
2092.722985,133.998066,133.998066,-9399.007173
2092.723613,133.998066,114.855485,-9475.577496
2092.724240,76.570323,191.425808,-9456.434915
2092.724868,76.570323,114.855485,-9418.149754
2092.725495,114.855485,114.855485,-9379.864592
2092.726123,76.570323,114.855485,-9418.149754
2092.726750,133.998066,172.283227,-9418.149754
2092.727377,38.285162,114.855485,-9456.434915
2092.728005,76.570323,114.855485,-9418.149754
2092.728632,76.570323,114.855485,-9418.149754
2092.729260,133.998066,114.855485,-9418.149754
2092.729887,153.140646,133.998066,-9456.434915
2092.730515,133.998066,172.283227,-9418.149754
2092.731142,114.855485,191.425808,-9418.149754
2092.731770,76.570323,191.425808,-9418.149754
2092.732397,38.285162,172.283227,-9437.292334
2092.733025,76.570323,229.710970,-9437.292334
2092.733652,76.570323,153.140646,-9418.149754
2092.734280,76.570323,153.140646,-9418.149754
2092.734907,38.285162,210.568389,-9418.149754
2092.735534,133.998066,248.853550,-9399.007173
2092.736162,133.998066,172.283227,-9418.149754
2092.736789,76.570323,114.855485,-9418.149754
2092.737417,38.285162,172.283227,-9418.149754
2092.738044,95.712904,133.998066,-9360.722011
2092.738672,38.285162,210.568389,-9418.149754
2092.739299,76.570323,172.283227,-9437.292334
2092.739927,133.998066,153.140646,-9437.292334
2092.740554,76.570323,172.283227,-9418.149754
2092.741182,133.998066,114.855485,-9456.434915
2092.741809,76.570323,210.568389,-9360.722011
2092.742436,133.998066,114.855485,-9418.149754
2092.743064,133.998066,114.855485,-9418.149754
2092.743691,76.570323,114.855485,-9418.149754
2092.744319,114.855485,114.855485,-9437.292334
2092.744946,76.570323,153.140646,-9418.149754
2092.745574,76.570323,114.855485,-9418.149754
2092.746201,114.855485,172.283227,-9360.722011
2092.746829,133.998066,133.998066,-9437.292334
2092.747456,76.570323,114.855485,-9418.149754
2092.748084,57.427742,114.855485,-9418.149754
2092.748711,133.998066,153.140646,-9475.577496
2092.749338,76.570323,114.855485,-9475.577496
2092.749966,76.570323,114.855485,-9418.149754
2092.750593,57.427742,114.855485,-9418.149754
2092.751221,38.285162,114.855485,-9418.149754
2092.751848,133.998066,114.855485,-9418.149754
2092.752476,133.998066,114.855485,-9418.149754
2092.753103,133.998066,114.855485,-9437.292334
2092.753731,133.998066,114.855485,-9418.149754
2092.754358,76.570323,114.855485,-9437.292334
2092.754986,114.855485,95.712904,-9399.007173
2092.755613,76.570323,114.855485,-9418.149754
2092.756241,76.570323,114.855485,-9437.292334
2092.756868,38.285162,153.140646,-9418.149754
2092.757495,76.570323,114.855485,-9456.434915
2092.758123,133.998066,114.855485,-9437.292334
2092.758750,133.998066,114.855485,-9418.149754
2092.759378,133.998066,114.855485,-9418.149754
2092.760005,76.570323,114.855485,-9437.292334
2092.760633,95.712904,95.712904,-9399.007173
2092.761260,133.998066,114.855485,-9456.434915
2092.761888,133.998066,114.855485,-9475.577496
2092.762515,153.140646,153.140646,-9456.434915
2092.763143,133.998066,114.855485,-9418.149754
2092.763770,133.998066,114.855485,-9533.005238
2092.764397,38.285162,114.855485,-9418.149754
2092.765025,114.855485,133.998066,-9360.722011
2092.765652,38.285162,153.140646,-9456.434915
2092.766280,95.712904,153.140646,-9418.149754
2092.766907,114.855485,95.712904,-9399.007173
2092.767535,133.998066,133.998066,-9456.434915
2092.768162,76.570323,114.855485,-9418.149754
2092.768790,38.285162,114.855485,-9418.149754
2092.769417,38.285162,172.283227,-9418.149754
2092.770045,95.712904,114.855485,-9418.149754
2092.770672,114.855485,114.855485,-9399.007173
2092.771299,76.570323,153.140646,-9418.149754
2092.771927,95.712904,114.855485,-9418.149754
2092.772554,76.570323,210.568389,-9437.292334
2092.773182,133.998066,114.855485,-9418.149754
2092.773809,38.285162,114.855485,-9418.149754
2092.774437,133.998066,114.855485,-9418.149754
2092.775064,153.140646,133.998066,-9437.292334
2092.775692,76.570323,114.855485,-9418.149754
2092.776319,76.570323,114.855485,-9437.292334
2092.776947,76.570323,172.283227,-9437.292334
2092.777574,76.570323,76.570323,-9379.864592
2092.778202,133.998066,172.283227,-9437.292334
2092.778829,153.140646,133.998066,-9437.292334
2092.779456,76.570323,172.283227,-9418.149754
2092.780084,133.998066,114.855485,-9418.149754
2092.780711,133.998066,114.855485,-9437.292334
2092.781339,133.998066,114.855485,-9456.434915
2092.781966,133.998066,114.855485,-9418.149754
2092.782594,133.998066,114.855485,-9418.149754
2092.783221,76.570323,114.855485,-9418.149754
2092.783849,38.285162,153.140646,-9437.292334
2092.784476,133.998066,114.855485,-9418.149754
2092.785104,133.998066,114.855485,-9418.149754
2092.785731,114.855485,95.712904,-9399.007173
2092.786358,133.998066,114.855485,-9418.149754
2092.786986,133.998066,114.855485,-9418.149754
2092.787613,38.285162,114.855485,-9494.720077
2092.788241,95.712904,114.855485,-9437.292334
2092.788868,38.285162,114.855485,-9418.149754
2092.789496,95.712904,114.855485,-9418.149754
2092.790123,133.998066,172.283227,-9418.149754
2092.790751,133.998066,153.140646,-9437.292334
2092.791378,76.570323,153.140646,-9437.292334
2092.792006,76.570323,153.140646,-9418.149754
2092.792633,153.140646,133.998066,-9437.292334
2092.793260,133.998066,114.855485,-9456.434915
2092.793888,76.570323,114.855485,-9456.434915
2092.794515,76.570323,114.855485,-9456.434915
2092.795143,133.998066,133.998066,-9399.007173
2092.795770,133.998066,210.568389,-9418.149754
2092.796398,133.998066,172.283227,-9418.149754
2092.797025,153.140646,133.998066,-9399.007173
2092.797653,133.998066,114.855485,-9418.149754
2092.798280,114.855485,229.710970,-9399.007173
2092.798908,133.998066,114.855485,-9437.292334
2092.799535,133.998066,191.425808,-9456.434915
2092.800162,133.998066,114.855485,-9456.434915
2092.800790,38.285162,114.855485,-9418.149754
2092.801417,114.855485,95.712904,-9437.292334
2092.802045,57.427742,153.140646,-9360.722011
2092.802672,76.570323,114.855485,-9494.720077
2092.803300,76.570323,210.568389,-9533.005238
2092.803927,76.570323,114.855485,-9418.149754
2092.804555,133.998066,153.140646,-9437.292334
2092.805182,133.998066,153.140646,-9437.292334
2092.805810,76.570323,114.855485,-9437.292334
2092.806437,95.712904,191.425808,-9360.722011
2092.807065,153.140646,133.998066,-9456.434915
2092.807692,76.570323,114.855485,-9418.149754
2092.808319,133.998066,172.283227,-9418.149754
2092.808947,95.712904,133.998066,-9360.722011
2092.809574,76.570323,114.855485,-9437.292334
2092.810202,133.998066,114.855485,-9418.149754
2092.810829,133.998066,114.855485,-9418.149754
2092.811457,76.570323,114.855485,-9418.149754
2092.812084,38.285162,210.568389,-9475.577496
2092.812712,133.998066,153.140646,-9399.007173
2092.813339,76.570323,210.568389,-9418.149754
2092.813967,76.570323,153.140646,-9437.292334
2092.814594,153.140646,153.140646,-9437.292334
2092.815221,76.570323,114.855485,-9418.149754
2092.815849,133.998066,191.425808,-9418.149754
2092.816477,133.998066,210.568389,-9437.292334
2092.817104,95.712904,114.855485,-9418.149754
2092.817732,76.570323,114.855485,-9437.292334
2092.818359,114.855485,95.712904,-9399.007173
2092.818987,133.998066,114.855485,-9437.292334
2092.819615,95.712904,114.855485,-9418.149754
2092.820242,76.570323,114.855485,-9437.292334
2092.820870,38.285162,114.855485,-9418.149754
2092.821498,76.570323,95.712904,-9399.007173
2092.822125,95.712904,95.712904,-9399.007173
2092.822753,114.855485,248.853550,-9418.149754
2092.823381,76.570323,210.568389,-9437.292334
2092.824008,133.998066,172.283227,-9418.149754
2092.824636,133.998066,133.998066,-9399.007173
2092.825264,133.998066,114.855485,-9418.149754
2092.825891,0.000000,133.998066,-9360.722011
2092.826519,76.570323,114.855485,-9418.149754
2092.827146,95.712904,133.998066,-9360.722011
2092.827774,95.712904,95.712904,-9399.007173
2092.828402,133.998066,114.855485,-9418.149754
2092.829029,133.998066,114.855485,-9418.149754
2092.829657,114.855485,95.712904,-9399.007173
2092.830285,76.570323,114.855485,-9360.722011
2092.830912,133.998066,153.140646,-9418.149754
2092.831540,133.998066,114.855485,-9475.577496
2092.832168,76.570323,172.283227,-9418.149754
2092.832795,133.998066,172.283227,-9475.577496
2092.833423,153.140646,133.998066,-9399.007173
2092.834050,133.998066,114.855485,-9456.434915
2092.834678,76.570323,114.855485,-9418.149754
2092.835306,95.712904,95.712904,-9399.007173
2092.835933,95.712904,76.570323,-9399.007173
2092.836561,114.855485,133.998066,-9533.005238
2092.837189,76.570323,114.855485,-9437.292334
2092.837816,133.998066,133.998066,-9456.434915
2092.838444,133.998066,153.140646,-9418.149754
2092.839072,76.570323,153.140646,-9418.149754
2092.839699,114.855485,95.712904,-9437.292334
2092.840327,76.570323,153.140646,-9475.577496
2092.840955,76.570323,172.283227,-9418.149754
2092.841582,95.712904,153.140646,-9418.149754
2092.842210,76.570323,114.855485,-9418.149754
2092.842837,133.998066,133.998066,-9437.292334
2092.843465,153.140646,133.998066,-9399.007173
2092.844093,133.998066,114.855485,-9418.149754
2092.844720,153.140646,114.855485,-9437.292334
2092.845348,153.140646,172.283227,-9399.007173
2092.845976,153.140646,133.998066,-9399.007173
2092.846603,76.570323,95.712904,-9494.720077
2092.847231,76.570323,172.283227,-9418.149754
2092.847859,114.855485,133.998066,-9360.722011
2092.848486,76.570323,153.140646,-9456.434915
2092.849114,95.712904,95.712904,-9494.720077
2092.849741,95.712904,153.140646,-9437.292334
2092.850369,76.570323,114.855485,-9418.149754
2092.850997,38.285162,114.855485,-9437.292334
2092.851624,133.998066,114.855485,-9475.577496
2092.852252,133.998066,153.140646,-9418.149754
2092.852880,172.283227,153.140646,-9379.864592
2092.853507,133.998066,172.283227,-9418.149754
2092.854135,95.712904,153.140646,-9418.149754
2092.854763,95.712904,153.140646,-9418.149754
2092.855390,76.570323,229.710970,-9418.149754
2092.856018,76.570323,172.283227,-9456.434915
2092.856645,133.998066,114.855485,-9418.149754
2092.857273,153.140646,114.855485,-9418.149754
2092.857901,38.285162,172.283227,-9418.149754
2092.858528,38.285162,114.855485,-9418.149754
2092.859156,133.998066,114.855485,-9418.149754
2092.859784,133.998066,114.855485,-9418.149754
2092.860411,38.285162,114.855485,-9418.149754
2092.861039,133.998066,172.283227,-9418.149754
2092.861667,76.570323,210.568389,-9437.292334
2092.862294,133.998066,114.855485,-9418.149754
2092.862922,76.570323,172.283227,-9418.149754
2092.863550,133.998066,210.568389,-9437.292334
2092.864177,76.570323,153.140646,-9456.434915
2092.864805,153.140646,191.425808,-9399.007173
2092.865432,133.998066,133.998066,-9494.720077
2092.866060,76.570323,172.283227,-9475.577496
2092.866688,76.570323,153.140646,-9437.292334
2092.867315,95.712904,172.283227,-9418.149754
2092.867943,57.427742,114.855485,-9494.720077
2092.868571,38.285162,114.855485,-9418.149754
2092.869198,76.570323,114.855485,-9418.149754
2092.869826,95.712904,114.855485,-9418.149754
2092.870454,133.998066,153.140646,-9399.007173
2092.871081,133.998066,153.140646,-9418.149754
2092.871709,133.998066,114.855485,-9418.149754
2092.872336,133.998066,114.855485,-9456.434915
2092.872964,153.140646,153.140646,-9437.292334
2092.873592,76.570323,210.568389,-9399.007173
2092.874219,76.570323,114.855485,-9437.292334
2092.874847,153.140646,133.998066,-9399.007173
2092.875475,133.998066,153.140646,-9437.292334
2092.876102,153.140646,133.998066,-9475.577496
2092.876730,133.998066,172.283227,-9437.292334
2092.877358,133.998066,114.855485,-9418.149754
2092.877985,133.998066,114.855485,-9418.149754
2092.878613,76.570323,114.855485,-9437.292334
2092.879241,133.998066,114.855485,-9418.149754
2092.879868,133.998066,114.855485,-9418.149754
2092.880496,76.570323,114.855485,-9418.149754
2092.881123,95.712904,114.855485,-9437.292334
2092.881751,76.570323,153.140646,-9418.149754
2092.882379,133.998066,153.140646,-9475.577496
2092.883006,38.285162,114.855485,-9418.149754
2092.883634,38.285162,172.283227,-9494.720077
2092.884262,38.285162,172.283227,-9456.434915
2092.884889,133.998066,172.283227,-9418.149754
2092.885517,153.140646,248.853550,-9379.864592
2092.886145,133.998066,133.998066,-9399.007173
2092.886772,76.570323,153.140646,-9418.149754
2092.887400,57.427742,133.998066,-9360.722011
2092.888027,133.998066,114.855485,-9418.149754
2092.888655,133.998066,172.283227,-9418.149754
2092.889283,95.712904,153.140646,-9360.722011
2092.889910,153.140646,153.140646,-9399.007173
2092.890538,76.570323,114.855485,-9418.149754
2092.891166,38.285162,114.855485,-9418.149754
2092.891793,76.570323,210.568389,-9456.434915
2092.892421,133.998066,153.140646,-9418.149754
2092.893049,76.570323,153.140646,-9494.720077
2092.893676,38.285162,172.283227,-9437.292334
2092.894304,95.712904,114.855485,-9494.720077
2092.894932,153.140646,114.855485,-9456.434915
2092.895559,95.712904,153.140646,-9360.722011
2092.896187,76.570323,153.140646,-9418.149754
2092.896814,76.570323,114.855485,-9418.149754
2092.897442,133.998066,114.855485,-9418.149754
2092.898070,38.285162,172.283227,-9437.292334
2092.898697,76.570323,114.855485,-9418.149754
2092.899325,95.712904,95.712904,-9399.007173
2092.899953,133.998066,114.855485,-9360.722011
2092.900580,76.570323,114.855485,-9418.149754
2092.901208,153.140646,172.283227,-9399.007173
2092.901836,153.140646,172.283227,-9399.007173
2092.902463,153.140646,133.998066,-9399.007173
2092.903091,133.998066,153.140646,-9456.434915
2092.903718,76.570323,114.855485,-9437.292334
2092.904346,57.427742,114.855485,-9437.292334
2092.904974,38.285162,114.855485,-9418.149754
2092.905601,133.998066,114.855485,-9456.434915
2092.906229,76.570323,172.283227,-9456.434915
2092.906857,76.570323,172.283227,-9437.292334
2092.907484,76.570323,114.855485,-9418.149754
2092.908112,76.570323,172.283227,-9456.434915
2092.908740,114.855485,133.998066,-9360.722011
2092.909367,76.570323,172.283227,-9437.292334
2092.909995,133.998066,114.855485,-9456.434915
2092.910622,133.998066,114.855485,-9418.149754
2092.911250,153.140646,172.283227,-9437.292334
2092.911878,76.570323,153.140646,-9418.149754
2092.912505,76.570323,153.140646,-9418.149754
2092.913133,76.570323,191.425808,-9360.722011
2092.913761,76.570323,210.568389,-9418.149754
2092.914388,95.712904,210.568389,-9418.149754
2092.915016,76.570323,114.855485,-9418.149754
2092.915644,153.140646,153.140646,-9456.434915
2092.916271,76.570323,114.855485,-9418.149754
2092.916899,76.570323,114.855485,-9456.434915
2092.917526,95.712904,133.998066,-9360.722011
2092.918154,133.998066,114.855485,-9418.149754
2092.918782,133.998066,114.855485,-9475.577496
2092.919409,76.570323,114.855485,-9418.149754
2092.920037,76.570323,172.283227,-9418.149754
2092.920664,133.998066,172.283227,-9475.577496
2092.921292,133.998066,153.140646,-9456.434915
2092.921919,76.570323,153.140646,-9418.149754
2092.922547,76.570323,114.855485,-9418.149754
2092.923175,38.285162,114.855485,-9456.434915
2092.923802,95.712904,114.855485,-9418.149754
2092.924430,114.855485,95.712904,-9456.434915
2092.925057,38.285162,95.712904,-9456.434915
2092.925685,0.000000,95.712904,-9399.007173
2092.926312,133.998066,172.283227,-9437.292334
2092.926940,76.570323,172.283227,-9418.149754
2092.927568,133.998066,114.855485,-9418.149754
2092.928195,76.570323,172.283227,-9418.149754
2092.928823,153.140646,133.998066,-9399.007173
2092.929450,76.570323,114.855485,-9437.292334
2092.930078,38.285162,133.998066,-9322.436850
2092.930705,76.570323,172.283227,-9360.722011
2092.931333,76.570323,114.855485,-9418.149754
2092.931961,153.140646,133.998066,-9437.292334
2092.932588,133.998066,133.998066,-9399.007173
2092.933216,133.998066,114.855485,-9437.292334
2092.933843,38.285162,114.855485,-9437.292334
2092.934471,76.570323,114.855485,-9437.292334
2092.935098,76.570323,114.855485,-9456.434915
2092.935726,57.427742,114.855485,-9456.434915
2092.936354,95.712904,133.998066,-9360.722011
2092.936981,114.855485,76.570323,-9437.292334
2092.937609,133.998066,172.283227,-9475.577496
2092.938236,76.570323,114.855485,-9418.149754
2092.938864,133.998066,114.855485,-9418.149754
2092.939491,153.140646,153.140646,-9399.007173
2092.940119,133.998066,172.283227,-9475.577496
2092.940747,76.570323,114.855485,-9456.434915
2092.941374,76.570323,114.855485,-9437.292334
2092.942002,76.570323,114.855485,-9456.434915
2092.942629,38.285162,153.140646,-9418.149754
2092.943257,133.998066,153.140646,-9418.149754
2092.943885,76.570323,114.855485,-9437.292334
2092.944512,76.570323,210.568389,-9418.149754
2092.945140,133.998066,153.140646,-9418.149754
2092.945767,76.570323,114.855485,-9456.434915
2092.946395,133.998066,172.283227,-9437.292334
2092.947022,153.140646,153.140646,-9399.007173
2092.947650,76.570323,114.855485,-9418.149754
2092.948278,95.712904,172.283227,-9360.722011
2092.948905,114.855485,153.140646,-9418.149754
2092.949533,76.570323,153.140646,-9418.149754
2092.950160,133.998066,153.140646,-9418.149754
2092.950788,76.570323,114.855485,-9437.292334
2092.951415,76.570323,114.855485,-9418.149754
2092.952043,114.855485,133.998066,-9418.149754
2092.952671,76.570323,133.998066,-9418.149754
2092.953298,114.855485,133.998066,-9360.722011
2092.953926,133.998066,114.855485,-9437.292334
2092.954553,76.570323,114.855485,-9418.149754
2092.955181,133.998066,133.998066,-9494.720077
2092.955808,95.712904,114.855485,-9494.720077
2092.956436,133.998066,114.855485,-9418.149754
2092.957064,153.140646,133.998066,-9399.007173
2092.957691,76.570323,114.855485,-9437.292334
2092.958319,114.855485,95.712904,-9399.007173
2092.958946,153.140646,133.998066,-9379.864592
2092.959574,95.712904,114.855485,-9437.292334
2092.960201,133.998066,114.855485,-9437.292334
2092.960829,133.998066,153.140646,-9418.149754
2092.961457,95.712904,114.855485,-9437.292334
2092.962084,76.570323,114.855485,-9475.577496
2092.962712,38.285162,210.568389,-9418.149754
2092.963339,133.998066,153.140646,-9418.149754
2092.963967,76.570323,114.855485,-9437.292334
2092.964594,133.998066,172.283227,-9418.149754
2092.965222,133.998066,114.855485,-9418.149754
2092.965850,19.142581,114.855485,-9418.149754
2092.966477,76.570323,153.140646,-9437.292334
2092.967105,95.712904,114.855485,-9418.149754
2092.967732,133.998066,114.855485,-9437.292334
2092.968360,57.427742,153.140646,-9437.292334
2092.968987,76.570323,114.855485,-9418.149754
2092.969615,153.140646,133.998066,-9399.007173
2092.970243,133.998066,114.855485,-9418.149754
2092.970870,76.570323,191.425808,-9418.149754
2092.971498,76.570323,229.710970,-9456.434915
2092.972125,38.285162,114.855485,-9418.149754
2092.972753,38.285162,114.855485,-9418.149754
2092.973380,76.570323,153.140646,-9418.149754
2092.974008,76.570323,114.855485,-9418.149754
2092.974636,38.285162,191.425808,-9418.149754
2092.975263,95.712904,153.140646,-9360.722011
2092.975891,95.712904,114.855485,-9437.292334
2092.976518,133.998066,114.855485,-9418.149754
2092.977146,153.140646,172.283227,-9399.007173
2092.977773,153.140646,153.140646,-9399.007173
2092.978401,133.998066,114.855485,-9418.149754
2092.979029,133.998066,114.855485,-9418.149754
2092.979656,76.570323,153.140646,-9437.292334
2092.980284,76.570323,114.855485,-9418.149754
2092.980911,57.427742,95.712904,-9437.292334
2092.981539,38.285162,76.570323,-9379.864592
2092.982167,38.285162,114.855485,-9437.292334
2092.982794,76.570323,114.855485,-9418.149754
2092.983422,153.140646,153.140646,-9437.292334
2092.984049,95.712904,153.140646,-9437.292334
2092.984677,133.998066,210.568389,-9399.007173
2092.985304,133.998066,172.283227,-9456.434915
2092.985932,76.570323,153.140646,-9418.149754
2092.986560,38.285162,114.855485,-9418.149754
2092.987187,133.998066,172.283227,-9418.149754
2092.987815,114.855485,95.712904,-9437.292334
2092.988442,133.998066,172.283227,-9437.292334
2092.989070,153.140646,133.998066,-9456.434915
2092.989697,133.998066,133.998066,-9399.007173
2092.990325,76.570323,114.855485,-9418.149754
2092.990953,76.570323,210.568389,-9418.149754
2092.991580,133.998066,114.855485,-9360.722011
2092.992208,76.570323,114.855485,-9418.149754
2092.992835,133.998066,210.568389,-9418.149754
2092.993463,76.570323,114.855485,-9418.149754
2092.994090,38.285162,114.855485,-9456.434915
2092.994718,133.998066,153.140646,-9418.149754
2092.995346,76.570323,114.855485,-9475.577496
2092.995973,76.570323,114.855485,-9418.149754
2092.996601,95.712904,133.998066,-9360.722011
2092.997228,95.712904,114.855485,-9418.149754
2092.997856,133.998066,114.855485,-9418.149754
2092.998483,76.570323,114.855485,-9418.149754
2092.999111,133.998066,229.710970,-9360.722011
2092.999739,133.998066,153.140646,-9418.149754
2093.000366,76.570323,153.140646,-9456.434915
2093.000994,76.570323,153.140646,-9475.577496
2093.001621,76.570323,114.855485,-9418.149754
2093.002249,38.285162,114.855485,-9456.434915
2093.002876,133.998066,114.855485,-9418.149754
2093.003504,76.570323,153.140646,-9418.149754
2093.004132,76.570323,172.283227,-9456.434915
2093.004759,153.140646,210.568389,-9418.149754
2093.005387,133.998066,114.855485,-9418.149754
2093.006014,133.998066,153.140646,-9437.292334
2093.006642,95.712904,153.140646,-9418.149754
2093.007269,76.570323,172.283227,-9475.577496
2093.007897,95.712904,153.140646,-9418.149754
2093.008525,76.570323,114.855485,-9418.149754
2093.009152,133.998066,114.855485,-9418.149754
2093.009780,133.998066,114.855485,-9475.577496
2093.010407,19.142581,114.855485,-9494.720077
2093.011035,95.712904,114.855485,-9437.292334
2093.011662,95.712904,95.712904,-9399.007173
2093.012290,76.570323,114.855485,-9418.149754
2093.012918,76.570323,153.140646,-9418.149754
2093.013545,38.285162,210.568389,-9475.577496
2093.014173,38.285162,76.570323,-9379.864592
2093.014800,133.998066,172.283227,-9437.292334
2093.015428,76.570323,153.140646,-9418.149754
2093.016056,76.570323,114.855485,-9418.149754
2093.016683,133.998066,133.998066,-9399.007173
2093.017311,38.285162,114.855485,-9418.149754
2093.017938,38.285162,114.855485,-9418.149754
2093.018566,95.712904,172.283227,-9360.722011
2093.019194,57.427742,95.712904,-9399.007173
2093.019821,76.570323,114.855485,-9456.434915
2093.020449,133.998066,114.855485,-9418.149754
2093.021077,95.712904,114.855485,-9418.149754
2093.021704,38.285162,153.140646,-9418.149754
2093.022332,76.570323,114.855485,-9418.149754
2093.022960,95.712904,114.855485,-9456.434915
2093.023587,76.570323,172.283227,-9437.292334
2093.024215,76.570323,114.855485,-9437.292334
2093.024843,95.712904,114.855485,-9399.007173
2093.025470,133.998066,153.140646,-9399.007173
2093.026098,133.998066,172.283227,-9418.149754
2093.026725,133.998066,153.140646,-9418.149754
2093.027353,133.998066,133.998066,-9456.434915
2093.027981,95.712904,114.855485,-9418.149754
2093.028608,133.998066,172.283227,-9418.149754
2093.029236,114.855485,114.855485,-9456.434915
2093.029864,95.712904,95.712904,-9399.007173
2093.030491,76.570323,114.855485,-9456.434915
2093.031119,95.712904,95.712904,-9399.007173
2093.031747,57.427742,76.570323,-9379.864592
2093.032374,95.712904,95.712904,-9418.149754
2093.033002,76.570323,153.140646,-9418.149754
2093.033630,76.570323,114.855485,-9418.149754
2093.034257,76.570323,153.140646,-9475.577496
2093.034885,95.712904,172.283227,-9437.292334
2093.035513,76.570323,172.283227,-9418.149754
2093.036140,76.570323,210.568389,-9475.577496
2093.036768,76.570323,153.140646,-9360.722011
2093.037396,133.998066,210.568389,-9437.292334
2093.038023,38.285162,114.855485,-9456.434915
2093.038651,133.998066,153.140646,-9418.149754
2093.039278,133.998066,114.855485,-9418.149754
2093.039906,76.570323,114.855485,-9533.005238
2093.040534,95.712904,95.712904,-9437.292334
2093.041161,133.998066,114.855485,-9456.434915
2093.041789,153.140646,133.998066,-9437.292334
2093.042417,133.998066,114.855485,-9418.149754
2093.043044,153.140646,133.998066,-9399.007173
2093.043672,133.998066,114.855485,-9418.149754
2093.044300,76.570323,114.855485,-9437.292334
2093.044927,114.855485,95.712904,-9437.292334
2093.045555,133.998066,114.855485,-9456.434915
2093.046183,95.712904,95.712904,-9399.007173
2093.046810,133.998066,114.855485,-9437.292334
2093.047438,95.712904,114.855485,-9437.292334
2093.048066,57.427742,114.855485,-9437.292334
2093.048693,133.998066,114.855485,-9418.149754
2093.049321,133.998066,210.568389,-9437.292334
2093.049949,133.998066,191.425808,-9437.292334
2093.050576,133.998066,114.855485,-9418.149754
2093.051204,133.998066,229.710970,-9418.149754
2093.051831,38.285162,172.283227,-9475.577496
2093.052459,76.570323,114.855485,-9418.149754
2093.053087,133.998066,114.855485,-9475.577496
2093.053714,76.570323,114.855485,-9418.149754
2093.054342,57.427742,114.855485,-9418.149754
2093.054970,76.570323,114.855485,-9418.149754
2093.055597,133.998066,153.140646,-9418.149754
2093.056225,76.570323,172.283227,-9418.149754
2093.056853,133.998066,153.140646,-9399.007173
2093.057480,38.285162,114.855485,-9418.149754
2093.058108,133.998066,153.140646,-9418.149754
2093.058736,153.140646,133.998066,-9399.007173
2093.059363,76.570323,76.570323,-9379.864592
2093.059991,76.570323,191.425808,-9418.149754
2093.060619,133.998066,191.425808,-9418.149754
2093.061246,95.712904,133.998066,-9418.149754
2093.061874,114.855485,95.712904,-9399.007173
2093.062502,133.998066,114.855485,-9456.434915
2093.063129,133.998066,172.283227,-9418.149754
2093.063757,133.998066,153.140646,-9456.434915
2093.064384,95.712904,114.855485,-9418.149754
2093.065012,57.427742,95.712904,-9399.007173
2093.065640,95.712904,153.140646,-9437.292334
2093.066267,76.570323,172.283227,-9418.149754
2093.066895,133.998066,114.855485,-9437.292334
2093.067523,153.140646,133.998066,-9399.007173
2093.068150,153.140646,133.998066,-9494.720077
2093.068778,133.998066,172.283227,-9418.149754
2093.069406,133.998066,114.855485,-9456.434915
2093.070033,95.712904,133.998066,-9360.722011
2093.070661,95.712904,114.855485,-9475.577496
2093.071289,95.712904,114.855485,-9399.007173
2093.071916,172.283227,133.998066,-9360.722011
2093.072544,76.570323,172.283227,-9418.149754
2093.073172,38.285162,114.855485,-9418.149754
2093.073799,76.570323,172.283227,-9456.434915
2093.074427,76.570323,153.140646,-9475.577496
2093.075055,133.998066,114.855485,-9437.292334
2093.075682,133.998066,210.568389,-9494.720077
2093.076310,76.570323,153.140646,-9456.434915
2093.076937,38.285162,114.855485,-9418.149754
2093.077565,19.142581,114.855485,-9418.149754
2093.078193,38.285162,172.283227,-9418.149754
2093.078820,38.285162,114.855485,-9418.149754
2093.079448,76.570323,133.998066,-9360.722011
2093.080076,133.998066,210.568389,-9456.434915
2093.080703,133.998066,172.283227,-9437.292334
2093.081331,76.570323,114.855485,-9418.149754
2093.081959,76.570323,191.425808,-9418.149754
2093.082586,133.998066,114.855485,-9418.149754
2093.083214,95.712904,114.855485,-9437.292334
2093.083842,38.285162,153.140646,-9418.149754
2093.084469,76.570323,229.710970,-9418.149754
2093.085097,133.998066,153.140646,-9456.434915
2093.085725,76.570323,210.568389,-9418.149754
2093.086352,95.712904,210.568389,-9418.149754
2093.086980,76.570323,172.283227,-9437.292334
2093.087608,133.998066,172.283227,-9494.720077
2093.088235,133.998066,172.283227,-9418.149754
2093.088863,133.998066,114.855485,-9418.149754
2093.089490,76.570323,114.855485,-9418.149754
2093.090118,76.570323,172.283227,-9418.149754
2093.090746,38.285162,172.283227,-9418.149754
2093.091373,76.570323,114.855485,-9418.149754
2093.092001,76.570323,172.283227,-9456.434915
2093.092629,76.570323,114.855485,-9437.292334
2093.093256,38.285162,210.568389,-9437.292334
2093.093884,133.998066,114.855485,-9418.149754
2093.094512,153.140646,172.283227,-9399.007173
2093.095139,153.140646,133.998066,-9399.007173
2093.095767,95.712904,114.855485,-9418.149754
2093.096395,153.140646,133.998066,-9437.292334
2093.097022,133.998066,153.140646,-9456.434915
2093.097650,133.998066,114.855485,-9456.434915
2093.098278,76.570323,114.855485,-9418.149754
2093.098905,153.140646,133.998066,-9475.577496
2093.099533,114.855485,95.712904,-9456.434915
2093.100161,76.570323,114.855485,-9418.149754
2093.100788,76.570323,114.855485,-9418.149754
2093.101416,133.998066,114.855485,-9475.577496
2093.102043,133.998066,133.998066,-9399.007173
2093.102671,95.712904,133.998066,-9360.722011
2093.103299,114.855485,95.712904,-9399.007173
2093.103926,133.998066,114.855485,-9456.434915
2093.104554,133.998066,210.568389,-9418.149754
2093.105182,57.427742,210.568389,-9418.149754
2093.105809,76.570323,153.140646,-9456.434915
2093.106437,76.570323,172.283227,-9437.292334
2093.107065,133.998066,114.855485,-9437.292334
2093.107692,133.998066,210.568389,-9437.292334
2093.108320,76.570323,114.855485,-9418.149754
2093.108948,133.998066,114.855485,-9418.149754
2093.109575,95.712904,172.283227,-9418.149754
2093.110203,76.570323,153.140646,-9418.149754
2093.110831,133.998066,133.998066,-9399.007173
2093.111458,38.285162,191.425808,-9418.149754
2093.112086,76.570323,210.568389,-9418.149754
2093.112714,76.570323,210.568389,-9494.720077
2093.113341,133.998066,172.283227,-9418.149754
2093.113969,114.855485,133.998066,-9341.579430
2093.114596,76.570323,153.140646,-9418.149754
2093.115224,76.570323,153.140646,-9437.292334
2093.115852,153.140646,95.712904,-9418.149754
2093.116479,153.140646,153.140646,-9399.007173
2093.117107,76.570323,172.283227,-9437.292334
2093.117735,114.855485,95.712904,-9456.434915
2093.118362,133.998066,172.283227,-9418.149754
2093.118990,76.570323,114.855485,-9418.149754
2093.119617,38.285162,153.140646,-9418.149754
2093.120245,76.570323,114.855485,-9437.292334
2093.120872,76.570323,153.140646,-9533.005238
2093.121500,95.712904,172.283227,-9456.434915
2093.122127,76.570323,210.568389,-9437.292334
2093.122755,95.712904,114.855485,-9475.577496
2093.123382,76.570323,114.855485,-9418.149754
2093.124010,76.570323,114.855485,-9437.292334
2093.124637,133.998066,114.855485,-9418.149754
2093.125265,114.855485,95.712904,-9456.434915
2093.125893,76.570323,153.140646,-9418.149754
2093.126520,133.998066,114.855485,-9475.577496
2093.127148,114.855485,95.712904,-9437.292334
2093.127775,95.712904,114.855485,-9418.149754
2093.128403,95.712904,114.855485,-9437.292334
2093.129030,95.712904,210.568389,-9418.149754
2093.129658,95.712904,153.140646,-9456.434915
2093.130285,153.140646,172.283227,-9399.007173
2093.130913,114.855485,133.998066,-9360.722011
2093.131540,76.570323,153.140646,-9418.149754
2093.132168,133.998066,114.855485,-9456.434915
2093.132795,133.998066,95.712904,-9418.149754
2093.133423,95.712904,95.712904,-9399.007173
2093.134050,114.855485,133.998066,-9360.722011
2093.134678,57.427742,133.998066,-9418.149754
2093.135305,95.712904,133.998066,-9360.722011
2093.135933,38.285162,114.855485,-9418.149754
2093.136561,95.712904,153.140646,-9360.722011
2093.137188,133.998066,114.855485,-9494.720077
2093.137816,153.140646,172.283227,-9494.720077
2093.138443,76.570323,114.855485,-9494.720077
2093.139071,76.570323,114.855485,-9418.149754
2093.139698,133.998066,153.140646,-9418.149754
2093.140326,76.570323,153.140646,-9418.149754
2093.140953,95.712904,95.712904,-9399.007173
2093.141581,114.855485,133.998066,-9360.722011
2093.142208,133.998066,114.855485,-9437.292334
2093.142836,95.712904,114.855485,-9475.577496
2093.143463,38.285162,153.140646,-9418.149754
2093.144091,133.998066,114.855485,-9418.149754
2093.144718,133.998066,133.998066,-9399.007173
2093.145346,57.427742,172.283227,-9418.149754
2093.145973,95.712904,114.855485,-9418.149754
2093.146601,172.283227,114.855485,-9379.864592
2093.147229,95.712904,114.855485,-9418.149754
2093.147856,76.570323,153.140646,-9437.292334
2093.148484,76.570323,172.283227,-9475.577496
2093.149111,57.427742,133.998066,-9418.149754
2093.149739,153.140646,133.998066,-9494.720077
2093.150366,153.140646,133.998066,-9399.007173
2093.150994,133.998066,114.855485,-9437.292334
2093.151621,38.285162,114.855485,-9418.149754
2093.152249,76.570323,210.568389,-9456.434915
2093.152876,133.998066,114.855485,-9418.149754
2093.153504,153.140646,133.998066,-9494.720077
2093.154131,133.998066,114.855485,-9418.149754
2093.154759,38.285162,153.140646,-9418.149754
2093.155386,133.998066,114.855485,-9418.149754
2093.156014,76.570323,114.855485,-9437.292334
2093.156642,153.140646,172.283227,-9437.292334
2093.157269,95.712904,133.998066,-9418.149754
2093.157897,133.998066,114.855485,-9418.149754
2093.158524,76.570323,114.855485,-9418.149754
2093.159152,133.998066,172.283227,-9418.149754
2093.159779,133.998066,114.855485,-9418.149754
2093.160407,76.570323,114.855485,-9494.720077
2093.161034,133.998066,172.283227,-9418.149754
2093.161662,133.998066,172.283227,-9494.720077
2093.162289,76.570323,114.855485,-9418.149754
2093.162917,38.285162,114.855485,-9418.149754
2093.163544,76.570323,114.855485,-9456.434915
2093.164172,38.285162,114.855485,-9437.292334
2093.164799,76.570323,153.140646,-9437.292334
2093.165427,114.855485,172.283227,-9379.864592
2093.166054,76.570323,153.140646,-9418.149754
2093.166682,95.712904,114.855485,-9456.434915
2093.167310,133.998066,114.855485,-9437.292334
2093.167937,133.998066,133.998066,-9513.862658
2093.168565,114.855485,95.712904,-9456.434915
2093.169192,133.998066,114.855485,-9456.434915
2093.169820,38.285162,172.283227,-9418.149754
2093.170447,95.712904,95.712904,-9456.434915
2093.171075,95.712904,153.140646,-9437.292334
2093.171702,133.998066,153.140646,-9437.292334
2093.172330,153.140646,191.425808,-9437.292334
2093.172957,76.570323,153.140646,-9418.149754
2093.173585,76.570323,210.568389,-9418.149754
2093.174212,133.998066,133.998066,-9437.292334
2093.174840,133.998066,114.855485,-9418.149754
2093.175467,133.998066,114.855485,-9418.149754
2093.176095,133.998066,172.283227,-9437.292334
2093.176722,153.140646,153.140646,-9456.434915
2093.177350,38.285162,114.855485,-9456.434915
2093.177978,133.998066,153.140646,-9418.149754
2093.178605,76.570323,114.855485,-9418.149754
2093.179233,95.712904,114.855485,-9418.149754
2093.179860,38.285162,114.855485,-9475.577496
2093.180488,76.570323,153.140646,-9418.149754
2093.181115,38.285162,114.855485,-9456.434915
2093.181743,95.712904,114.855485,-9437.292334
2093.182370,76.570323,114.855485,-9418.149754
2093.182998,114.855485,95.712904,-9399.007173
2093.183625,114.855485,95.712904,-9456.434915
2093.184253,76.570323,172.283227,-9418.149754
2093.184880,38.285162,114.855485,-9418.149754
2093.185508,38.285162,114.855485,-9418.149754
2093.186135,38.285162,114.855485,-9418.149754
2093.186763,76.570323,114.855485,-9418.149754
2093.187390,95.712904,114.855485,-9456.434915
2093.188018,133.998066,114.855485,-9418.149754
2093.188646,76.570323,114.855485,-9418.149754
2093.189273,95.712904,133.998066,-9360.722011
2093.189901,76.570323,114.855485,-9418.149754
2093.190528,133.998066,114.855485,-9475.577496
2093.191156,76.570323,114.855485,-9418.149754
2093.191783,114.855485,95.712904,-9399.007173
2093.192411,95.712904,95.712904,-9399.007173
2093.193038,153.140646,153.140646,-9399.007173
2093.193666,133.998066,153.140646,-9360.722011
2093.194293,76.570323,114.855485,-9360.722011
2093.194921,114.855485,133.998066,-9360.722011
2093.195548,95.712904,114.855485,-9456.434915
2093.196176,133.998066,114.855485,-9437.292334
2093.196803,76.570323,114.855485,-9437.292334
2093.197431,76.570323,153.140646,-9418.149754
2093.198059,95.712904,95.712904,-9399.007173
2093.198686,95.712904,95.712904,-9399.007173
2093.199314,76.570323,114.855485,-9418.149754
2093.199941,114.855485,114.855485,-9437.292334
2093.200569,133.998066,191.425808,-9399.007173
2093.201196,38.285162,114.855485,-9456.434915
2093.201824,76.570323,153.140646,-9456.434915
2093.202451,133.998066,172.283227,-9418.149754
2093.203079,133.998066,76.570323,-9379.864592
2093.203706,133.998066,114.855485,-9418.149754
2093.204334,76.570323,172.283227,-9418.149754
2093.204961,76.570323,153.140646,-9418.149754
2093.205589,133.998066,114.855485,-9418.149754
2093.206216,133.998066,210.568389,-9418.149754
2093.206844,76.570323,153.140646,-9418.149754
2093.207471,38.285162,210.568389,-9418.149754
2093.208099,133.998066,210.568389,-9418.149754
2093.208727,76.570323,114.855485,-9437.292334
2093.209354,95.712904,95.712904,-9399.007173
2093.209982,95.712904,114.855485,-9399.007173
2093.210609,133.998066,153.140646,-9418.149754
2093.211237,114.855485,133.998066,-9360.722011
2093.211864,133.998066,153.140646,-9437.292334
2093.212492,76.570323,114.855485,-9418.149754
2093.213119,76.570323,153.140646,-9360.722011
2093.213747,38.285162,172.283227,-9418.149754
2093.214374,133.998066,172.283227,-9437.292334
2093.215002,153.140646,133.998066,-9399.007173
2093.215629,133.998066,114.855485,-9418.149754
2093.216257,114.855485,95.712904,-9399.007173
2093.216884,76.570323,95.712904,-9399.007173
2093.217512,114.855485,76.570323,-9418.149754
2093.218139,38.285162,114.855485,-9437.292334
2093.218767,133.998066,114.855485,-9418.149754
2093.219394,133.998066,114.855485,-9456.434915
2093.220022,133.998066,114.855485,-9418.149754
2093.220649,38.285162,114.855485,-9418.149754
2093.221277,57.427742,133.998066,-9360.722011
2093.221904,76.570323,114.855485,-9456.434915
2093.222532,76.570323,114.855485,-9437.292334
2093.223159,76.570323,114.855485,-9475.577496
2093.223786,76.570323,114.855485,-9494.720077
2093.224414,76.570323,114.855485,-9437.292334
2093.225041,76.570323,153.140646,-9437.292334
2093.225669,95.712904,191.425808,-9418.149754
2093.226296,38.285162,114.855485,-9456.434915
2093.226924,38.285162,210.568389,-9437.292334
2093.227551,76.570323,210.568389,-9418.149754
2093.228179,76.570323,153.140646,-9418.149754
2093.228806,133.998066,114.855485,-9437.292334
2093.229434,95.712904,114.855485,-9399.007173
2093.230061,133.998066,114.855485,-9456.434915
2093.230688,76.570323,114.855485,-9418.149754
2093.231316,133.998066,114.855485,-9418.149754
2093.231943,133.998066,172.283227,-9418.149754
2093.232571,133.998066,114.855485,-9418.149754
2093.233198,95.712904,229.710970,-9418.149754
2093.233826,76.570323,229.710970,-9418.149754
2093.234453,57.427742,95.712904,-9399.007173
2093.235081,57.427742,229.710970,-9494.720077
2093.235708,133.998066,172.283227,-9418.149754
2093.236336,153.140646,133.998066,-9399.007173
2093.236963,38.285162,133.998066,-9379.864592
2093.237590,76.570323,114.855485,-9418.149754
2093.238218,76.570323,114.855485,-9418.149754
2093.238845,38.285162,114.855485,-9418.149754
2093.239473,76.570323,95.712904,-9399.007173
2093.240100,38.285162,114.855485,-9418.149754
2093.240728,133.998066,172.283227,-9418.149754
2093.241355,133.998066,114.855485,-9475.577496
2093.241983,114.855485,133.998066,-9360.722011
2093.242610,153.140646,95.712904,-9418.149754
2093.243238,114.855485,95.712904,-9437.292334
2093.243865,133.998066,172.283227,-9418.149754
2093.244492,133.998066,114.855485,-9456.434915
2093.245120,95.712904,95.712904,-9399.007173
2093.245747,38.285162,114.855485,-9418.149754
2093.246375,133.998066,114.855485,-9418.149754
2093.247002,133.998066,114.855485,-9418.149754
2093.247630,76.570323,172.283227,-9418.149754
2093.248257,133.998066,114.855485,-9418.149754
2093.248885,133.998066,153.140646,-9437.292334
2093.249512,210.568389,172.283227,-9399.007173
2093.250140,133.998066,114.855485,-9418.149754
2093.250767,133.998066,133.998066,-9437.292334
2093.251394,38.285162,114.855485,-9418.149754
2093.252022,38.285162,114.855485,-9418.149754
2093.252649,38.285162,114.855485,-9456.434915
2093.253277,76.570323,114.855485,-9456.434915
2093.253904,57.427742,114.855485,-9418.149754
2093.254532,76.570323,172.283227,-9418.149754
2093.255159,133.998066,172.283227,-9418.149754
2093.255787,76.570323,114.855485,-9437.292334
2093.256414,133.998066,114.855485,-9456.434915
2093.257042,133.998066,114.855485,-9418.149754
2093.257669,76.570323,172.283227,-9418.149754
2093.258296,95.712904,210.568389,-9418.149754
2093.258924,76.570323,172.283227,-9418.149754
2093.259551,38.285162,153.140646,-9418.149754
2093.260179,133.998066,114.855485,-9418.149754
2093.260806,76.570323,172.283227,-9418.149754
2093.261434,114.855485,114.855485,-9322.436850
2093.262061,57.427742,172.283227,-9360.722011
2093.262689,0.000000,133.998066,-9360.722011
2093.263316,38.285162,153.140646,-9437.292334
2093.263944,76.570323,114.855485,-9437.292334
2093.264571,95.712904,172.283227,-9494.720077
2093.265198,76.570323,172.283227,-9456.434915
2093.265826,38.285162,114.855485,-9437.292334
2093.266453,210.568389,133.998066,-9399.007173
2093.267081,133.998066,114.855485,-9418.149754
2093.267708,153.140646,133.998066,-9399.007173
2093.268336,133.998066,114.855485,-9456.434915
2093.268963,133.998066,153.140646,-9399.007173
2093.269591,76.570323,114.855485,-9418.149754
2093.270218,133.998066,133.998066,-9456.434915
2093.270846,57.427742,95.712904,-9418.149754
2093.271473,133.998066,114.855485,-9418.149754
2093.272100,76.570323,153.140646,-9418.149754
2093.272728,133.998066,153.140646,-9418.149754
2093.273355,133.998066,114.855485,-9437.292334
2093.273983,19.142581,114.855485,-9418.149754
2093.274610,95.712904,114.855485,-9418.149754
2093.275238,38.285162,114.855485,-9456.434915
2093.275865,133.998066,114.855485,-9418.149754
2093.276493,76.570323,114.855485,-9456.434915
2093.277120,76.570323,114.855485,-9437.292334
2093.277748,38.285162,114.855485,-9418.149754
2093.278375,95.712904,95.712904,-9399.007173
2093.279002,76.570323,172.283227,-9360.722011
2093.279630,76.570323,114.855485,-9418.149754
2093.280257,133.998066,133.998066,-9399.007173
2093.280885,76.570323,114.855485,-9418.149754
2093.281512,133.998066,191.425808,-9418.149754
2093.282140,153.140646,210.568389,-9418.149754
2093.282767,76.570323,114.855485,-9456.434915
2093.283395,133.998066,153.140646,-9475.577496
2093.284022,76.570323,114.855485,-9475.577496
2093.284649,133.998066,114.855485,-9418.149754
2093.285277,133.998066,191.425808,-9437.292334
2093.285904,133.998066,210.568389,-9418.149754
2093.286532,38.285162,210.568389,-9437.292334
2093.287159,95.712904,172.283227,-9437.292334
2093.287787,153.140646,172.283227,-9418.149754
2093.288414,172.283227,133.998066,-9456.434915
2093.289042,76.570323,172.283227,-9456.434915
2093.289669,95.712904,153.140646,-9418.149754
2093.290297,38.285162,114.855485,-9418.149754
2093.290924,76.570323,153.140646,-9418.149754
2093.291551,133.998066,153.140646,-9456.434915
2093.292179,133.998066,114.855485,-9475.577496
2093.292806,133.998066,172.283227,-9456.434915
2093.293434,153.140646,133.998066,-9456.434915
2093.294061,76.570323,114.855485,-9418.149754
2093.294689,38.285162,114.855485,-9456.434915
2093.295316,76.570323,114.855485,-9418.149754
2093.295944,38.285162,172.283227,-9418.149754
2093.296571,38.285162,114.855485,-9418.149754
2093.297199,76.570323,172.283227,-9418.149754
2093.297826,38.285162,114.855485,-9418.149754
2093.298453,76.570323,210.568389,-9418.149754
2093.299081,133.998066,153.140646,-9494.720077
2093.299708,133.998066,172.283227,-9475.577496
2093.300336,133.998066,114.855485,-9418.149754
2093.300963,19.142581,172.283227,-9437.292334
2093.301591,133.998066,191.425808,-9418.149754
2093.302218,153.140646,133.998066,-9456.434915
2093.302846,133.998066,114.855485,-9437.292334
2093.303473,57.427742,172.283227,-9418.149754
2093.304101,76.570323,95.712904,-9399.007173
2093.304728,57.427742,95.712904,-9399.007173
2093.305355,76.570323,153.140646,-9437.292334
2093.305983,210.568389,172.283227,-9399.007173
2093.306610,76.570323,114.855485,-9418.149754
2093.307238,76.570323,114.855485,-9418.149754
2093.307865,95.712904,114.855485,-9456.434915
2093.308493,133.998066,133.998066,-9437.292334
2093.309120,133.998066,153.140646,-9418.149754
2093.309748,133.998066,172.283227,-9418.149754
2093.310375,133.998066,114.855485,-9456.434915
2093.311003,133.998066,153.140646,-9399.007173
2093.311630,38.285162,172.283227,-9437.292334
2093.312257,95.712904,95.712904,-9456.434915
2093.312885,38.285162,114.855485,-9418.149754
2093.313512,114.855485,153.140646,-9360.722011
2093.314140,133.998066,172.283227,-9456.434915
2093.314767,133.998066,153.140646,-9418.149754
2093.315395,95.712904,229.710970,-9399.007173
2093.316022,76.570323,172.283227,-9418.149754
2093.316650,133.998066,114.855485,-9418.149754
2093.317277,76.570323,114.855485,-9418.149754
2093.317905,133.998066,114.855485,-9418.149754
2093.318532,114.855485,114.855485,-9399.007173
2093.319159,133.998066,114.855485,-9418.149754
2093.319787,153.140646,95.712904,-9418.149754
2093.320414,133.998066,153.140646,-9437.292334
2093.321042,76.570323,172.283227,-9475.577496
2093.321669,133.998066,114.855485,-9418.149754
2093.322297,76.570323,114.855485,-9437.292334
2093.322924,38.285162,114.855485,-9456.434915
2093.323552,38.285162,153.140646,-9418.149754
2093.324179,38.285162,153.140646,-9418.149754
2093.324807,76.570323,114.855485,-9418.149754
2093.325434,114.855485,76.570323,-9533.005238
2093.326062,133.998066,153.140646,-9475.577496
2093.326689,76.570323,114.855485,-9456.434915
2093.327317,133.998066,114.855485,-9456.434915
2093.327944,133.998066,114.855485,-9456.434915
2093.328572,57.427742,172.283227,-9360.722011
2093.329199,76.570323,191.425808,-9418.149754
2093.329827,133.998066,114.855485,-9418.149754
2093.330454,95.712904,133.998066,-9360.722011
2093.331082,133.998066,114.855485,-9418.149754
2093.331709,76.570323,114.855485,-9418.149754
2093.332337,76.570323,114.855485,-9418.149754
2093.332964,38.285162,114.855485,-9418.149754
2093.333592,95.712904,95.712904,-9513.862658
2093.334219,133.998066,172.283227,-9418.149754
2093.334847,133.998066,172.283227,-9418.149754
2093.335474,133.998066,114.855485,-9418.149754
2093.336101,133.998066,114.855485,-9418.149754
2093.336729,133.998066,210.568389,-9418.149754
2093.337356,76.570323,210.568389,-9418.149754
2093.337984,76.570323,114.855485,-9418.149754
2093.338611,76.570323,114.855485,-9418.149754
2093.339239,38.285162,114.855485,-9456.434915
2093.339866,76.570323,114.855485,-9437.292334
2093.340494,76.570323,114.855485,-9437.292334
2093.341121,76.570323,114.855485,-9437.292334
2093.341749,172.283227,76.570323,-9360.722011
2093.342376,19.142581,114.855485,-9418.149754
2093.343004,76.570323,114.855485,-9418.149754
2093.343631,95.712904,133.998066,-9379.864592
2093.344259,76.570323,114.855485,-9418.149754
2093.344886,38.285162,210.568389,-9418.149754
2093.345514,133.998066,153.140646,-9437.292334
2093.346141,76.570323,114.855485,-9418.149754
2093.346769,114.855485,153.140646,-9360.722011
2093.347396,133.998066,114.855485,-9418.149754
2093.348024,114.855485,133.998066,-9360.722011
2093.348651,95.712904,210.568389,-9437.292334
2093.349279,133.998066,114.855485,-9437.292334
2093.349906,133.998066,153.140646,-9399.007173
2093.350534,38.285162,114.855485,-9418.149754
2093.351161,76.570323,114.855485,-9418.149754
2093.351788,95.712904,114.855485,-9475.577496
2093.352416,76.570323,114.855485,-9418.149754
2093.353043,76.570323,114.855485,-9494.720077
2093.353671,76.570323,114.855485,-9418.149754
2093.354298,133.998066,153.140646,-9418.149754
2093.354926,114.855485,95.712904,-9456.434915
2093.355553,57.427742,114.855485,-9475.577496
2093.356181,133.998066,114.855485,-9475.577496
2093.356808,133.998066,114.855485,-9475.577496
2093.357436,153.140646,172.283227,-9399.007173
2093.358063,133.998066,153.140646,-9437.292334
2093.358691,76.570323,153.140646,-9418.149754
2093.359318,76.570323,172.283227,-9418.149754
2093.359946,38.285162,114.855485,-9418.149754
2093.360573,38.285162,172.283227,-9418.149754
2093.361201,95.712904,153.140646,-9494.720077
2093.361828,133.998066,133.998066,-9399.007173
2093.362456,153.140646,133.998066,-9399.007173
2093.363083,76.570323,76.570323,-9379.864592
2093.363711,133.998066,114.855485,-9418.149754
2093.364338,114.855485,95.712904,-9437.292334
2093.364966,133.998066,114.855485,-9437.292334
2093.365593,133.998066,114.855485,-9418.149754
2093.366221,133.998066,114.855485,-9437.292334
2093.366848,76.570323,172.283227,-9533.005238
2093.367475,95.712904,95.712904,-9399.007173
2093.368103,76.570323,114.855485,-9456.434915
2093.368730,38.285162,172.283227,-9456.434915
2093.369358,38.285162,153.140646,-9418.149754
2093.369985,133.998066,172.283227,-9418.149754
2093.370613,133.998066,114.855485,-9418.149754
2093.371240,153.140646,172.283227,-9494.720077
2093.371868,133.998066,114.855485,-9418.149754
2093.372495,76.570323,114.855485,-9418.149754
