#time,accel_x,accel_y,accel_z
2125.830141,76.570323,114.855485,-9437.292334
2125.830769,114.855485,95.712904,-9456.434915
2125.831396,38.285162,114.855485,-9456.434915
2125.832024,76.570323,114.855485,-9418.149754
2125.832651,38.285162,114.855485,-9437.292334
2125.833279,133.998066,114.855485,-9418.149754
2125.833906,76.570323,172.283227,-9418.149754
2125.834534,133.998066,172.283227,-9418.149754
2125.835162,133.998066,114.855485,-9418.149754
2125.835789,95.712904,114.855485,-9456.434915
2125.836417,57.427742,95.712904,-9399.007173
2125.837044,133.998066,133.998066,-9399.007173
2125.837672,76.570323,114.855485,-9418.149754
2125.838299,76.570323,210.568389,-9418.149754
2125.838927,38.285162,153.140646,-9418.149754
2125.839554,76.570323,114.855485,-9418.149754
2125.840182,76.570323,210.568389,-9418.149754
2125.840810,95.712904,172.283227,-9475.577496
2125.841437,95.712904,153.140646,-9418.149754
2125.842065,133.998066,210.568389,-9418.149754
2125.842692,153.140646,153.140646,-9418.149754
2125.843320,95.712904,133.998066,-9418.149754
2125.843947,76.570323,114.855485,-9418.149754
2125.844575,133.998066,153.140646,-9456.434915
2125.845203,133.998066,172.283227,-9494.720077
2125.845830,95.712904,172.283227,-9360.722011
2125.846458,133.998066,153.140646,-9494.720077
2125.847085,133.998066,114.855485,-9418.149754
2125.847713,95.712904,95.712904,-9399.007173
2125.848340,38.285162,210.568389,-9437.292334
2125.848968,133.998066,114.855485,-9475.577496
2125.849596,133.998066,114.855485,-9418.149754
2125.850223,114.855485,133.998066,-9360.722011
2125.850851,76.570323,114.855485,-9437.292334
2125.851478,76.570323,114.855485,-9494.720077
2125.852106,153.140646,172.283227,-9456.434915
2125.852733,95.712904,153.140646,-9456.434915
2125.853361,76.570323,172.283227,-9418.149754
2125.853988,95.712904,172.283227,-9418.149754
2125.854616,133.998066,172.283227,-9456.434915
2125.855244,133.998066,114.855485,-9456.434915
2125.855871,133.998066,114.855485,-9418.149754
2125.856499,76.570323,114.855485,-9437.292334
2125.857126,95.712904,95.712904,-9494.720077
2125.857754,76.570323,114.855485,-9437.292334
2125.858381,133.998066,210.568389,-9437.292334
2125.859009,133.998066,210.568389,-9456.434915
2125.859637,133.998066,172.283227,-9418.149754
2125.860264,133.998066,114.855485,-9437.292334
2125.860892,133.998066,191.425808,-9418.149754
2125.861519,76.570323,114.855485,-9418.149754
2125.862147,76.570323,172.283227,-9418.149754
2125.862774,38.285162,172.283227,-9418.149754
2125.863402,38.285162,114.855485,-9418.149754
2125.864029,133.998066,172.283227,-9418.149754
2125.864657,76.570323,114.855485,-9456.434915
2125.865285,76.570323,114.855485,-9437.292334
2125.865912,133.998066,172.283227,-9437.292334
2125.866540,76.570323,95.712904,-9399.007173
2125.867167,38.285162,133.998066,-9379.864592
2125.867795,133.998066,172.283227,-9418.149754
2125.868422,38.285162,114.855485,-9418.149754
2125.869050,133.998066,114.855485,-9418.149754
2125.869678,95.712904,95.712904,-9399.007173
2125.870305,95.712904,95.712904,-9399.007173
2125.870933,133.998066,172.283227,-9418.149754
2125.871560,76.570323,114.855485,-9456.434915
2125.872188,133.998066,114.855485,-9418.149754
2125.872815,76.570323,114.855485,-9418.149754
2125.873443,153.140646,133.998066,-9513.862658
2125.874070,76.570323,153.140646,-9418.149754
2125.874698,133.998066,114.855485,-9456.434915
2125.875326,133.998066,172.283227,-9475.577496
2125.875953,95.712904,172.283227,-9418.149754
2125.876581,133.998066,210.568389,-9456.434915
2125.877208,133.998066,210.568389,-9418.149754
2125.877836,153.140646,153.140646,-9418.149754
2125.878463,95.712904,210.568389,-9418.149754
2125.879091,191.425808,114.855485,-9379.864592
2125.879719,133.998066,153.140646,-9456.434915
2125.880346,76.570323,210.568389,-9437.292334
2125.880974,76.570323,172.283227,-9418.149754
2125.881601,133.998066,114.855485,-9418.149754
2125.882229,76.570323,153.140646,-9475.577496
2125.882856,76.570323,172.283227,-9418.149754
2125.883484,133.998066,229.710970,-9418.149754
2125.884112,76.570323,114.855485,-9418.149754
2125.884739,76.570323,153.140646,-9418.149754
2125.885367,19.142581,114.855485,-9418.149754
2125.885994,38.285162,172.283227,-9418.149754
2125.886622,95.712904,95.712904,-9456.434915
2125.887250,95.712904,95.712904,-9456.434915
2125.887877,38.285162,114.855485,-9418.149754
2125.888505,38.285162,210.568389,-9418.149754
2125.889132,76.570323,114.855485,-9475.577496
2125.889760,133.998066,114.855485,-9418.149754
2125.890388,95.712904,95.712904,-9475.577496
2125.891015,38.285162,114.855485,-9456.434915
2125.891643,95.712904,172.283227,-9360.722011
2125.892270,153.140646,172.283227,-9418.149754
2125.892898,133.998066,114.855485,-9418.149754
2125.893526,153.140646,133.998066,-9399.007173
2125.894153,114.855485,95.712904,-9399.007173
2125.894781,133.998066,114.855485,-9475.577496
2125.895408,153.140646,153.140646,-9399.007173
2125.896036,133.998066,153.140646,-9437.292334
2125.896664,133.998066,153.140646,-9418.149754
2125.897291,153.140646,191.425808,-9456.434915
2125.897919,114.855485,229.710970,-9437.292334
2125.898546,76.570323,114.855485,-9437.292334
2125.899174,133.998066,114.855485,-9418.149754
2125.899802,76.570323,114.855485,-9437.292334
2125.900429,76.570323,114.855485,-9437.292334
2125.901057,76.570323,172.283227,-9456.434915
2125.901685,76.570323,172.283227,-9475.577496
2125.902312,95.712904,133.998066,-9418.149754
2125.902940,153.140646,153.140646,-9399.007173
2125.903567,153.140646,133.998066,-9399.007173
2125.904195,133.998066,133.998066,-9399.007173
2125.904823,76.570323,114.855485,-9437.292334
2125.905450,133.998066,114.855485,-9418.149754
2125.906078,76.570323,153.140646,-9418.149754
2125.906705,133.998066,172.283227,-9418.149754
2125.907333,76.570323,172.283227,-9418.149754
2125.907961,38.285162,114.855485,-9437.292334
2125.908588,133.998066,114.855485,-9437.292334
2125.909216,133.998066,114.855485,-9418.149754
2125.909843,76.570323,114.855485,-9437.292334
2125.910471,95.712904,172.283227,-9418.149754
2125.911099,76.570323,172.283227,-9456.434915
2125.911726,95.712904,210.568389,-9437.292334
2125.912354,133.998066,172.283227,-9494.720077
2125.912981,153.140646,133.998066,-9399.007173
2125.913609,133.998066,191.425808,-9418.149754
2125.914237,76.570323,172.283227,-9456.434915
2125.914864,95.712904,114.855485,-9437.292334
2125.915492,95.712904,191.425808,-9341.579430
2125.916119,95.712904,114.855485,-9418.149754
2125.916747,133.998066,114.855485,-9437.292334
2125.917375,95.712904,133.998066,-9533.005238
2125.918002,133.998066,114.855485,-9418.149754
2125.918630,133.998066,172.283227,-9418.149754
2125.919257,76.570323,172.283227,-9418.149754
2125.919885,76.570323,114.855485,-9456.434915
2125.920513,153.140646,153.140646,-9399.007173
2125.921140,57.427742,133.998066,-9360.722011
2125.921768,133.998066,114.855485,-9437.292334
2125.922395,95.712904,133.998066,-9341.579430
2125.923023,133.998066,133.998066,-9379.864592
2125.923651,76.570323,114.855485,-9418.149754
2125.924278,95.712904,114.855485,-9437.292334
2125.924906,38.285162,153.140646,-9418.149754
2125.925533,38.285162,114.855485,-9418.149754
2125.926161,95.712904,95.712904,-9456.434915
2125.926789,76.570323,114.855485,-9437.292334
2125.927416,57.427742,95.712904,-9399.007173
2125.928044,76.570323,114.855485,-9418.149754
2125.928671,76.570323,114.855485,-9437.292334
2125.929299,38.285162,172.283227,-9418.149754
2125.929927,133.998066,114.855485,-9418.149754
2125.930554,114.855485,95.712904,-9437.292334
2125.931182,133.998066,210.568389,-9418.149754
2125.931810,172.283227,153.140646,-9379.864592
2125.932437,57.427742,114.855485,-9418.149754
2125.933065,38.285162,114.855485,-9456.434915
2125.933692,38.285162,210.568389,-9418.149754
2125.934320,95.712904,114.855485,-9456.434915
2125.934948,76.570323,114.855485,-9456.434915
2125.935575,153.140646,133.998066,-9494.720077
2125.936203,133.998066,229.710970,-9494.720077
2125.936830,76.570323,114.855485,-9456.434915
2125.937458,133.998066,114.855485,-9418.149754
2125.938086,133.998066,114.855485,-9418.149754
2125.938713,38.285162,210.568389,-9418.149754
2125.939341,76.570323,133.998066,-9360.722011
2125.939968,95.712904,133.998066,-9360.722011
2125.940596,76.570323,114.855485,-9418.149754
2125.941224,76.570323,114.855485,-9437.292334
2125.941851,76.570323,172.283227,-9418.149754
2125.942479,76.570323,153.140646,-9418.149754
2125.943106,38.285162,114.855485,-9456.434915
2125.943734,57.427742,95.712904,-9399.007173
2125.944362,95.712904,95.712904,-9399.007173
2125.944989,76.570323,229.710970,-9437.292334
2125.945617,153.140646,153.140646,-9399.007173
2125.946244,95.712904,153.140646,-9418.149754
2125.946872,114.855485,95.712904,-9399.007173
2125.947500,95.712904,95.712904,-9399.007173
2125.948127,133.998066,114.855485,-9418.149754
2125.948755,153.140646,114.855485,-9456.434915
2125.949382,133.998066,133.998066,-9379.864592
2125.950010,95.712904,172.283227,-9360.722011
2125.950638,133.998066,172.283227,-9437.292334
2125.951265,133.998066,114.855485,-9418.149754
2125.951893,133.998066,114.855485,-9437.292334
2125.952520,133.998066,114.855485,-9418.149754
2125.953148,133.998066,172.283227,-9418.149754
2125.953776,76.570323,153.140646,-9456.434915
2125.954403,76.570323,114.855485,-9418.149754
2125.955031,76.570323,172.283227,-9360.722011
2125.955658,153.140646,133.998066,-9399.007173
2125.956286,95.712904,95.712904,-9513.862658
2125.956914,76.570323,153.140646,-9475.577496
2125.957541,38.285162,172.283227,-9475.577496
2125.958169,76.570323,210.568389,-9418.149754
2125.958796,133.998066,114.855485,-9418.149754
2125.959424,76.570323,172.283227,-9418.149754
2125.960052,133.998066,114.855485,-9437.292334
2125.960679,38.285162,153.140646,-9418.149754
2125.961307,153.140646,133.998066,-9399.007173
2125.961935,133.998066,153.140646,-9418.149754
2125.962562,57.427742,95.712904,-9399.007173
2125.963190,38.285162,114.855485,-9456.434915
2125.963817,95.712904,114.855485,-9418.149754
2125.964445,76.570323,114.855485,-9437.292334
2125.965073,76.570323,114.855485,-9418.149754
2125.965700,76.570323,95.712904,-9399.007173
2125.966328,133.998066,114.855485,-9360.722011
2125.966955,76.570323,114.855485,-9437.292334
2125.967583,153.140646,133.998066,-9399.007173
2125.968211,38.285162,153.140646,-9418.149754
2125.968838,57.427742,95.712904,-9399.007173
2125.969466,133.998066,114.855485,-9437.292334
2125.970093,153.140646,133.998066,-9399.007173
2125.970721,133.998066,95.712904,-9456.434915
2125.971349,133.998066,153.140646,-9456.434915
2125.971976,133.998066,153.140646,-9456.434915
2125.972604,153.140646,210.568389,-9437.292334
2125.973231,172.283227,114.855485,-9379.864592
2125.973859,153.140646,133.998066,-9399.007173
2125.974487,133.998066,114.855485,-9475.577496
2125.975114,133.998066,114.855485,-9418.149754
2125.975742,95.712904,95.712904,-9399.007173
2125.976369,57.427742,133.998066,-9360.722011
2125.976997,133.998066,114.855485,-9456.434915
2125.977625,38.285162,172.283227,-9418.149754
2125.978252,76.570323,229.710970,-9418.149754
2125.978880,133.998066,114.855485,-9418.149754
2125.979507,133.998066,172.283227,-9418.149754
2125.980135,133.998066,172.283227,-9399.007173
2125.980763,133.998066,114.855485,-9418.149754
2125.981390,153.140646,153.140646,-9399.007173
2125.982018,76.570323,153.140646,-9418.149754
2125.982645,95.712904,133.998066,-9360.722011
2125.983273,0.000000,172.283227,-9360.722011
2125.983902,38.285162,172.283227,-9456.434915
2125.984530,76.570323,153.140646,-9418.149754
2125.985158,95.712904,172.283227,-9360.722011
2125.985786,133.998066,76.570323,-9399.007173
2125.986414,95.712904,210.568389,-9418.149754
2125.987042,76.570323,153.140646,-9437.292334
2125.987670,38.285162,114.855485,-9418.149754
2125.988298,133.998066,114.855485,-9437.292334
2125.988926,133.998066,114.855485,-9418.149754
2125.989554,95.712904,153.140646,-9418.149754
2125.990182,133.998066,172.283227,-9456.434915
2125.990810,76.570323,172.283227,-9437.292334
2125.991438,95.712904,114.855485,-9418.149754
2125.992066,153.140646,133.998066,-9456.434915
2125.992694,76.570323,172.283227,-9418.149754
2125.993322,76.570323,210.568389,-9418.149754
2125.993950,76.570323,114.855485,-9456.434915
2125.994578,114.855485,172.283227,-9418.149754
2125.995206,114.855485,133.998066,-9360.722011
2125.995834,76.570323,114.855485,-9456.434915
2125.996462,133.998066,191.425808,-9456.434915
2125.997090,133.998066,114.855485,-9475.577496
2125.997718,76.570323,114.855485,-9494.720077
2125.998346,76.570323,172.283227,-9475.577496
2125.998974,76.570323,114.855485,-9418.149754
2125.999602,133.998066,172.283227,-9418.149754
2126.000230,153.140646,133.998066,-9437.292334
2126.000858,76.570323,172.283227,-9418.149754
2126.001487,76.570323,76.570323,-9379.864592
2126.002115,114.855485,95.712904,-9399.007173
2126.002743,38.285162,114.855485,-9418.149754
2126.003371,172.283227,114.855485,-9379.864592
2126.003999,133.998066,172.283227,-9418.149754
2126.004627,76.570323,153.140646,-9437.292334
2126.005255,133.998066,76.570323,-9379.864592
2126.005883,133.998066,133.998066,-9456.434915
2126.006511,95.712904,95.712904,-9399.007173
2126.007139,114.855485,57.427742,-9494.720077
2126.007767,57.427742,95.712904,-9399.007173
2126.008395,38.285162,114.855485,-9475.577496
2126.009023,114.855485,114.855485,-9494.720077
2126.009651,133.998066,172.283227,-9456.434915
2126.010279,76.570323,114.855485,-9437.292334
2126.010907,133.998066,114.855485,-9475.577496
2126.011535,153.140646,172.283227,-9399.007173
2126.012163,114.855485,114.855485,-9456.434915
2126.012791,76.570323,114.855485,-9418.149754
2126.013419,38.285162,153.140646,-9456.434915
2126.014047,95.712904,153.140646,-9360.722011
2126.014675,133.998066,210.568389,-9437.292334
2126.015303,57.427742,153.140646,-9360.722011
2126.015931,76.570323,172.283227,-9418.149754
2126.016559,76.570323,153.140646,-9437.292334
2126.017187,133.998066,114.855485,-9437.292334
2126.017815,76.570323,114.855485,-9437.292334
2126.018443,76.570323,114.855485,-9418.149754
2126.019072,76.570323,114.855485,-9418.149754
2126.019700,133.998066,191.425808,-9418.149754
2126.020328,95.712904,153.140646,-9418.149754
2126.020956,38.285162,153.140646,-9437.292334
2126.021584,38.285162,114.855485,-9418.149754
2126.022212,38.285162,172.283227,-9418.149754
2126.022840,95.712904,172.283227,-9360.722011
2126.023468,95.712904,114.855485,-9475.577496
2126.024096,38.285162,114.855485,-9418.149754
2126.024724,38.285162,114.855485,-9437.292334
2126.025352,133.998066,114.855485,-9418.149754
2126.025980,38.285162,114.855485,-9360.722011
2126.026608,133.998066,114.855485,-9437.292334
2126.027236,76.570323,114.855485,-9418.149754
2126.027864,76.570323,114.855485,-9418.149754
2126.028492,76.570323,172.283227,-9437.292334
2126.029120,76.570323,210.568389,-9418.149754
2126.029748,172.283227,76.570323,-9475.577496
2126.030376,133.998066,172.283227,-9494.720077
2126.031004,153.140646,133.998066,-9399.007173
2126.031632,95.712904,95.712904,-9494.720077
2126.032260,76.570323,114.855485,-9475.577496
2126.032888,153.140646,248.853550,-9437.292334
2126.033516,153.140646,133.998066,-9399.007173
2126.034144,114.855485,114.855485,-9399.007173
2126.034772,76.570323,153.140646,-9494.720077
2126.035400,76.570323,95.712904,-9494.720077
2126.036028,38.285162,210.568389,-9475.577496
2126.036657,95.712904,153.140646,-9456.434915
2126.037285,76.570323,172.283227,-9456.434915
2126.037913,38.285162,114.855485,-9418.149754
2126.038541,76.570323,172.283227,-9418.149754
2126.039169,95.712904,114.855485,-9418.149754
2126.039797,133.998066,153.140646,-9418.149754
2126.040425,57.427742,133.998066,-9418.149754
2126.041053,133.998066,114.855485,-9418.149754
2126.041681,133.998066,114.855485,-9418.149754
2126.042309,38.285162,114.855485,-9456.434915
2126.042937,57.427742,172.283227,-9418.149754
2126.043565,38.285162,172.283227,-9437.292334
2126.044193,76.570323,76.570323,-9379.864592
2126.044821,76.570323,114.855485,-9418.149754
2126.045449,114.855485,95.712904,-9494.720077
2126.046077,76.570323,114.855485,-9418.149754
2126.046705,133.998066,114.855485,-9437.292334
2126.047333,133.998066,114.855485,-9418.149754
2126.047961,133.998066,114.855485,-9418.149754
2126.048589,114.855485,95.712904,-9456.434915
2126.049217,76.570323,153.140646,-9418.149754
2126.049845,133.998066,210.568389,-9418.149754
2126.050473,153.140646,114.855485,-9418.149754
2126.051101,133.998066,153.140646,-9437.292334
2126.051729,76.570323,172.283227,-9418.149754
2126.052357,133.998066,172.283227,-9456.434915
2126.052985,76.570323,172.283227,-9418.149754
2126.053613,76.570323,210.568389,-9418.149754
2126.054241,95.712904,172.283227,-9360.722011
2126.054870,133.998066,153.140646,-9418.149754
2126.055498,133.998066,114.855485,-9418.149754
2126.056126,95.712904,191.425808,-9418.149754
2126.056754,133.998066,191.425808,-9399.007173
2126.057382,133.998066,153.140646,-9418.149754
2126.058010,133.998066,114.855485,-9418.149754
2126.058638,76.570323,153.140646,-9418.149754
2126.059266,57.427742,172.283227,-9418.149754
2126.059894,76.570323,114.855485,-9456.434915
2126.060522,76.570323,153.140646,-9437.292334
2126.061150,133.998066,114.855485,-9418.149754
2126.061778,38.285162,114.855485,-9418.149754
2126.062406,57.427742,95.712904,-9379.864592
2126.063034,133.998066,114.855485,-9418.149754
2126.063662,133.998066,153.140646,-9399.007173
2126.064290,76.570323,153.140646,-9418.149754
2126.064918,133.998066,114.855485,-9418.149754
2126.065546,95.712904,95.712904,-9399.007173
2126.066174,114.855485,133.998066,-9418.149754
2126.066802,95.712904,114.855485,-9456.434915
2126.067430,133.998066,153.140646,-9475.577496
2126.068058,133.998066,153.140646,-9437.292334
2126.068686,133.998066,153.140646,-9456.434915
2126.069314,95.712904,114.855485,-9418.149754
2126.069942,133.998066,172.283227,-9494.720077
2126.070570,133.998066,172.283227,-9475.577496
2126.071198,133.998066,172.283227,-9418.149754
2126.071826,133.998066,229.710970,-9418.149754
2126.072455,114.855485,191.425808,-9360.722011
2126.073083,133.998066,153.140646,-9475.577496
2126.073711,133.998066,114.855485,-9418.149754
2126.074339,76.570323,114.855485,-9418.149754
2126.074967,95.712904,114.855485,-9360.722011
2126.075595,133.998066,114.855485,-9418.149754
2126.076223,76.570323,114.855485,-9437.292334
2126.076851,133.998066,114.855485,-9418.149754
2126.077479,76.570323,153.140646,-9418.149754
2126.078107,76.570323,114.855485,-9418.149754
2126.078735,133.998066,172.283227,-9418.149754
2126.079363,38.285162,172.283227,-9437.292334
2126.079991,95.712904,172.283227,-9456.434915
2126.080619,172.283227,114.855485,-9379.864592
2126.081247,76.570323,114.855485,-9418.149754
2126.081875,76.570323,114.855485,-9418.149754
2126.082503,133.998066,114.855485,-9418.149754
2126.083131,76.570323,114.855485,-9456.434915
2126.083759,133.998066,114.855485,-9418.149754
2126.084387,114.855485,95.712904,-9399.007173
2126.085015,76.570323,114.855485,-9456.434915
2126.085643,76.570323,153.140646,-9456.434915
2126.086271,76.570323,114.855485,-9418.149754
2126.086899,76.570323,172.283227,-9437.292334
2126.087527,133.998066,172.283227,-9399.007173
2126.088155,38.285162,114.855485,-9418.149754
2126.088783,76.570323,210.568389,-9418.149754
2126.089412,133.998066,210.568389,-9418.149754
2126.090040,38.285162,172.283227,-9418.149754
2126.090668,95.712904,114.855485,-9418.149754
2126.091296,133.998066,191.425808,-9494.720077
2126.091924,76.570323,114.855485,-9437.292334
2126.092552,133.998066,114.855485,-9437.292334
2126.093180,153.140646,153.140646,-9399.007173
2126.093808,76.570323,114.855485,-9456.434915
2126.094436,76.570323,153.140646,-9437.292334
2126.095064,133.998066,172.283227,-9418.149754
2126.095692,133.998066,114.855485,-9437.292334
2126.096320,76.570323,114.855485,-9475.577496
2126.096948,133.998066,210.568389,-9418.149754
2126.097576,153.140646,114.855485,-9418.149754
2126.098204,76.570323,114.855485,-9418.149754
2126.098832,76.570323,114.855485,-9360.722011
2126.099460,76.570323,114.855485,-9418.149754
2126.100088,133.998066,114.855485,-9418.149754
2126.100716,114.855485,95.712904,-9399.007173
2126.101345,76.570323,114.855485,-9456.434915
2126.101973,57.427742,95.712904,-9399.007173
2126.102601,114.855485,95.712904,-9399.007173
2126.103229,76.570323,172.283227,-9418.149754
2126.103857,133.998066,133.998066,-9399.007173
2126.104485,76.570323,172.283227,-9475.577496
2126.105113,153.140646,133.998066,-9399.007173
2126.105741,95.712904,95.712904,-9399.007173
2126.106369,153.140646,114.855485,-9418.149754
2126.106997,76.570323,153.140646,-9418.149754
2126.107625,133.998066,172.283227,-9437.292334
2126.108253,114.855485,114.855485,-9437.292334
2126.108881,114.855485,114.855485,-9399.007173
2126.109509,133.998066,153.140646,-9437.292334
2126.110137,153.140646,133.998066,-9399.007173
2126.110765,95.712904,172.283227,-9418.149754
2126.111393,76.570323,153.140646,-9437.292334
2126.112021,133.998066,210.568389,-9418.149754
2126.112649,133.998066,153.140646,-9456.434915
2126.113278,133.998066,210.568389,-9456.434915
2126.113906,76.570323,229.710970,-9437.292334
2126.114534,38.285162,191.425808,-9494.720077
2126.115162,76.570323,210.568389,-9418.149754
2126.115790,76.570323,172.283227,-9418.149754
2126.116418,57.427742,114.855485,-9418.149754
2126.117046,133.998066,114.855485,-9418.149754
2126.117674,153.140646,133.998066,-9456.434915
2126.118302,133.998066,114.855485,-9437.292334
2126.118930,114.855485,133.998066,-9360.722011
2126.119558,114.855485,95.712904,-9399.007173
2126.120186,133.998066,114.855485,-9418.149754
2126.120814,133.998066,133.998066,-9399.007173
2126.121442,95.712904,114.855485,-9418.149754
2126.122070,153.140646,133.998066,-9399.007173
2126.122698,76.570323,114.855485,-9418.149754
2126.123326,133.998066,114.855485,-9418.149754
2126.123954,76.570323,114.855485,-9456.434915
2126.124582,76.570323,172.283227,-9418.149754
2126.125210,76.570323,153.140646,-9437.292334
2126.125839,95.712904,114.855485,-9437.292334
2126.126467,114.855485,133.998066,-9360.722011
2126.127095,153.140646,153.140646,-9399.007173
2126.127723,133.998066,95.712904,-9418.149754
2126.128351,114.855485,95.712904,-9475.577496
2126.128979,76.570323,114.855485,-9418.149754
2126.129607,114.855485,133.998066,-9360.722011
2126.130235,133.998066,172.283227,-9418.149754
2126.130863,133.998066,153.140646,-9437.292334
2126.131491,76.570323,114.855485,-9456.434915
2126.132119,76.570323,114.855485,-9418.149754
2126.132747,133.998066,153.140646,-9437.292334
2126.133375,133.998066,114.855485,-9475.577496
2126.134003,133.998066,210.568389,-9418.149754
2126.134631,114.855485,172.283227,-9456.434915
2126.135259,38.285162,114.855485,-9437.292334
2126.135887,76.570323,114.855485,-9437.292334
2126.136515,153.140646,133.998066,-9399.007173
2126.137143,19.142581,153.140646,-9399.007173
2126.137772,76.570323,133.998066,-9360.722011
2126.138400,76.570323,172.283227,-9418.149754
2126.139028,95.712904,95.712904,-9399.007173
2126.139656,114.855485,95.712904,-9399.007173
2126.140284,133.998066,133.998066,-9399.007173
2126.140912,76.570323,114.855485,-9418.149754
2126.141540,114.855485,95.712904,-9399.007173
2126.142168,76.570323,114.855485,-9418.149754
2126.142796,76.570323,172.283227,-9418.149754
2126.143424,153.140646,133.998066,-9399.007173
2126.144052,172.283227,76.570323,-9418.149754
2126.144680,133.998066,114.855485,-9437.292334
2126.145308,153.140646,191.425808,-9399.007173
2126.145936,133.998066,210.568389,-9437.292334
2126.146564,133.998066,172.283227,-9513.862658
2126.147192,95.712904,114.855485,-9418.149754
2126.147820,133.998066,114.855485,-9437.292334
2126.148448,133.998066,114.855485,-9533.005238
2126.149076,153.140646,172.283227,-9437.292334
2126.149705,133.998066,114.855485,-9418.149754
2126.150333,133.998066,210.568389,-9475.577496
2126.150961,133.998066,172.283227,-9456.434915
2126.151589,76.570323,114.855485,-9456.434915
2126.152217,76.570323,172.283227,-9418.149754
2126.152845,153.140646,133.998066,-9399.007173
2126.153473,95.712904,114.855485,-9418.149754
2126.154101,95.712904,133.998066,-9360.722011
2126.154729,76.570323,172.283227,-9360.722011
2126.155357,133.998066,114.855485,-9418.149754
2126.155985,210.568389,153.140646,-9399.007173
2126.156613,76.570323,114.855485,-9418.149754
2126.157241,38.285162,114.855485,-9456.434915
2126.157869,38.285162,114.855485,-9418.149754
2126.158497,76.570323,114.855485,-9418.149754
2126.159125,76.570323,114.855485,-9418.149754
2126.159753,133.998066,76.570323,-9379.864592
2126.160381,95.712904,210.568389,-9437.292334
2126.161009,95.712904,114.855485,-9418.149754
2126.161638,95.712904,95.712904,-9456.434915
2126.162266,76.570323,114.855485,-9418.149754
2126.162894,76.570323,114.855485,-9456.434915
2126.163522,114.855485,95.712904,-9399.007173
2126.164150,133.998066,153.140646,-9418.149754
2126.164778,38.285162,114.855485,-9494.720077
2126.165406,133.998066,114.855485,-9475.577496
2126.166034,133.998066,114.855485,-9418.149754
2126.166662,114.855485,114.855485,-9456.434915
2126.167290,153.140646,153.140646,-9456.434915
2126.167918,153.140646,172.283227,-9399.007173
2126.168546,133.998066,210.568389,-9437.292334
2126.169174,76.570323,172.283227,-9456.434915
2126.169802,76.570323,114.855485,-9418.149754
2126.170430,133.998066,114.855485,-9456.434915
2126.171058,133.998066,114.855485,-9418.149754
2126.171686,114.855485,191.425808,-9360.722011
2126.172314,76.570323,172.283227,-9418.149754
2126.172942,76.570323,153.140646,-9418.149754
2126.173571,76.570323,153.140646,-9418.149754
2126.174199,76.570323,191.425808,-9418.149754
2126.174827,95.712904,153.140646,-9418.149754
2126.175455,114.855485,229.710970,-9399.007173
2126.176083,95.712904,133.998066,-9360.722011
2126.176711,76.570323,114.855485,-9418.149754
2126.177339,76.570323,114.855485,-9418.149754
2126.177967,76.570323,114.855485,-9418.149754
2126.178595,76.570323,114.855485,-9418.149754
2126.179223,76.570323,153.140646,-9418.149754
2126.179851,38.285162,114.855485,-9437.292334
2126.180479,76.570323,153.140646,-9418.149754
2126.181107,38.285162,133.998066,-9418.149754
2126.181735,38.285162,114.855485,-9418.149754
2126.182363,38.285162,114.855485,-9456.434915
2126.182991,38.285162,114.855485,-9418.149754
2126.183619,76.570323,114.855485,-9418.149754
2126.184247,95.712904,114.855485,-9399.007173
2126.184875,57.427742,95.712904,-9494.720077
2126.185504,76.570323,172.283227,-9418.149754
2126.186132,133.998066,210.568389,-9418.149754
2126.186760,153.140646,153.140646,-9399.007173
2126.187388,76.570323,153.140646,-9418.149754
2126.188016,57.427742,210.568389,-9418.149754
2126.188644,38.285162,153.140646,-9437.292334
2126.189272,114.855485,114.855485,-9475.577496
2126.189900,38.285162,114.855485,-9418.149754
2126.190528,76.570323,114.855485,-9418.149754
2126.191156,133.998066,172.283227,-9475.577496
2126.191784,76.570323,153.140646,-9533.005238
2126.192412,76.570323,114.855485,-9418.149754
2126.193041,76.570323,210.568389,-9437.292334
2126.193669,19.142581,172.283227,-9418.149754
2126.194297,76.570323,210.568389,-9456.434915
2126.194925,133.998066,114.855485,-9418.149754
2126.195553,133.998066,153.140646,-9418.149754
2126.196181,95.712904,133.998066,-9360.722011
2126.196809,76.570323,114.855485,-9418.149754
2126.197437,133.998066,172.283227,-9418.149754
2126.198066,133.998066,172.283227,-9418.149754
2126.198694,133.998066,133.998066,-9399.007173
2126.199322,76.570323,114.855485,-9456.434915
2126.199950,38.285162,114.855485,-9437.292334
2126.200578,95.712904,153.140646,-9341.579430
2126.201206,76.570323,114.855485,-9494.720077
2126.201834,19.142581,114.855485,-9456.434915
2126.202462,76.570323,76.570323,-9379.864592
2126.203090,95.712904,114.855485,-9418.149754
2126.203719,133.998066,210.568389,-9456.434915
2126.204347,76.570323,172.283227,-9418.149754
2126.204975,76.570323,229.710970,-9418.149754
2126.205603,153.140646,133.998066,-9456.434915
2126.206231,153.140646,133.998066,-9437.292334
2126.206859,153.140646,133.998066,-9456.434915
2126.207487,76.570323,114.855485,-9456.434915
2126.208115,38.285162,114.855485,-9418.149754
2126.208744,76.570323,153.140646,-9418.149754
2126.209372,133.998066,229.710970,-9437.292334
2126.210000,76.570323,153.140646,-9437.292334
2126.210628,38.285162,153.140646,-9418.149754
2126.211256,76.570323,114.855485,-9456.434915
2126.211884,38.285162,172.283227,-9437.292334
2126.212512,76.570323,114.855485,-9418.149754
2126.213140,133.998066,114.855485,-9437.292334
2126.213768,38.285162,114.855485,-9418.149754
2126.214397,76.570323,153.140646,-9437.292334
2126.215025,95.712904,133.998066,-9341.579430
2126.215653,133.998066,114.855485,-9418.149754
2126.216281,133.998066,172.283227,-9399.007173
2126.216909,95.712904,191.425808,-9360.722011
2126.217537,76.570323,114.855485,-9418.149754
2126.218165,95.712904,95.712904,-9399.007173
2126.218793,76.570323,210.568389,-9437.292334
2126.219422,133.998066,172.283227,-9418.149754
2126.220050,114.855485,133.998066,-9360.722011
2126.220678,76.570323,153.140646,-9418.149754
2126.221306,114.855485,95.712904,-9399.007173
2126.221934,95.712904,114.855485,-9418.149754
2126.222562,153.140646,210.568389,-9475.577496
2126.223190,114.855485,95.712904,-9399.007173
2126.223818,133.998066,114.855485,-9456.434915
2126.224446,76.570323,114.855485,-9437.292334
2126.225075,133.998066,172.283227,-9418.149754
2126.225703,153.140646,172.283227,-9437.292334
2126.226331,76.570323,153.140646,-9418.149754
2126.226959,38.285162,172.283227,-9418.149754
2126.227587,57.427742,114.855485,-9494.720077
2126.228215,133.998066,114.855485,-9418.149754
2126.228843,133.998066,114.855485,-9456.434915
2126.229471,76.570323,210.568389,-9475.577496
2126.230099,76.570323,172.283227,-9418.149754
2126.230728,133.998066,153.140646,-9418.149754
2126.231356,95.712904,248.853550,-9360.722011
2126.231984,57.427742,133.998066,-9360.722011
2126.232612,76.570323,153.140646,-9475.577496
2126.233240,38.285162,114.855485,-9475.577496
2126.233868,133.998066,172.283227,-9418.149754
2126.234496,95.712904,95.712904,-9399.007173
2126.235124,153.140646,133.998066,-9379.864592
2126.235753,95.712904,114.855485,-9418.149754
2126.236381,76.570323,95.712904,-9399.007173
2126.237009,57.427742,95.712904,-9399.007173
2126.237637,76.570323,114.855485,-9418.149754
2126.238265,76.570323,114.855485,-9418.149754
2126.238893,76.570323,172.283227,-9456.434915
2126.239521,76.570323,114.855485,-9418.149754
2126.240149,95.712904,95.712904,-9456.434915
2126.240777,76.570323,114.855485,-9418.149754
2126.241406,133.998066,114.855485,-9418.149754
2126.242034,38.285162,114.855485,-9475.577496
2126.242662,95.712904,95.712904,-9399.007173
2126.243290,76.570323,114.855485,-9437.292334
2126.243918,76.570323,153.140646,-9418.149754
2126.244546,76.570323,114.855485,-9418.149754
2126.245174,153.140646,210.568389,-9456.434915
2126.245802,133.998066,153.140646,-9437.292334
2126.246431,76.570323,172.283227,-9456.434915
2126.247059,95.712904,95.712904,-9494.720077
2126.247687,133.998066,114.855485,-9437.292334
2126.248315,95.712904,210.568389,-9475.577496
2126.248943,133.998066,172.283227,-9475.577496
2126.249571,76.570323,114.855485,-9456.434915
2126.250199,76.570323,153.140646,-9418.149754
2126.250827,76.570323,114.855485,-9418.149754
2126.251455,133.998066,229.710970,-9418.149754
2126.252084,133.998066,210.568389,-9379.864592
2126.252712,133.998066,172.283227,-9456.434915
2126.253340,172.283227,114.855485,-9322.436850
2126.253968,95.712904,133.998066,-9360.722011
2126.254596,133.998066,153.140646,-9418.149754
2126.255224,133.998066,153.140646,-9437.292334
2126.255852,76.570323,114.855485,-9437.292334
2126.256480,95.712904,95.712904,-9399.007173
2126.257109,133.998066,114.855485,-9418.149754
2126.257737,133.998066,114.855485,-9418.149754
2126.258365,76.570323,114.855485,-9418.149754
2126.258993,153.140646,133.998066,-9456.434915
2126.259621,76.570323,172.283227,-9418.149754
2126.260249,76.570323,153.140646,-9418.149754
2126.260877,133.998066,172.283227,-9437.292334
2126.261505,76.570323,114.855485,-9437.292334
2126.262133,76.570323,114.855485,-9418.149754
2126.262762,133.998066,114.855485,-9456.434915
2126.263390,133.998066,153.140646,-9399.007173
2126.264018,133.998066,114.855485,-9418.149754
2126.264646,76.570323,114.855485,-9418.149754
2126.265274,76.570323,114.855485,-9475.577496
2126.265902,76.570323,95.712904,-9494.720077
2126.266530,114.855485,95.712904,-9456.434915
2126.267158,76.570323,114.855485,-9418.149754
2126.267786,133.998066,172.283227,-9418.149754
2126.268415,133.998066,210.568389,-9437.292334
2126.269043,133.998066,210.568389,-9456.434915
2126.269671,76.570323,229.710970,-9456.434915
2126.270299,76.570323,153.140646,-9418.149754
2126.270927,76.570323,114.855485,-9418.149754
2126.271555,76.570323,95.712904,-9379.864592
2126.272183,76.570323,133.998066,-9360.722011
2126.272811,133.998066,210.568389,-9418.149754
2126.273440,133.998066,114.855485,-9437.292334
2126.274068,76.570323,153.140646,-9418.149754
2126.274696,133.998066,114.855485,-9418.149754
2126.275324,133.998066,133.998066,-9399.007173
2126.275952,76.570323,114.855485,-9418.149754
2126.276580,38.285162,133.998066,-9360.722011
2126.277208,114.855485,95.712904,-9399.007173
2126.277836,114.855485,133.998066,-9360.722011
2126.278464,76.570323,114.855485,-9456.434915
2126.279093,19.142581,114.855485,-9418.149754
2126.279721,38.285162,114.855485,-9437.292334
2126.280349,153.140646,172.283227,-9399.007173
2126.280977,133.998066,114.855485,-9418.149754
2126.281605,76.570323,114.855485,-9494.720077
2126.282233,38.285162,210.568389,-9475.577496
2126.282861,133.998066,191.425808,-9418.149754
2126.283489,133.998066,114.855485,-9456.434915
2126.284118,114.855485,95.712904,-9456.434915
2126.284746,76.570323,210.568389,-9418.149754
2126.285374,76.570323,153.140646,-9418.149754
2126.286002,133.998066,172.283227,-9437.292334
2126.286630,133.998066,114.855485,-9494.720077
2126.287258,133.998066,172.283227,-9456.434915
2126.287886,76.570323,114.855485,-9437.292334
2126.288514,57.427742,153.140646,-9475.577496
2126.289142,38.285162,210.568389,-9437.292334
2126.289771,95.712904,153.140646,-9418.149754
2126.290399,133.998066,210.568389,-9418.149754
2126.291027,153.140646,133.998066,-9399.007173
2126.291655,76.570323,114.855485,-9418.149754
2126.292283,95.712904,153.140646,-9360.722011
2126.292911,133.998066,210.568389,-9418.149754
2126.293539,114.855485,133.998066,-9360.722011
2126.294167,133.998066,172.283227,-9399.007173
2126.294795,95.712904,95.712904,-9399.007173
2126.295423,38.285162,114.855485,-9418.149754
2126.296051,95.712904,153.140646,-9360.722011
2126.296679,133.998066,114.855485,-9418.149754
2126.297307,76.570323,114.855485,-9418.149754
2126.297934,133.998066,153.140646,-9418.149754
2126.298562,19.142581,191.425808,-9533.005238
2126.299190,133.998066,114.855485,-9475.577496
2126.299818,133.998066,114.855485,-9418.149754
2126.300446,153.140646,133.998066,-9456.434915
2126.301073,95.712904,133.998066,-9437.292334
2126.301701,114.855485,95.712904,-9399.007173
2126.302329,172.283227,114.855485,-9456.434915
2126.302957,114.855485,133.998066,-9360.722011
2126.303585,76.570323,114.855485,-9475.577496
2126.304213,114.855485,95.712904,-9494.720077
2126.304840,76.570323,114.855485,-9437.292334
2126.305468,76.570323,114.855485,-9418.149754
2126.306096,76.570323,114.855485,-9475.577496
2126.306724,76.570323,114.855485,-9418.149754
2126.307352,133.998066,172.283227,-9418.149754
2126.307980,95.712904,114.855485,-9418.149754
2126.308607,76.570323,114.855485,-9437.292334
2126.309235,76.570323,172.283227,-9437.292334
2126.309863,133.998066,172.283227,-9418.149754
2126.310491,133.998066,210.568389,-9418.149754
2126.311119,38.285162,114.855485,-9360.722011
2126.311746,114.855485,133.998066,-9360.722011
2126.312374,76.570323,172.283227,-9418.149754
2126.313002,153.140646,172.283227,-9456.434915
2126.313630,76.570323,114.855485,-9418.149754
2126.314258,133.998066,191.425808,-9418.149754
2126.314886,76.570323,114.855485,-9437.292334
2126.315513,133.998066,153.140646,-9437.292334
2126.316141,76.570323,114.855485,-9418.149754
2126.316769,76.570323,114.855485,-9418.149754
2126.317397,38.285162,114.855485,-9418.149754
2126.318025,133.998066,114.855485,-9475.577496
2126.318653,76.570323,172.283227,-9418.149754
2126.319280,95.712904,114.855485,-9418.149754
2126.319908,133.998066,114.855485,-9456.434915
2126.320536,133.998066,114.855485,-9418.149754
2126.321164,210.568389,210.568389,-9437.292334
2126.321792,153.140646,133.998066,-9456.434915
2126.322419,95.712904,95.712904,-9437.292334
2126.323047,114.855485,76.570323,-9437.292334
2126.323675,153.140646,191.425808,-9399.007173
2126.324303,76.570323,153.140646,-9418.149754
2126.324931,133.998066,172.283227,-9437.292334
2126.325559,133.998066,172.283227,-9475.577496
2126.326186,153.140646,191.425808,-9456.434915
2126.326814,133.998066,248.853550,-9399.007173
2126.327442,76.570323,153.140646,-9437.292334
2126.328070,153.140646,172.283227,-9399.007173
2126.328698,133.998066,76.570323,-9379.864592
2126.329326,76.570323,153.140646,-9418.149754
2126.329953,133.998066,114.855485,-9418.149754
2126.330581,133.998066,153.140646,-9456.434915
2126.331209,95.712904,133.998066,-9360.722011
2126.331837,76.570323,114.855485,-9533.005238
2126.332465,95.712904,133.998066,-9360.722011
2126.333092,38.285162,114.855485,-9418.149754
2126.333720,76.570323,114.855485,-9437.292334
2126.334348,95.712904,210.568389,-9437.292334
2126.334976,57.427742,95.712904,-9399.007173
2126.335604,38.285162,114.855485,-9418.149754
2126.336232,19.142581,133.998066,-9399.007173
2126.336859,133.998066,114.855485,-9418.149754
2126.337487,133.998066,153.140646,-9418.149754
2126.338115,133.998066,114.855485,-9418.149754
2126.338743,76.570323,153.140646,-9418.149754
2126.339371,114.855485,95.712904,-9456.434915
2126.339999,153.140646,133.998066,-9437.292334
2126.340626,76.570323,114.855485,-9418.149754
2126.341254,133.998066,210.568389,-9418.149754
2126.341882,133.998066,172.283227,-9437.292334
2126.342510,133.998066,133.998066,-9437.292334
2126.343138,153.140646,133.998066,-9399.007173
2126.343765,95.712904,133.998066,-9418.149754
2126.344393,133.998066,114.855485,-9456.434915
2126.345021,153.140646,191.425808,-9399.007173
2126.345649,76.570323,229.710970,-9437.292334
2126.346277,76.570323,210.568389,-9418.149754
2126.346905,76.570323,172.283227,-9418.149754
2126.347532,76.570323,153.140646,-9418.149754
2126.348160,95.712904,210.568389,-9360.722011
2126.348788,76.570323,153.140646,-9437.292334
2126.349416,76.570323,172.283227,-9418.149754
2126.350044,76.570323,114.855485,-9437.292334
2126.350672,57.427742,95.712904,-9437.292334
2126.351299,38.285162,229.710970,-9418.149754
2126.351927,76.570323,114.855485,-9418.149754
2126.352555,95.712904,95.712904,-9399.007173
2126.353183,114.855485,95.712904,-9399.007173
2126.353811,95.712904,114.855485,-9418.149754
2126.354439,133.998066,114.855485,-9456.434915
2126.355066,95.712904,95.712904,-9399.007173
2126.355694,133.998066,76.570323,-9379.864592
2126.356322,95.712904,95.712904,-9379.864592
2126.356950,76.570323,114.855485,-9418.149754
2126.357578,38.285162,114.855485,-9418.149754
2126.358205,38.285162,114.855485,-9418.149754
2126.358833,133.998066,210.568389,-9418.149754
2126.359461,153.140646,248.853550,-9399.007173
2126.360089,38.285162,114.855485,-9418.149754
2126.360717,133.998066,210.568389,-9437.292334
2126.361345,76.570323,172.283227,-9418.149754
2126.361972,76.570323,114.855485,-9418.149754
2126.362600,133.998066,114.855485,-9418.149754
2126.363228,76.570323,153.140646,-9437.292334
2126.363856,76.570323,172.283227,-9418.149754
2126.364484,133.998066,114.855485,-9418.149754
2126.365112,153.140646,114.855485,-9418.149754
2126.365739,133.998066,229.710970,-9475.577496
2126.366367,133.998066,210.568389,-9456.434915
2126.366995,133.998066,153.140646,-9418.149754
2126.367623,38.285162,114.855485,-9418.149754
2126.368251,133.998066,114.855485,-9437.292334
2126.368878,38.285162,114.855485,-9456.434915
2126.369506,76.570323,114.855485,-9418.149754
2126.370134,114.855485,172.283227,-9418.149754
2126.370762,76.570323,172.283227,-9360.722011
2126.371390,95.712904,133.998066,-9341.579430
2126.372018,38.285162,172.283227,-9418.149754
2126.372645,19.142581,95.712904,-9418.149754
2126.373273,76.570323,95.712904,-9379.864592
2126.373901,114.855485,133.998066,-9360.722011
2126.374529,133.998066,114.855485,-9418.149754
2126.375157,38.285162,172.283227,-9418.149754
2126.375785,76.570323,153.140646,-9437.292334
2126.376412,76.570323,114.855485,-9418.149754
2126.377040,38.285162,114.855485,-9437.292334
2126.377668,76.570323,114.855485,-9456.434915
2126.378296,133.998066,114.855485,-9418.149754
2126.378924,133.998066,114.855485,-9418.149754
2126.379551,133.998066,114.855485,-9456.434915
2126.380179,95.712904,172.283227,-9437.292334
2126.380807,114.855485,153.140646,-9418.149754
2126.381435,76.570323,114.855485,-9456.434915
2126.382063,153.140646,172.283227,-9399.007173
2126.382691,19.142581,114.855485,-9418.149754
2126.383318,76.570323,114.855485,-9437.292334
2126.383946,38.285162,191.425808,-9437.292334
2126.384574,133.998066,172.283227,-9456.434915
2126.385202,133.998066,153.140646,-9418.149754
2126.385830,76.570323,172.283227,-9418.149754
2126.386458,133.998066,210.568389,-9456.434915
2126.387085,76.570323,172.283227,-9418.149754
2126.387713,76.570323,153.140646,-9341.579430
2126.388341,133.998066,172.283227,-9418.149754
2126.388969,133.998066,210.568389,-9418.149754
2126.389597,133.998066,153.140646,-9399.007173
2126.390224,95.712904,114.855485,-9456.434915
2126.390852,38.285162,114.855485,-9418.149754
2126.391480,133.998066,114.855485,-9418.149754
2126.392108,76.570323,114.855485,-9437.292334
2126.392736,76.570323,76.570323,-9379.864592
2126.393364,133.998066,114.855485,-9456.434915
2126.393991,38.285162,172.283227,-9456.434915
2126.394619,153.140646,172.283227,-9399.007173
2126.395247,172.283227,114.855485,-9399.007173
2126.395874,76.570323,114.855485,-9437.292334
2126.396501,133.998066,114.855485,-9418.149754
2126.397128,95.712904,172.283227,-9418.149754
2126.397756,38.285162,172.283227,-9456.434915
2126.398383,133.998066,114.855485,-9418.149754
2126.399010,76.570323,114.855485,-9360.722011
2126.399638,38.285162,153.140646,-9418.149754
2126.400265,95.712904,210.568389,-9437.292334
2126.400892,133.998066,153.140646,-9456.434915
2126.401519,76.570323,172.283227,-9418.149754
2126.402147,38.285162,153.140646,-9418.149754
2126.402774,133.998066,210.568389,-9418.149754
2126.403401,133.998066,210.568389,-9437.292334
2126.404029,133.998066,172.283227,-9456.434915
2126.404656,76.570323,153.140646,-9456.434915
2126.405283,38.285162,114.855485,-9437.292334
2126.405910,133.998066,114.855485,-9475.577496
2126.406538,133.998066,191.425808,-9494.720077
2126.407165,38.285162,210.568389,-9437.292334
2126.407792,95.712904,191.425808,-9360.722011
2126.408420,133.998066,114.855485,-9360.722011
2126.409047,133.998066,114.855485,-9418.149754
2126.409674,95.712904,114.855485,-9418.149754
2126.410302,76.570323,114.855485,-9418.149754
2126.410929,133.998066,114.855485,-9456.434915
2126.411556,76.570323,114.855485,-9475.577496
2126.412183,57.427742,114.855485,-9418.149754
2126.412811,19.142581,114.855485,-9418.149754
2126.413438,76.570323,76.570323,-9379.864592
2126.414065,95.712904,95.712904,-9456.434915
2126.414693,114.855485,95.712904,-9494.720077
2126.415320,172.283227,76.570323,-9437.292334
2126.415947,114.855485,76.570323,-9475.577496
2126.416574,114.855485,114.855485,-9379.864592
2126.417202,76.570323,114.855485,-9418.149754
2126.417829,76.570323,153.140646,-9437.292334
2126.418456,133.998066,114.855485,-9437.292334
2126.419084,76.570323,114.855485,-9418.149754
2126.419711,114.855485,95.712904,-9399.007173
2126.420338,76.570323,172.283227,-9418.149754
2126.420965,76.570323,210.568389,-9437.292334
2126.421593,133.998066,114.855485,-9437.292334
2126.422220,38.285162,114.855485,-9418.149754
2126.422847,76.570323,153.140646,-9456.434915
2126.423475,114.855485,191.425808,-9418.149754
2126.424102,76.570323,114.855485,-9418.149754
2126.424729,38.285162,114.855485,-9418.149754
2126.425357,76.570323,153.140646,-9437.292334
2126.425984,95.712904,210.568389,-9418.149754
2126.426611,76.570323,114.855485,-9418.149754
2126.427238,76.570323,114.855485,-9418.149754
2126.427866,76.570323,172.283227,-9418.149754
2126.428493,133.998066,267.996131,-9379.864592
2126.429120,38.285162,210.568389,-9418.149754
2126.429748,76.570323,153.140646,-9418.149754
2126.430375,133.998066,153.140646,-9418.149754
2126.431002,76.570323,114.855485,-9437.292334
2126.431629,133.998066,133.998066,-9399.007173
2126.432257,95.712904,114.855485,-9418.149754
2126.432884,114.855485,114.855485,-9456.434915
2126.433511,76.570323,210.568389,-9418.149754
2126.434139,114.855485,133.998066,-9437.292334
2126.434766,133.998066,172.283227,-9418.149754
2126.435393,133.998066,114.855485,-9418.149754
2126.436020,95.712904,95.712904,-9399.007173
2126.436648,133.998066,114.855485,-9418.149754
2126.437275,95.712904,153.140646,-9456.434915
2126.437902,95.712904,114.855485,-9418.149754
2126.438530,95.712904,95.712904,-9399.007173
2126.439157,133.998066,114.855485,-9418.149754
2126.439784,76.570323,95.712904,-9437.292334
2126.440411,153.140646,172.283227,-9399.007173
2126.441039,133.998066,114.855485,-9437.292334
2126.441666,133.998066,114.855485,-9418.149754
2126.442293,133.998066,210.568389,-9437.292334
2126.442921,133.998066,172.283227,-9418.149754
2126.443548,133.998066,210.568389,-9418.149754
2126.444175,76.570323,114.855485,-9418.149754
2126.444803,76.570323,114.855485,-9456.434915
2126.445430,133.998066,153.140646,-9418.149754
2126.446057,133.998066,114.855485,-9418.149754
2126.446684,76.570323,114.855485,-9456.434915
2126.447312,76.570323,114.855485,-9418.149754
2126.447939,133.998066,133.998066,-9399.007173
2126.448566,133.998066,153.140646,-9399.007173
2126.449194,57.427742,133.998066,-9360.722011
2126.449821,76.570323,114.855485,-9399.007173
2126.450448,95.712904,210.568389,-9418.149754
2126.451075,153.140646,133.998066,-9399.007173
2126.451703,38.285162,114.855485,-9418.149754
2126.452330,133.998066,114.855485,-9456.434915
2126.452957,76.570323,114.855485,-9456.434915
2126.453585,57.427742,95.712904,-9456.434915
2126.454212,95.712904,114.855485,-9418.149754
2126.454839,57.427742,57.427742,-9399.007173
2126.455466,133.998066,191.425808,-9418.149754
2126.456094,133.998066,114.855485,-9475.577496
2126.456721,172.283227,114.855485,-9399.007173
2126.457348,76.570323,114.855485,-9418.149754
2126.457976,133.998066,153.140646,-9418.149754
2126.458603,133.998066,153.140646,-9418.149754
2126.459230,76.570323,114.855485,-9475.577496
2126.459858,38.285162,210.568389,-9418.149754
2126.460485,133.998066,191.425808,-9437.292334
2126.461112,133.998066,114.855485,-9456.434915
2126.461739,76.570323,210.568389,-9418.149754
2126.462367,133.998066,153.140646,-9418.149754
2126.462994,133.998066,133.998066,-9437.292334
2126.463621,76.570323,172.283227,-9418.149754
2126.464249,76.570323,114.855485,-9456.434915
2126.464876,38.285162,172.283227,-9437.292334
2126.465503,38.285162,114.855485,-9456.434915
2126.466130,133.998066,114.855485,-9418.149754
2126.466758,172.283227,114.855485,-9379.864592
2126.467385,76.570323,153.140646,-9418.149754
2126.468012,38.285162,114.855485,-9494.720077
2126.468640,76.570323,114.855485,-9418.149754
2126.469267,95.712904,172.283227,-9418.149754
2126.469894,133.998066,114.855485,-9418.149754
2126.470521,95.712904,114.855485,-9418.149754
2126.471149,95.712904,133.998066,-9360.722011
2126.471776,133.998066,114.855485,-9418.149754
2126.472403,114.855485,133.998066,-9360.722011
2126.473031,76.570323,153.140646,-9418.149754
2126.473658,76.570323,114.855485,-9418.149754
2126.474285,38.285162,114.855485,-9418.149754
2126.474912,133.998066,114.855485,-9475.577496
2126.475540,133.998066,114.855485,-9418.149754
2126.476167,133.998066,114.855485,-9418.149754
2126.476794,76.570323,114.855485,-9437.292334
2126.477422,38.285162,114.855485,-9456.434915
2126.478049,76.570323,114.855485,-9475.577496
2126.478676,76.570323,114.855485,-9456.434915
2126.479304,38.285162,114.855485,-9456.434915
2126.479931,133.998066,114.855485,-9437.292334
2126.480558,76.570323,172.283227,-9437.292334
2126.481185,133.998066,229.710970,-9437.292334
2126.481813,76.570323,153.140646,-9418.149754
2126.482440,95.712904,191.425808,-9360.722011
2126.483067,114.855485,153.140646,-9418.149754
2126.483695,95.712904,114.855485,-9418.149754
2126.484322,95.712904,172.283227,-9418.149754
2126.484949,38.285162,172.283227,-9360.722011
2126.485576,133.998066,172.283227,-9418.149754
2126.486204,153.140646,133.998066,-9399.007173
2126.486831,153.140646,133.998066,-9399.007173
2126.487458,38.285162,114.855485,-9437.292334
2126.488086,76.570323,114.855485,-9513.862658
2126.488713,76.570323,172.283227,-9360.722011
2126.489340,38.285162,114.855485,-9418.149754
2126.489967,76.570323,114.855485,-9418.149754
2126.490595,76.570323,153.140646,-9418.149754
2126.491222,95.712904,114.855485,-9418.149754
2126.491849,76.570323,114.855485,-9494.720077
2126.492477,76.570323,114.855485,-9456.434915
2126.493104,76.570323,114.855485,-9418.149754
2126.493731,114.855485,95.712904,-9399.007173
2126.494359,38.285162,114.855485,-9456.434915
2126.494986,133.998066,153.140646,-9418.149754
2126.495613,76.570323,114.855485,-9437.292334
2126.496241,95.712904,114.855485,-9475.577496
2126.496869,114.855485,95.712904,-9399.007173
2126.497496,133.998066,210.568389,-9418.149754
2126.498124,133.998066,133.998066,-9437.292334
2126.498751,133.998066,114.855485,-9418.149754
2126.499379,133.998066,229.710970,-9418.149754
2126.500007,76.570323,172.283227,-9475.577496
2126.500634,133.998066,172.283227,-9475.577496
2126.501262,133.998066,153.140646,-9418.149754
2126.501889,76.570323,153.140646,-9418.149754
2126.502517,114.855485,95.712904,-9399.007173
2126.503145,95.712904,133.998066,-9360.722011
2126.503772,76.570323,114.855485,-9418.149754
2126.504400,133.998066,191.425808,-9418.149754
2126.505027,76.570323,114.855485,-9437.292334
2126.505655,133.998066,114.855485,-9418.149754
2126.506283,133.998066,153.140646,-9456.434915
2126.506910,133.998066,114.855485,-9475.577496
2126.507538,76.570323,114.855485,-9418.149754
2126.508165,76.570323,114.855485,-9418.149754
2126.508793,76.570323,114.855485,-9437.292334
2126.509420,76.570323,172.283227,-9456.434915
2126.510048,95.712904,114.855485,-9418.149754
2126.510676,57.427742,95.712904,-9437.292334
2126.511303,76.570323,114.855485,-9418.149754
2126.511931,76.570323,114.855485,-9418.149754
2126.512558,95.712904,133.998066,-9360.722011
2126.513186,133.998066,114.855485,-9418.149754
2126.513814,133.998066,114.855485,-9475.577496
2126.514441,95.712904,95.712904,-9437.292334
2126.515069,38.285162,114.855485,-9418.149754
2126.515696,76.570323,172.283227,-9418.149754
2126.516324,38.285162,114.855485,-9437.292334
2126.516952,133.998066,210.568389,-9418.149754
2126.517579,76.570323,153.140646,-9437.292334
2126.518207,76.570323,114.855485,-9418.149754
2126.518834,76.570323,210.568389,-9456.434915
2126.519462,76.570323,153.140646,-9437.292334
2126.520090,95.712904,172.283227,-9437.292334
2126.520717,133.998066,114.855485,-9437.292334
2126.521345,76.570323,114.855485,-9456.434915
2126.521972,133.998066,191.425808,-9418.149754
2126.522600,76.570323,172.283227,-9418.149754
2126.523228,133.998066,172.283227,-9418.149754
2126.523855,133.998066,114.855485,-9437.292334
2126.524483,76.570323,153.140646,-9437.292334
2126.525110,133.998066,172.283227,-9456.434915
2126.525738,133.998066,114.855485,-9418.149754
2126.526366,133.998066,172.283227,-9418.149754
2126.526993,76.570323,114.855485,-9475.577496
2126.527621,95.712904,114.855485,-9418.149754
2126.528248,133.998066,133.998066,-9456.434915
2126.528876,76.570323,114.855485,-9418.149754
2126.529504,95.712904,95.712904,-9399.007173
2126.530131,133.998066,114.855485,-9360.722011
2126.530759,172.283227,114.855485,-9379.864592
2126.531386,76.570323,114.855485,-9418.149754
2126.532014,133.998066,114.855485,-9418.149754
2126.532641,76.570323,114.855485,-9437.292334
2126.533269,76.570323,114.855485,-9418.149754
2126.533897,95.712904,210.568389,-9533.005238
2126.534524,76.570323,114.855485,-9437.292334
2126.535152,76.570323,114.855485,-9494.720077
2126.535779,95.712904,114.855485,-9533.005238
2126.536407,133.998066,172.283227,-9456.434915
2126.537035,57.427742,172.283227,-9418.149754
2126.537662,76.570323,172.283227,-9456.434915
2126.538290,76.570323,153.140646,-9475.577496
2126.538917,76.570323,172.283227,-9456.434915
2126.539545,95.712904,210.568389,-9418.149754
2126.540173,95.712904,153.140646,-9418.149754
2126.540800,38.285162,153.140646,-9456.434915
2126.541428,38.285162,114.855485,-9418.149754
2126.542055,76.570323,114.855485,-9418.149754
2126.542683,95.712904,172.283227,-9360.722011
2126.543311,38.285162,172.283227,-9418.149754
2126.543938,114.855485,172.283227,-9360.722011
2126.544566,76.570323,114.855485,-9437.292334
2126.545193,19.142581,114.855485,-9418.149754
2126.545821,76.570323,114.855485,-9418.149754
2126.546449,95.712904,95.712904,-9399.007173
2126.547076,38.285162,114.855485,-9418.149754
2126.547704,38.285162,114.855485,-9418.149754
2126.548331,133.998066,114.855485,-9418.149754
2126.548959,133.998066,114.855485,-9418.149754
2126.549587,133.998066,114.855485,-9418.149754
2126.550214,133.998066,114.855485,-9418.149754
2126.550842,76.570323,38.285162,-9379.864592
2126.551469,95.712904,114.855485,-9456.434915
2126.552097,76.570323,172.283227,-9456.434915
2126.552725,133.998066,114.855485,-9437.292334
2126.553352,76.570323,114.855485,-9418.149754
2126.553980,133.998066,153.140646,-9456.434915
2126.554607,38.285162,114.855485,-9475.577496
2126.555235,133.998066,133.998066,-9437.292334
2126.555862,153.140646,133.998066,-9399.007173
2126.556490,133.998066,133.998066,-9456.434915
2126.557118,76.570323,114.855485,-9456.434915
2126.557745,76.570323,114.855485,-9475.577496
2126.558373,38.285162,114.855485,-9418.149754
2126.559000,95.712904,95.712904,-9399.007173
2126.559628,95.712904,172.283227,-9360.722011
2126.560256,76.570323,172.283227,-9533.005238
2126.560883,95.712904,172.283227,-9456.434915
2126.561511,133.998066,248.853550,-9456.434915
2126.562138,38.285162,210.568389,-9418.149754
2126.562766,38.285162,210.568389,-9418.149754
2126.563394,172.283227,153.140646,-9322.436850
2126.564021,95.712904,133.998066,-9360.722011
2126.564649,133.998066,114.855485,-9418.149754
2126.565276,133.998066,114.855485,-9418.149754
2126.565904,133.998066,114.855485,-9418.149754
2126.566532,76.570323,114.855485,-9456.434915
2126.567159,57.427742,114.855485,-9437.292334
2126.567787,133.998066,114.855485,-9418.149754
2126.568414,114.855485,153.140646,-9360.722011
2126.569042,133.998066,114.855485,-9418.149754
2126.569670,95.712904,95.712904,-9399.007173
2126.570297,76.570323,114.855485,-9418.149754
2126.570925,172.283227,76.570323,-9437.292334
2126.571552,153.140646,172.283227,-9399.007173
2126.572180,114.855485,133.998066,-9418.149754
2126.572808,76.570323,153.140646,-9418.149754
2126.573435,133.998066,114.855485,-9437.292334
2126.574063,76.570323,191.425808,-9418.149754
2126.574690,133.998066,172.283227,-9437.292334
2126.575318,76.570323,114.855485,-9418.149754
2126.575946,153.140646,114.855485,-9475.577496
2126.576573,133.998066,153.140646,-9475.577496
2126.577201,76.570323,172.283227,-9494.720077
2126.577828,76.570323,114.855485,-9418.149754
2126.578456,76.570323,229.710970,-9456.434915
2126.579083,153.140646,191.425808,-9456.434915
2126.579711,38.285162,153.140646,-9418.149754
2126.580339,153.140646,210.568389,-9418.149754
2126.580966,133.998066,114.855485,-9418.149754
2126.581594,76.570323,153.140646,-9418.149754
2126.582221,76.570323,210.568389,-9418.149754
2126.582849,95.712904,210.568389,-9360.722011
2126.583477,133.998066,114.855485,-9456.434915
2126.584104,133.998066,133.998066,-9360.722011
2126.584732,95.712904,95.712904,-9399.007173
2126.585359,76.570323,76.570323,-9379.864592
2126.585987,133.998066,172.283227,-9418.149754
2126.586615,76.570323,114.855485,-9418.149754
2126.587242,38.285162,114.855485,-9418.149754
2126.587870,133.998066,172.283227,-9399.007173
2126.588497,76.570323,172.283227,-9437.292334
2126.589125,133.998066,172.283227,-9456.434915
2126.589753,95.712904,133.998066,-9360.722011
2126.590380,38.285162,114.855485,-9418.149754
2126.591008,76.570323,114.855485,-9418.149754
2126.591635,95.712904,153.140646,-9418.149754
2126.592263,133.998066,114.855485,-9494.720077
2126.592891,114.855485,95.712904,-9456.434915
2126.593518,133.998066,114.855485,-9456.434915
2126.594146,76.570323,172.283227,-9475.577496
2126.594773,133.998066,153.140646,-9533.005238
2126.595401,95.712904,153.140646,-9533.005238
2126.596028,57.427742,133.998066,-9475.577496
2126.596655,0.000000,95.712904,-9399.007173
2126.597283,133.998066,172.283227,-9418.149754
2126.597910,76.570323,114.855485,-9437.292334
2126.598537,95.712904,114.855485,-9418.149754
2126.599164,76.570323,172.283227,-9437.292334
2126.599791,133.998066,153.140646,-9418.149754
2126.600418,133.998066,153.140646,-9418.149754
2126.601046,153.140646,133.998066,-9399.007173
2126.601673,153.140646,248.853550,-9399.007173
2126.602300,57.427742,133.998066,-9360.722011
2126.602927,76.570323,210.568389,-9418.149754
2126.603554,114.855485,133.998066,-9360.722011
2126.604182,38.285162,114.855485,-9456.434915
2126.604809,57.427742,95.712904,-9399.007173
2126.605436,76.570323,114.855485,-9418.149754
2126.606063,76.570323,172.283227,-9456.434915
2126.606690,95.712904,133.998066,-9322.436850
2126.607317,38.285162,114.855485,-9418.149754
2126.607945,38.285162,114.855485,-9418.149754
2126.608572,76.570323,153.140646,-9418.149754
2126.609199,133.998066,114.855485,-9437.292334
2126.609826,76.570323,114.855485,-9456.434915
2126.610453,76.570323,172.283227,-9418.149754
2126.611081,133.998066,114.855485,-9494.720077
2126.611708,133.998066,114.855485,-9456.434915
2126.612335,133.998066,114.855485,-9418.149754
2126.612962,76.570323,114.855485,-9418.149754
2126.613589,133.998066,114.855485,-9418.149754
2126.614216,76.570323,114.855485,-9456.434915
2126.614844,95.712904,114.855485,-9437.292334
2126.615471,76.570323,114.855485,-9437.292334
2126.616098,133.998066,210.568389,-9437.292334
2126.616725,133.998066,210.568389,-9456.434915
2126.617352,76.570323,153.140646,-9533.005238
2126.617980,76.570323,114.855485,-9475.577496
2126.618607,76.570323,114.855485,-9418.149754
2126.619234,95.712904,172.283227,-9360.722011
2126.619861,38.285162,153.140646,-9437.292334
2126.620488,57.427742,133.998066,-9360.722011
2126.621115,76.570323,114.855485,-9418.149754
2126.621743,114.855485,133.998066,-9360.722011
2126.622370,76.570323,153.140646,-9418.149754
2126.622997,76.570323,153.140646,-9418.149754
2126.623624,76.570323,153.140646,-9399.007173
2126.624251,114.855485,172.283227,-9360.722011
2126.624879,38.285162,114.855485,-9475.577496
2126.625506,114.855485,95.712904,-9399.007173
2126.626133,153.140646,95.712904,-9360.722011
2126.626760,76.570323,114.855485,-9418.149754
2126.627387,133.998066,153.140646,-9418.149754
2126.628014,133.998066,114.855485,-9418.149754
2126.628642,76.570323,114.855485,-9418.149754
2126.629269,76.570323,114.855485,-9437.292334
2126.629896,76.570323,153.140646,-9418.149754
2126.630523,133.998066,172.283227,-9456.434915
2126.631150,133.998066,191.425808,-9437.292334
2126.631778,114.855485,95.712904,-9399.007173
2126.632405,38.285162,210.568389,-9494.720077
2126.633032,133.998066,114.855485,-9456.434915
2126.633659,133.998066,114.855485,-9418.149754
2126.634286,76.570323,172.283227,-9494.720077
2126.634913,38.285162,210.568389,-9475.577496
2126.635541,76.570323,191.425808,-9456.434915
2126.636168,38.285162,172.283227,-9456.434915
2126.636795,76.570323,114.855485,-9475.577496
2126.637422,133.998066,210.568389,-9494.720077
2126.638049,133.998066,172.283227,-9437.292334
2126.638677,114.855485,133.998066,-9360.722011
2126.639304,153.140646,172.283227,-9494.720077
2126.639931,95.712904,133.998066,-9360.722011
2126.640558,76.570323,172.283227,-9437.292334
2126.641185,19.142581,114.855485,-9456.434915
2126.641813,133.998066,191.425808,-9360.722011
2126.642440,133.998066,191.425808,-9399.007173
2126.643067,95.712904,133.998066,-9360.722011
2126.643694,76.570323,153.140646,-9418.149754
2126.644321,76.570323,172.283227,-9418.149754
2126.644948,95.712904,114.855485,-9437.292334
2126.645576,76.570323,95.712904,-9437.292334
2126.646203,38.285162,114.855485,-9437.292334
2126.646830,133.998066,114.855485,-9418.149754
2126.647457,95.712904,114.855485,-9418.149754
2126.648084,133.998066,114.855485,-9418.149754
2126.648712,38.285162,114.855485,-9418.149754
2126.649339,38.285162,114.855485,-9418.149754
2126.649966,95.712904,172.283227,-9399.007173
2126.650593,133.998066,172.283227,-9437.292334
2126.651220,76.570323,153.140646,-9456.434915
2126.651847,153.140646,153.140646,-9399.007173
2126.652475,133.998066,172.283227,-9418.149754
2126.653102,76.570323,172.283227,-9437.292334
2126.653729,133.998066,114.855485,-9418.149754
2126.654356,76.570323,229.710970,-9437.292334
2126.654983,133.998066,172.283227,-9418.149754
2126.655611,76.570323,114.855485,-9437.292334
2126.656238,38.285162,210.568389,-9437.292334
2126.656865,76.570323,172.283227,-9418.149754
2126.657492,76.570323,114.855485,-9418.149754
2126.658119,153.140646,114.855485,-9475.577496
2126.658746,133.998066,210.568389,-9456.434915
2126.659374,114.855485,210.568389,-9360.722011
2126.660001,19.142581,191.425808,-9418.149754
2126.660628,38.285162,210.568389,-9418.149754
2126.661255,38.285162,114.855485,-9418.149754
2126.661882,76.570323,114.855485,-9418.149754
2126.662510,76.570323,114.855485,-9437.292334
2126.663137,76.570323,114.855485,-9437.292334
2126.663764,114.855485,248.853550,-9360.722011
2126.664391,57.427742,133.998066,-9360.722011
2126.665018,76.570323,172.283227,-9494.720077
2126.665645,76.570323,114.855485,-9418.149754
2126.666273,153.140646,172.283227,-9437.292334
2126.666900,133.998066,114.855485,-9418.149754
2126.667527,76.570323,114.855485,-9418.149754
2126.668154,76.570323,114.855485,-9437.292334
2126.668781,76.570323,114.855485,-9437.292334
2126.669409,133.998066,172.283227,-9418.149754
2126.670036,153.140646,210.568389,-9418.149754
2126.670663,133.998066,114.855485,-9418.149754
2126.671290,133.998066,114.855485,-9418.149754
2126.671917,76.570323,114.855485,-9456.434915
2126.672544,19.142581,191.425808,-9418.149754
2126.673172,76.570323,172.283227,-9475.577496
2126.673799,76.570323,172.283227,-9418.149754
2126.674426,133.998066,172.283227,-9494.720077
2126.675053,76.570323,210.568389,-9418.149754
2126.675680,95.712904,153.140646,-9456.434915
2126.676308,133.998066,114.855485,-9437.292334
2126.676935,76.570323,114.855485,-9456.434915
2126.677562,38.285162,172.283227,-9437.292334
2126.678189,19.142581,114.855485,-9418.149754
2126.678816,38.285162,229.710970,-9437.292334
2126.679443,76.570323,172.283227,-9418.149754
2126.680071,172.283227,133.998066,-9360.722011
2126.680698,172.283227,95.712904,-9399.007173
2126.681325,95.712904,95.712904,-9399.007173
2126.681952,133.998066,114.855485,-9418.149754
2126.682579,95.712904,95.712904,-9399.007173
2126.683207,38.285162,114.855485,-9418.149754
2126.683834,76.570323,210.568389,-9418.149754
2126.684461,133.998066,114.855485,-9456.434915
2126.685088,133.998066,114.855485,-9475.577496
2126.685715,76.570323,95.712904,-9437.292334
2126.686343,76.570323,153.140646,-9418.149754
2126.686970,133.998066,153.140646,-9437.292334
2126.687597,133.998066,153.140646,-9475.577496
2126.688224,76.570323,172.283227,-9475.577496
2126.688851,76.570323,114.855485,-9418.149754
2126.689478,95.712904,133.998066,-9360.722011
2126.690106,76.570323,172.283227,-9456.434915
2126.690733,76.570323,153.140646,-9418.149754
2126.691360,76.570323,153.140646,-9456.434915
2126.691987,133.998066,210.568389,-9418.149754
2126.692614,76.570323,114.855485,-9418.149754
2126.693242,95.712904,229.710970,-9437.292334
2126.693869,95.712904,153.140646,-9437.292334
2126.694496,76.570323,114.855485,-9475.577496
2126.695123,76.570323,210.568389,-9437.292334
2126.695750,76.570323,153.140646,-9456.434915
2126.696377,38.285162,210.568389,-9418.149754
2126.697005,95.712904,191.425808,-9418.149754
2126.697632,76.570323,153.140646,-9418.149754
2126.698259,114.855485,172.283227,-9360.722011
2126.698886,133.998066,114.855485,-9437.292334
2126.699513,133.998066,172.283227,-9418.149754
2126.700140,153.140646,153.140646,-9399.007173
2126.700767,172.283227,133.998066,-9418.149754
2126.701394,133.998066,133.998066,-9399.007173
2126.702022,114.855485,133.998066,-9360.722011
2126.702649,153.140646,114.855485,-9418.149754
2126.703276,172.283227,153.140646,-9379.864592
2126.703903,133.998066,114.855485,-9418.149754
2126.704530,76.570323,114.855485,-9418.149754
2126.705157,76.570323,172.283227,-9418.149754
2126.705784,133.998066,114.855485,-9418.149754
2126.706412,19.142581,95.712904,-9418.149754
2126.707039,76.570323,114.855485,-9418.149754
2126.707666,95.712904,172.283227,-9418.149754
2126.708293,133.998066,114.855485,-9418.149754
2126.708920,153.140646,133.998066,-9456.434915
2126.709547,114.855485,95.712904,-9494.720077
2126.710174,114.855485,95.712904,-9399.007173
2126.710801,76.570323,114.855485,-9437.292334
2126.711429,153.140646,172.283227,-9456.434915
2126.712056,153.140646,172.283227,-9437.292334
2126.712683,76.570323,114.855485,-9437.292334
2126.713310,19.142581,172.283227,-9456.434915
2126.713937,38.285162,153.140646,-9418.149754
2126.714564,76.570323,210.568389,-9437.292334
2126.715191,133.998066,153.140646,-9437.292334
2126.715819,76.570323,210.568389,-9437.292334
2126.716446,133.998066,210.568389,-9418.149754
2126.717073,38.285162,114.855485,-9456.434915
2126.717700,114.855485,153.140646,-9379.864592
2126.718327,133.998066,210.568389,-9437.292334
2126.718954,133.998066,153.140646,-9418.149754
2126.719581,76.570323,153.140646,-9418.149754
2126.720208,133.998066,153.140646,-9418.149754
2126.720836,133.998066,114.855485,-9418.149754
2126.721463,133.998066,114.855485,-9418.149754
2126.722090,76.570323,114.855485,-9418.149754
2126.722717,95.712904,191.425808,-9360.722011
2126.723344,76.570323,172.283227,-9456.434915
2126.723971,114.855485,133.998066,-9360.722011
2126.724598,114.855485,95.712904,-9399.007173
2126.725226,76.570323,114.855485,-9418.149754
2126.725853,76.570323,114.855485,-9437.292334
2126.726480,95.712904,95.712904,-9399.007173
2126.727107,133.998066,114.855485,-9437.292334
2126.727734,210.568389,172.283227,-9456.434915
2126.728361,57.427742,114.855485,-9418.149754
2126.728988,76.570323,153.140646,-9418.149754
2126.729616,76.570323,153.140646,-9475.577496
2126.730243,133.998066,114.855485,-9437.292334
2126.730870,76.570323,191.425808,-9418.149754
2126.731497,133.998066,153.140646,-9399.007173
2126.732124,38.285162,153.140646,-9456.434915
2126.732751,38.285162,114.855485,-9418.149754
2126.733378,19.142581,153.140646,-9418.149754
2126.734005,38.285162,172.283227,-9437.292334
2126.734633,153.140646,172.283227,-9437.292334
2126.735260,133.998066,172.283227,-9418.149754
2126.735887,76.570323,172.283227,-9418.149754
2126.736514,133.998066,153.140646,-9533.005238
2126.737141,38.285162,172.283227,-9437.292334
2126.737768,133.998066,153.140646,-9418.149754
2126.738395,133.998066,114.855485,-9418.149754
2126.739023,133.998066,114.855485,-9418.149754
2126.739650,57.427742,95.712904,-9399.007173
2126.740277,153.140646,114.855485,-9418.149754
2126.740904,133.998066,114.855485,-9418.149754
2126.741531,76.570323,76.570323,-9379.864592
2126.742158,38.285162,114.855485,-9418.149754
2126.742785,38.285162,114.855485,-9418.149754
2126.743412,133.998066,114.855485,-9418.149754
2126.744040,153.140646,191.425808,-9399.007173
2126.744667,153.140646,114.855485,-9418.149754
2126.745294,133.998066,76.570323,-9322.436850
2126.745921,114.855485,133.998066,-9360.722011
2126.746548,95.712904,95.712904,-9399.007173
2126.747175,38.285162,114.855485,-9418.149754
2126.747802,76.570323,114.855485,-9418.149754
2126.748430,133.998066,114.855485,-9418.149754
2126.749057,76.570323,172.283227,-9437.292334
2126.749684,76.570323,114.855485,-9418.149754
2126.750311,76.570323,229.710970,-9360.722011
2126.750938,133.998066,210.568389,-9418.149754
2126.751565,38.285162,114.855485,-9418.149754
2126.752192,133.998066,153.140646,-9418.149754
2126.752819,95.712904,191.425808,-9418.149754
2126.753447,38.285162,153.140646,-9456.434915
2126.754074,133.998066,114.855485,-9418.149754
2126.754701,76.570323,153.140646,-9456.434915
2126.755328,38.285162,172.283227,-9418.149754
2126.755955,76.570323,172.283227,-9418.149754
2126.756582,38.285162,114.855485,-9418.149754
2126.757209,76.570323,153.140646,-9418.149754
2126.757837,38.285162,114.855485,-9437.292334
2126.758464,95.712904,95.712904,-9399.007173
2126.759091,114.855485,114.855485,-9418.149754
2126.759718,95.712904,153.140646,-9360.722011
2126.760345,76.570323,153.140646,-9456.434915
2126.760972,114.855485,95.712904,-9399.007173
2126.761599,133.998066,114.855485,-9437.292334
2126.762226,76.570323,114.855485,-9437.292334
2126.762854,76.570323,210.568389,-9437.292334
2126.763481,57.427742,133.998066,-9360.722011
2126.764108,114.855485,76.570323,-9418.149754
2126.764735,76.570323,172.283227,-9418.149754
2126.765362,95.712904,95.712904,-9399.007173
2126.765989,57.427742,95.712904,-9399.007173
2126.766616,133.998066,172.283227,-9418.149754
2126.767244,95.712904,133.998066,-9360.722011
2126.767871,95.712904,95.712904,-9456.434915
2126.768498,76.570323,153.140646,-9418.149754
2126.769125,133.998066,114.855485,-9418.149754
2126.769752,76.570323,153.140646,-9418.149754
2126.770379,76.570323,210.568389,-9437.292334
2126.771006,153.140646,133.998066,-9399.007173
2126.771634,133.998066,114.855485,-9418.149754
2126.772261,133.998066,172.283227,-9399.007173
2126.772888,114.855485,191.425808,-9360.722011
2126.773515,153.140646,133.998066,-9456.434915
2126.774142,133.998066,172.283227,-9475.577496
2126.774769,133.998066,133.998066,-9437.292334
2126.775396,133.998066,153.140646,-9418.149754
2126.776023,76.570323,172.283227,-9418.149754
2126.776651,76.570323,210.568389,-9494.720077
2126.777278,114.855485,248.853550,-9360.722011
2126.777905,153.140646,172.283227,-9418.149754
2126.778532,153.140646,133.998066,-9399.007173
2126.779159,76.570323,114.855485,-9418.149754
2126.779786,133.998066,114.855485,-9418.149754
2126.780413,114.855485,95.712904,-9437.292334
2126.781041,133.998066,114.855485,-9418.149754
2126.781668,95.712904,76.570323,-9379.864592
2126.782295,133.998066,114.855485,-9418.149754
2126.782922,133.998066,114.855485,-9418.149754
2126.783549,133.998066,172.283227,-9456.434915
2126.784176,133.998066,172.283227,-9399.007173
2126.784803,76.570323,114.855485,-9456.434915
2126.785430,95.712904,133.998066,-9360.722011
2126.786058,76.570323,114.855485,-9437.292334
2126.786685,76.570323,210.568389,-9418.149754
2126.787312,38.285162,210.568389,-9418.149754
2126.787939,57.427742,133.998066,-9360.722011
2126.788566,114.855485,133.998066,-9360.722011
2126.789193,114.855485,133.998066,-9360.722011
2126.789820,133.998066,172.283227,-9437.292334
2126.790448,76.570323,114.855485,-9494.720077
2126.791075,38.285162,172.283227,-9475.577496
2126.791702,133.998066,114.855485,-9418.149754
2126.792329,133.998066,153.140646,-9437.292334
2126.792956,133.998066,210.568389,-9437.292334
2126.793583,133.998066,172.283227,-9418.149754
2126.794210,76.570323,172.283227,-9418.149754
2126.794837,133.998066,172.283227,-9418.149754
2126.795465,76.570323,153.140646,-9456.434915
2126.796092,95.712904,172.283227,-9456.434915
2126.796719,133.998066,114.855485,-9437.292334
2126.797346,133.998066,114.855485,-9418.149754
2126.797973,76.570323,153.140646,-9418.149754
2126.798600,57.427742,191.425808,-9360.722011
2126.799227,76.570323,114.855485,-9418.149754
2126.799855,172.283227,76.570323,-9418.149754
2126.800482,95.712904,95.712904,-9399.007173
2126.801109,38.285162,114.855485,-9456.434915
2126.801736,95.712904,114.855485,-9399.007173
2126.802363,38.285162,114.855485,-9456.434915
2126.802991,38.285162,114.855485,-9437.292334
2126.803618,133.998066,114.855485,-9418.149754
2126.804245,114.855485,95.712904,-9475.577496
2126.804872,38.285162,172.283227,-9456.434915
2126.805500,133.998066,172.283227,-9456.434915
2126.806127,114.855485,95.712904,-9399.007173
2126.806754,133.998066,133.998066,-9399.007173
2126.807381,76.570323,76.570323,-9379.864592
2126.808008,76.570323,114.855485,-9418.149754
2126.808636,95.712904,114.855485,-9475.577496
2126.809263,133.998066,133.998066,-9456.434915
2126.809890,133.998066,153.140646,-9418.149754
2126.810517,76.570323,172.283227,-9456.434915
2126.811145,76.570323,172.283227,-9494.720077
2126.811772,133.998066,191.425808,-9456.434915
2126.812399,133.998066,153.140646,-9437.292334
2126.813026,133.998066,248.853550,-9399.007173
2126.813654,133.998066,229.710970,-9418.149754
2126.814281,133.998066,153.140646,-9456.434915
2126.814908,95.712904,191.425808,-9418.149754
2126.815535,19.142581,210.568389,-9418.149754
2126.816163,133.998066,114.855485,-9418.149754
2126.816790,133.998066,114.855485,-9418.149754
2126.817417,133.998066,114.855485,-9437.292334
2126.818044,153.140646,114.855485,-9418.149754
2126.818672,95.712904,114.855485,-9418.149754
2126.819299,76.570323,114.855485,-9437.292334
2126.819926,19.142581,114.855485,-9418.149754
2126.820553,57.427742,95.712904,-9399.007173
2126.821180,114.855485,95.712904,-9399.007173
2126.821808,133.998066,114.855485,-9456.434915
2126.822435,95.712904,133.998066,-9360.722011
2126.823062,95.712904,133.998066,-9379.864592
2126.823689,76.570323,114.855485,-9418.149754
2126.824317,95.712904,114.855485,-9418.149754
2126.824944,153.140646,153.140646,-9494.720077
2126.825571,76.570323,114.855485,-9418.149754
2126.826198,153.140646,133.998066,-9494.720077
2126.826826,114.855485,133.998066,-9360.722011
2126.827453,153.140646,133.998066,-9456.434915
2126.828080,133.998066,114.855485,-9437.292334
2126.828707,76.570323,172.283227,-9437.292334
2126.829335,114.855485,133.998066,-9552.147819
2126.829962,153.140646,133.998066,-9456.434915
2126.830589,133.998066,229.710970,-9494.720077
2126.831216,133.998066,153.140646,-9456.434915
2126.831844,38.285162,114.855485,-9418.149754
2126.832471,133.998066,114.855485,-9456.434915
2126.833098,76.570323,172.283227,-9418.149754
2126.833725,133.998066,153.140646,-9418.149754
2126.834353,95.712904,114.855485,-9437.292334
2126.834980,76.570323,172.283227,-9418.149754
2126.835607,133.998066,114.855485,-9418.149754
2126.836234,114.855485,153.140646,-9379.864592
2126.836861,133.998066,114.855485,-9418.149754
2126.837489,76.570323,76.570323,-9379.864592
2126.838116,76.570323,76.570323,-9379.864592
2126.838743,57.427742,95.712904,-9399.007173
2126.839370,133.998066,172.283227,-9456.434915
2126.839998,76.570323,153.140646,-9418.149754
2126.840625,38.285162,114.855485,-9418.149754
2126.841252,95.712904,172.283227,-9418.149754
2126.841879,133.998066,114.855485,-9418.149754
2126.842507,133.998066,114.855485,-9418.149754
2126.843134,133.998066,114.855485,-9418.149754
2126.843761,153.140646,133.998066,-9437.292334
2126.844388,153.140646,172.283227,-9437.292334
2126.845016,57.427742,95.712904,-9399.007173
2126.845643,38.285162,114.855485,-9437.292334
2126.846270,95.712904,114.855485,-9418.149754
2126.846897,38.285162,172.283227,-9418.149754
2126.847525,76.570323,114.855485,-9418.149754
2126.848152,76.570323,114.855485,-9456.434915
2126.848779,76.570323,114.855485,-9437.292334
2126.849406,133.998066,172.283227,-9494.720077
2126.850033,76.570323,114.855485,-9437.292334
2126.850661,133.998066,114.855485,-9437.292334
2126.851288,133.998066,114.855485,-9437.292334
2126.851915,95.712904,95.712904,-9399.007173
2126.852542,57.427742,153.140646,-9418.149754
2126.853170,153.140646,153.140646,-9399.007173
2126.853797,38.285162,153.140646,-9418.149754
2126.854424,76.570323,172.283227,-9437.292334
2126.855051,38.285162,191.425808,-9456.434915
2126.855679,76.570323,153.140646,-9418.149754
2126.856306,76.570323,153.140646,-9494.720077
2126.856933,76.570323,114.855485,-9418.149754
2126.857560,95.712904,133.998066,-9360.722011
2126.858188,114.855485,57.427742,-9437.292334
2126.858815,76.570323,114.855485,-9418.149754
2126.859442,76.570323,114.855485,-9418.149754
2126.860069,133.998066,114.855485,-9437.292334
2126.860697,38.285162,191.425808,-9418.149754
2126.861324,76.570323,114.855485,-9418.149754
2126.861951,95.712904,95.712904,-9399.007173
2126.862578,133.998066,114.855485,-9418.149754
2126.863206,133.998066,114.855485,-9418.149754
2126.863833,133.998066,114.855485,-9494.720077
2126.864460,76.570323,114.855485,-9437.292334
2126.865087,76.570323,172.283227,-9437.292334
2126.865714,133.998066,172.283227,-9437.292334
2126.866342,76.570323,114.855485,-9418.149754
2126.866969,133.998066,114.855485,-9418.149754
2126.867596,76.570323,114.855485,-9418.149754
2126.868223,76.570323,95.712904,-9399.007173
2126.868851,38.285162,95.712904,-9399.007173
2126.869478,57.427742,133.998066,-9437.292334
2126.870105,76.570323,172.283227,-9418.149754
2126.870732,133.998066,172.283227,-9456.434915
2126.871360,76.570323,172.283227,-9418.149754
2126.871987,76.570323,153.140646,-9437.292334
2126.872614,133.998066,133.998066,-9399.007173
2126.873241,133.998066,114.855485,-9418.149754
2126.873869,133.998066,191.425808,-9456.434915
2126.874496,133.998066,210.568389,-9456.434915
2126.875123,76.570323,210.568389,-9437.292334
2126.875750,76.570323,114.855485,-9418.149754
2126.876378,95.712904,114.855485,-9437.292334
2126.877005,114.855485,133.998066,-9360.722011
2126.877632,76.570323,172.283227,-9418.149754
2126.878259,76.570323,114.855485,-9418.149754
2126.878886,95.712904,172.283227,-9418.149754
2126.879514,76.570323,114.855485,-9418.149754
2126.880141,76.570323,114.855485,-9418.149754
2126.880768,38.285162,114.855485,-9418.149754
2126.881395,133.998066,114.855485,-9418.149754
2126.882023,153.140646,133.998066,-9437.292334
2126.882650,76.570323,114.855485,-9418.149754
2126.883277,133.998066,172.283227,-9494.720077
2126.883904,76.570323,114.855485,-9437.292334
2126.884532,57.427742,114.855485,-9456.434915
2126.885159,133.998066,114.855485,-9418.149754
2126.885786,76.570323,153.140646,-9418.149754
2126.886413,133.998066,114.855485,-9418.149754
2126.887041,153.140646,133.998066,-9399.007173
2126.887668,133.998066,114.855485,-9418.149754
2126.888295,95.712904,172.283227,-9437.292334
2126.888922,76.570323,172.283227,-9456.434915
2126.889550,114.855485,95.712904,-9437.292334
2126.890177,114.855485,172.283227,-9418.149754
2126.890804,76.570323,191.425808,-9456.434915
2126.891431,76.570323,153.140646,-9418.149754
2126.892059,76.570323,153.140646,-9456.434915
2126.892686,76.570323,114.855485,-9437.292334
2126.893313,133.998066,153.140646,-9418.149754
2126.893940,76.570323,114.855485,-9418.149754
2126.894567,76.570323,114.855485,-9418.149754
2126.895195,95.712904,210.568389,-9399.007173
2126.895822,38.285162,114.855485,-9418.149754
2126.896449,38.285162,114.855485,-9418.149754
2126.897076,38.285162,114.855485,-9437.292334
2126.897704,76.570323,172.283227,-9475.577496
2126.898331,76.570323,153.140646,-9418.149754
2126.898958,19.142581,153.140646,-9418.149754
2126.899585,38.285162,153.140646,-9456.434915
2126.900212,76.570323,114.855485,-9418.149754
2126.900840,57.427742,95.712904,-9399.007173
2126.901467,57.427742,95.712904,-9399.007173
2126.902094,76.570323,172.283227,-9418.149754
2126.902721,133.998066,172.283227,-9456.434915
2126.903349,114.855485,191.425808,-9360.722011
2126.903976,153.140646,153.140646,-9475.577496
2126.904603,76.570323,172.283227,-9437.292334
2126.905230,133.998066,172.283227,-9456.434915
2126.905857,133.998066,172.283227,-9418.149754
2126.906485,133.998066,210.568389,-9418.149754
2126.907112,133.998066,114.855485,-9437.292334
2126.907739,133.998066,210.568389,-9418.149754
2126.908366,57.427742,153.140646,-9418.149754
2126.908994,76.570323,191.425808,-9437.292334
2126.909621,133.998066,229.710970,-9418.149754
2126.910248,133.998066,210.568389,-9475.577496
2126.910875,76.570323,153.140646,-9437.292334
2126.911502,76.570323,172.283227,-9456.434915
2126.912130,153.140646,248.853550,-9399.007173
2126.912757,133.998066,210.568389,-9418.149754
2126.913384,38.285162,210.568389,-9456.434915
2126.914011,133.998066,114.855485,-9418.149754
2126.914639,76.570323,172.283227,-9437.292334
2126.915266,76.570323,114.855485,-9418.149754
2126.915893,0.000000,191.425808,-9360.722011
2126.916520,38.285162,114.855485,-9437.292334
2126.917147,133.998066,114.855485,-9437.292334
2126.917775,133.998066,114.855485,-9418.149754
2126.918402,133.998066,153.140646,-9437.292334
2126.919029,133.998066,210.568389,-9418.149754
2126.919656,76.570323,153.140646,-9475.577496
2126.920284,133.998066,114.855485,-9418.149754
2126.920911,133.998066,114.855485,-9437.292334
2126.921538,76.570323,114.855485,-9437.292334
2126.922165,133.998066,114.855485,-9437.292334
2126.922792,133.998066,114.855485,-9418.149754
2126.923420,76.570323,153.140646,-9533.005238
2126.924047,95.712904,172.283227,-9533.005238
2126.924674,57.427742,114.855485,-9456.434915
2126.925301,76.570323,114.855485,-9418.149754
2126.925929,133.998066,191.425808,-9418.149754
2126.926556,95.712904,153.140646,-9475.577496
2126.927183,114.855485,76.570323,-9437.292334
2126.927810,133.998066,114.855485,-9418.149754
2126.928437,38.285162,191.425808,-9456.434915
2126.929065,133.998066,191.425808,-9418.149754
2126.929692,76.570323,210.568389,-9418.149754
2126.930319,76.570323,114.855485,-9437.292334
2126.930946,133.998066,210.568389,-9456.434915
2126.931573,133.998066,172.283227,-9456.434915
2126.932201,133.998066,210.568389,-9418.149754
2126.932828,76.570323,210.568389,-9418.149754
2126.933455,38.285162,114.855485,-9418.149754
2126.934082,133.998066,153.140646,-9418.149754
2126.934710,133.998066,114.855485,-9418.149754
2126.935337,38.285162,114.855485,-9418.149754
2126.935964,76.570323,95.712904,-9456.434915
2126.936591,76.570323,95.712904,-9399.007173
2126.937218,133.998066,114.855485,-9418.149754
2126.937846,38.285162,114.855485,-9418.149754
2126.938473,114.855485,95.712904,-9399.007173
2126.939100,76.570323,114.855485,-9456.434915
2126.939727,95.712904,95.712904,-9399.007173
2126.940355,133.998066,172.283227,-9456.434915
2126.940982,76.570323,172.283227,-9418.149754
2126.941609,38.285162,114.855485,-9456.434915
2126.942236,114.855485,133.998066,-9360.722011
2126.942863,153.140646,248.853550,-9456.434915
2126.943491,76.570323,153.140646,-9418.149754
2126.944118,95.712904,153.140646,-9418.149754
2126.944745,76.570323,114.855485,-9437.292334
2126.945372,76.570323,114.855485,-9456.434915
2126.946000,76.570323,114.855485,-9437.292334
2126.946627,76.570323,114.855485,-9456.434915
2126.947254,76.570323,210.568389,-9418.149754
2126.947881,76.570323,114.855485,-9475.577496
2126.948508,57.427742,114.855485,-9418.149754
2126.949136,153.140646,191.425808,-9437.292334
2126.949763,133.998066,229.710970,-9437.292334
2126.950390,153.140646,153.140646,-9456.434915
2126.951017,133.998066,153.140646,-9418.149754
2126.951645,114.855485,114.855485,-9399.007173
2126.952272,172.283227,133.998066,-9418.149754
2126.952899,76.570323,76.570323,-9379.864592
2126.953526,76.570323,114.855485,-9418.149754
2126.954153,76.570323,114.855485,-9418.149754
2126.954781,76.570323,114.855485,-9418.149754
2126.955408,133.998066,114.855485,-9437.292334
2126.956035,76.570323,172.283227,-9437.292334
2126.956662,76.570323,114.855485,-9418.149754
2126.957289,57.427742,114.855485,-9456.434915
2126.957917,153.140646,133.998066,-9399.007173
2126.958544,114.855485,114.855485,-9399.007173
2126.959171,76.570323,114.855485,-9418.149754
2126.959798,38.285162,114.855485,-9475.577496
2126.960426,76.570323,114.855485,-9418.149754
2126.961053,133.998066,114.855485,-9437.292334
2126.961680,76.570323,114.855485,-9437.292334
2126.962307,153.140646,153.140646,-9437.292334
2126.962934,76.570323,153.140646,-9418.149754
2126.963562,133.998066,114.855485,-9456.434915
2126.964189,153.140646,133.998066,-9475.577496
2126.964816,76.570323,114.855485,-9456.434915
2126.965443,76.570323,114.855485,-9533.005238
2126.966071,76.570323,210.568389,-9456.434915
2126.966698,38.285162,114.855485,-9437.292334
2126.967325,38.285162,210.568389,-9456.434915
2126.967952,133.998066,114.855485,-9418.149754
2126.968579,76.570323,114.855485,-9418.149754
2126.969207,76.570323,114.855485,-9418.149754
2126.969834,133.998066,153.140646,-9437.292334
2126.970461,114.855485,133.998066,-9360.722011
2126.971088,76.570323,114.855485,-9456.434915
2126.971716,76.570323,114.855485,-9418.149754
2126.972343,76.570323,210.568389,-9418.149754
2126.972970,76.570323,114.855485,-9418.149754
2126.973597,76.570323,114.855485,-9456.434915
2126.974224,76.570323,114.855485,-9341.579430
2126.974852,95.712904,172.283227,-9360.722011
2126.975479,133.998066,114.855485,-9418.149754
2126.976106,133.998066,114.855485,-9418.149754
2126.976733,76.570323,114.855485,-9456.434915
2126.977361,76.570323,172.283227,-9456.434915
2126.977988,76.570323,172.283227,-9418.149754
2126.978615,76.570323,153.140646,-9418.149754
2126.979242,133.998066,191.425808,-9456.434915
2126.979869,133.998066,210.568389,-9418.149754
2126.980497,76.570323,114.855485,-9360.722011
2126.981124,153.140646,153.140646,-9456.434915
2126.981751,76.570323,114.855485,-9475.577496
2126.982378,153.140646,133.998066,-9437.292334
2126.983006,133.998066,153.140646,-9437.292334
2126.983633,153.140646,210.568389,-9437.292334
2126.984260,76.570323,114.855485,-9456.434915
2126.984887,95.712904,133.998066,-9360.722011
2126.985514,76.570323,114.855485,-9437.292334
2126.986142,76.570323,229.710970,-9418.149754
2126.986769,114.855485,210.568389,-9513.862658
2126.987396,76.570323,172.283227,-9456.434915
2126.988023,76.570323,153.140646,-9437.292334
2126.988650,114.855485,172.283227,-9360.722011
2126.989278,133.998066,153.140646,-9475.577496
2126.989905,133.998066,153.140646,-9418.149754
2126.990532,153.140646,153.140646,-9399.007173
2126.991159,153.140646,191.425808,-9399.007173
2126.991787,114.855485,114.855485,-9379.864592
2126.992414,153.140646,172.283227,-9456.434915
2126.993041,76.570323,172.283227,-9418.149754
2126.993668,76.570323,114.855485,-9418.149754
2126.994295,76.570323,114.855485,-9418.149754
2126.994923,133.998066,114.855485,-9418.149754
2126.995550,133.998066,114.855485,-9456.434915
2126.996177,38.285162,114.855485,-9437.292334
2126.996804,76.570323,153.140646,-9494.720077
2126.997432,76.570323,172.283227,-9418.149754
2126.998059,95.712904,153.140646,-9322.436850
2126.998687,76.570323,153.140646,-9418.149754
2126.999314,95.712904,95.712904,-9456.434915
2126.999941,95.712904,114.855485,-9456.434915
2127.000569,38.285162,114.855485,-9418.149754
2127.001196,114.855485,95.712904,-9494.720077
2127.001823,172.283227,114.855485,-9379.864592
2127.002451,76.570323,114.855485,-9418.149754
2127.003078,133.998066,153.140646,-9418.149754
2127.003706,76.570323,114.855485,-9418.149754
2127.004333,133.998066,172.283227,-9418.149754
2127.004960,95.712904,114.855485,-9399.007173
2127.005588,133.998066,153.140646,-9437.292334
2127.006215,57.427742,172.283227,-9475.577496
2127.006843,76.570323,114.855485,-9437.292334
2127.007470,133.998066,153.140646,-9418.149754
2127.008097,57.427742,210.568389,-9418.149754
2127.008725,76.570323,172.283227,-9418.149754
2127.009352,133.998066,114.855485,-9418.149754
2127.009980,133.998066,114.855485,-9418.149754
2127.010607,153.140646,133.998066,-9456.434915
2127.011234,133.998066,133.998066,-9379.864592
2127.011862,76.570323,114.855485,-9418.149754
2127.012489,133.998066,210.568389,-9418.149754
2127.013117,76.570323,153.140646,-9437.292334
2127.013744,38.285162,114.855485,-9418.149754
2127.014371,133.998066,114.855485,-9456.434915
2127.014999,95.712904,95.712904,-9456.434915
2127.015626,57.427742,172.283227,-9456.434915
2127.016254,76.570323,114.855485,-9418.149754
2127.016881,95.712904,95.712904,-9399.007173
2127.017508,57.427742,191.425808,-9360.722011
2127.018136,133.998066,114.855485,-9418.149754
2127.018763,76.570323,114.855485,-9437.292334
2127.019390,114.855485,76.570323,-9456.434915
2127.020018,57.427742,114.855485,-9494.720077
2127.020645,95.712904,95.712904,-9437.292334
2127.021273,133.998066,114.855485,-9437.292334
2127.021900,76.570323,114.855485,-9437.292334
2127.022527,133.998066,172.283227,-9494.720077
2127.023155,133.998066,172.283227,-9437.292334
2127.023782,95.712904,133.998066,-9360.722011
2127.024410,133.998066,172.283227,-9418.149754
2127.025037,153.140646,133.998066,-9437.292334
2127.025664,76.570323,153.140646,-9418.149754
2127.026292,76.570323,172.283227,-9418.149754
2127.026919,153.140646,172.283227,-9437.292334
2127.027547,76.570323,114.855485,-9418.149754
2127.028174,114.855485,172.283227,-9360.722011
2127.028801,133.998066,172.283227,-9418.149754
2127.029429,76.570323,172.283227,-9360.722011
2127.030056,133.998066,210.568389,-9418.149754
2127.030684,76.570323,114.855485,-9418.149754
2127.031311,76.570323,114.855485,-9418.149754
2127.031938,114.855485,114.855485,-9379.864592
2127.032566,95.712904,172.283227,-9360.722011
2127.033193,95.712904,133.998066,-9360.722011
2127.033821,95.712904,114.855485,-9418.149754
2127.034448,76.570323,172.283227,-9418.149754
2127.035075,38.285162,114.855485,-9456.434915
2127.035703,57.427742,172.283227,-9360.722011
2127.036330,57.427742,95.712904,-9399.007173
2127.036957,133.998066,114.855485,-9437.292334
2127.037585,57.427742,95.712904,-9456.434915
2127.038212,133.998066,114.855485,-9418.149754
2127.038840,153.140646,133.998066,-9456.434915
2127.039467,95.712904,114.855485,-9418.149754
2127.040094,133.998066,114.855485,-9418.149754
2127.040722,133.998066,114.855485,-9418.149754
2127.041349,133.998066,114.855485,-9418.149754
2127.041977,133.998066,114.855485,-9418.149754
2127.042604,153.140646,153.140646,-9456.434915
2127.043231,133.998066,153.140646,-9475.577496
2127.043859,133.998066,114.855485,-9418.149754
2127.044486,133.998066,153.140646,-9437.292334
2127.045114,76.570323,114.855485,-9456.434915
2127.045741,76.570323,114.855485,-9418.149754
2127.046368,153.140646,210.568389,-9399.007173
2127.046996,133.998066,229.710970,-9437.292334
2127.047623,76.570323,172.283227,-9418.149754
2127.048251,76.570323,172.283227,-9475.577496
2127.048878,76.570323,153.140646,-9418.149754
2127.049505,57.427742,133.998066,-9418.149754
2127.050133,114.855485,172.283227,-9360.722011
2127.050760,76.570323,114.855485,-9418.149754
2127.051388,76.570323,114.855485,-9437.292334
2127.052015,133.998066,114.855485,-9456.434915
2127.052642,95.712904,95.712904,-9399.007173
2127.053270,76.570323,114.855485,-9475.577496
2127.053897,76.570323,114.855485,-9437.292334
2127.054524,76.570323,114.855485,-9437.292334
2127.055152,38.285162,76.570323,-9379.864592
2127.055779,0.000000,95.712904,-9437.292334
2127.056407,57.427742,95.712904,-9399.007173
2127.057034,19.142581,133.998066,-9399.007173
2127.057661,153.140646,114.855485,-9418.149754
2127.058289,153.140646,133.998066,-9399.007173
2127.058916,133.998066,114.855485,-9418.149754
2127.059544,95.712904,153.140646,-9360.722011
2127.060171,76.570323,229.710970,-9418.149754
2127.060798,95.712904,153.140646,-9418.149754
2127.061426,76.570323,114.855485,-9418.149754
2127.062053,76.570323,153.140646,-9418.149754
2127.062681,38.285162,114.855485,-9418.149754
2127.063308,38.285162,114.855485,-9456.434915
2127.063935,133.998066,229.710970,-9475.577496
2127.064563,133.998066,210.568389,-9418.149754
2127.065190,38.285162,153.140646,-9418.149754
2127.065818,114.855485,191.425808,-9341.579430
2127.066445,76.570323,191.425808,-9494.720077
2127.067072,76.570323,172.283227,-9418.149754
2127.067700,76.570323,172.283227,-9418.149754
2127.068327,133.998066,153.140646,-9418.149754
2127.068955,76.570323,153.140646,-9456.434915
2127.069582,57.427742,95.712904,-9399.007173
2127.070209,133.998066,191.425808,-9399.007173
2127.070837,133.998066,76.570323,-9379.864592
2127.071464,76.570323,114.855485,-9418.149754
2127.072091,133.998066,114.855485,-9418.149754
2127.072719,95.712904,95.712904,-9437.292334
2127.073346,76.570323,172.283227,-9418.149754
2127.073974,76.570323,172.283227,-9418.149754
2127.074601,76.570323,153.140646,-9418.149754
2127.075228,76.570323,114.855485,-9418.149754
2127.075856,114.855485,76.570323,-9437.292334
2127.076483,76.570323,95.712904,-9399.007173
2127.077111,38.285162,172.283227,-9437.292334
2127.077738,153.140646,133.998066,-9399.007173
2127.078365,76.570323,114.855485,-9456.434915
2127.078993,133.998066,191.425808,-9456.434915
2127.079620,133.998066,114.855485,-9418.149754
2127.080248,76.570323,114.855485,-9418.149754
2127.080875,153.140646,191.425808,-9456.434915
2127.081502,38.285162,114.855485,-9456.434915
2127.082130,133.998066,133.998066,-9399.007173
2127.082757,76.570323,210.568389,-9418.149754
2127.083385,133.998066,210.568389,-9437.292334
2127.084012,133.998066,114.855485,-9418.149754
2127.084639,153.140646,114.855485,-9456.434915
2127.085267,133.998066,153.140646,-9418.149754
2127.085894,76.570323,114.855485,-9418.149754
2127.086522,57.427742,153.140646,-9418.149754
2127.087149,57.427742,133.998066,-9360.722011
2127.087776,95.712904,191.425808,-9360.722011
2127.088404,57.427742,153.140646,-9360.722011
2127.089031,57.427742,172.283227,-9360.722011
2127.089658,95.712904,133.998066,-9360.722011
2127.090286,133.998066,114.855485,-9418.149754
2127.090913,76.570323,153.140646,-9418.149754
2127.091541,95.712904,133.998066,-9418.149754
2127.092168,57.427742,95.712904,-9399.007173
2127.092795,133.998066,210.568389,-9418.149754
2127.093423,114.855485,95.712904,-9399.007173
2127.094050,95.712904,172.283227,-9360.722011
2127.094678,95.712904,57.427742,-9399.007173
2127.095305,76.570323,114.855485,-9418.149754
2127.095932,133.998066,153.140646,-9418.149754
2127.096560,153.140646,114.855485,-9418.149754
2127.097187,76.570323,114.855485,-9494.720077
2127.097815,38.285162,153.140646,-9437.292334
2127.098442,38.285162,172.283227,-9456.434915
2127.099070,153.140646,114.855485,-9418.149754
2127.099698,133.998066,114.855485,-9456.434915
2127.100325,133.998066,172.283227,-9456.434915
2127.100953,133.998066,114.855485,-9456.434915
2127.101580,57.427742,114.855485,-9418.149754
2127.102208,38.285162,191.425808,-9418.149754
2127.102835,95.712904,172.283227,-9418.149754
2127.103463,133.998066,114.855485,-9418.149754
2127.104091,153.140646,133.998066,-9399.007173
2127.104718,95.712904,210.568389,-9418.149754
2127.105346,95.712904,153.140646,-9475.577496
2127.105973,133.998066,114.855485,-9418.149754
2127.106601,133.998066,114.855485,-9418.149754
2127.107229,133.998066,133.998066,-9399.007173
2127.107856,95.712904,133.998066,-9341.579430
2127.108484,153.140646,133.998066,-9399.007173
2127.109111,76.570323,114.855485,-9418.149754
2127.109739,76.570323,114.855485,-9494.720077
2127.110366,76.570323,114.855485,-9418.149754
2127.110994,76.570323,95.712904,-9399.007173
2127.111622,95.712904,95.712904,-9399.007173
2127.112249,57.427742,114.855485,-9418.149754
2127.112877,38.285162,114.855485,-9418.149754
2127.113504,95.712904,114.855485,-9456.434915
2127.114132,133.998066,191.425808,-9494.720077
2127.114760,133.998066,153.140646,-9437.292334
2127.115387,133.998066,114.855485,-9418.149754
2127.116015,38.285162,172.283227,-9418.149754
2127.116642,76.570323,133.998066,-9360.722011
2127.117270,76.570323,172.283227,-9437.292334
2127.117897,19.142581,153.140646,-9456.434915
2127.118525,95.712904,133.998066,-9360.722011
2127.119153,133.998066,133.998066,-9399.007173
2127.119780,76.570323,114.855485,-9437.292334
2127.120408,133.998066,210.568389,-9418.149754
2127.121035,133.998066,153.140646,-9475.577496
2127.121663,38.285162,114.855485,-9456.434915
2127.122291,19.142581,153.140646,-9418.149754
2127.122918,38.285162,114.855485,-9418.149754
2127.123546,133.998066,133.998066,-9399.007173
2127.124173,76.570323,114.855485,-9418.149754
2127.124801,76.570323,114.855485,-9456.434915
2127.125428,76.570323,153.140646,-9456.434915
2127.126056,76.570323,172.283227,-9475.577496
2127.126684,57.427742,153.140646,-9418.149754
2127.127311,57.427742,95.712904,-9399.007173
2127.127939,76.570323,114.855485,-9437.292334
2127.128566,133.998066,114.855485,-9418.149754
2127.129194,95.712904,133.998066,-9360.722011
2127.129822,76.570323,114.855485,-9418.149754
2127.130449,76.570323,114.855485,-9418.149754
2127.131077,133.998066,114.855485,-9418.149754
2127.131704,153.140646,133.998066,-9399.007173
2127.132332,133.998066,133.998066,-9399.007173
2127.132959,133.998066,114.855485,-9418.149754
2127.133587,38.285162,95.712904,-9399.007173
2127.134215,38.285162,114.855485,-9437.292334
2127.134842,133.998066,114.855485,-9418.149754
2127.135470,76.570323,114.855485,-9418.149754
2127.136097,133.998066,114.855485,-9418.149754
2127.136725,38.285162,114.855485,-9418.149754
2127.137353,76.570323,114.855485,-9437.292334
2127.137980,133.998066,114.855485,-9475.577496
2127.138608,133.998066,114.855485,-9456.434915
2127.139235,95.712904,114.855485,-9475.577496
2127.139863,76.570323,114.855485,-9418.149754
2127.140490,133.998066,172.283227,-9437.292334
2127.141118,95.712904,133.998066,-9533.005238
2127.141746,38.285162,114.855485,-9533.005238
2127.142373,38.285162,172.283227,-9475.577496
2127.143001,38.285162,172.283227,-9475.577496
2127.143628,76.570323,153.140646,-9494.720077
2127.144256,57.427742,153.140646,-9456.434915
2127.144884,76.570323,210.568389,-9418.149754
2127.145511,133.998066,114.855485,-9475.577496
2127.146139,114.855485,95.712904,-9399.007173
2127.146766,153.140646,153.140646,-9399.007173
2127.147394,153.140646,172.283227,-9379.864592
2127.148021,95.712904,172.283227,-9360.722011
2127.148649,76.570323,114.855485,-9456.434915
2127.149277,76.570323,114.855485,-9418.149754
2127.149904,133.998066,114.855485,-9418.149754
2127.150532,95.712904,95.712904,-9399.007173
2127.151159,114.855485,95.712904,-9399.007173
2127.151787,153.140646,114.855485,-9418.149754
2127.152415,76.570323,114.855485,-9475.577496
2127.153042,76.570323,172.283227,-9437.292334
2127.153670,95.712904,153.140646,-9437.292334
2127.154297,133.998066,191.425808,-9437.292334
2127.154925,38.285162,114.855485,-9418.149754
2127.155552,210.568389,133.998066,-9456.434915
2127.156180,153.140646,133.998066,-9399.007173
2127.156808,133.998066,114.855485,-9475.577496
2127.157435,153.140646,153.140646,-9456.434915
2127.158063,153.140646,172.283227,-9418.149754
2127.158690,76.570323,153.140646,-9437.292334
2127.159318,133.998066,114.855485,-9437.292334
2127.159946,19.142581,172.283227,-9418.149754
2127.160573,76.570323,153.140646,-9418.149754
2127.161201,133.998066,114.855485,-9418.149754
2127.161828,76.570323,153.140646,-9418.149754
2127.162456,133.998066,153.140646,-9494.720077
2127.163083,76.570323,114.855485,-9475.577496
2127.163711,76.570323,210.568389,-9418.149754
2127.164339,76.570323,153.140646,-9437.292334
2127.164966,133.998066,133.998066,-9379.864592
2127.165594,95.712904,172.283227,-9418.149754
2127.166221,153.140646,153.140646,-9399.007173
2127.166849,172.283227,114.855485,-9379.864592
2127.167477,76.570323,114.855485,-9418.149754
2127.168104,114.855485,133.998066,-9360.722011
2127.168732,76.570323,114.855485,-9418.149754
2127.169359,133.998066,114.855485,-9418.149754
2127.169987,95.712904,133.998066,-9360.722011
2127.170614,38.285162,114.855485,-9418.149754
2127.171242,95.712904,114.855485,-9418.149754
2127.171870,95.712904,95.712904,-9399.007173
2127.172497,76.570323,114.855485,-9418.149754
2127.173125,95.712904,191.425808,-9418.149754
2127.173752,38.285162,114.855485,-9418.149754
2127.174380,133.998066,114.855485,-9418.149754
2127.175008,114.855485,114.855485,-9494.720077
2127.175635,153.140646,133.998066,-9399.007173
2127.176263,114.855485,95.712904,-9399.007173
2127.176890,172.283227,76.570323,-9456.434915
2127.177518,133.998066,210.568389,-9437.292334
2127.178145,133.998066,153.140646,-9399.007173
2127.178773,133.998066,114.855485,-9456.434915
2127.179401,133.998066,191.425808,-9399.007173
2127.180028,133.998066,114.855485,-9437.292334
2127.180656,76.570323,172.283227,-9475.577496
2127.181283,133.998066,153.140646,-9437.292334
2127.181911,133.998066,172.283227,-9418.149754
2127.182539,76.570323,172.283227,-9418.149754
2127.183166,76.570323,114.855485,-9418.149754
2127.183794,76.570323,114.855485,-9418.149754
2127.184421,76.570323,114.855485,-9418.149754
2127.185049,76.570323,229.710970,-9418.149754
2127.185676,76.570323,172.283227,-9475.577496
2127.186304,95.712904,172.283227,-9437.292334
2127.186932,57.427742,210.568389,-9418.149754
2127.187559,133.998066,153.140646,-9418.149754
2127.188187,76.570323,114.855485,-9418.149754
2127.188814,76.570323,191.425808,-9437.292334
2127.189442,38.285162,172.283227,-9418.149754
2127.190069,95.712904,153.140646,-9360.722011
2127.190697,114.855485,153.140646,-9379.864592
2127.191325,114.855485,95.712904,-9399.007173
2127.191952,114.855485,133.998066,-9360.722011
2127.192580,133.998066,114.855485,-9418.149754
2127.193207,133.998066,172.283227,-9418.149754
2127.193835,76.570323,153.140646,-9475.577496
2127.194463,76.570323,114.855485,-9456.434915
2127.195090,153.140646,133.998066,-9456.434915
2127.195718,172.283227,95.712904,-9475.577496
2127.196345,153.140646,133.998066,-9399.007173
2127.196973,133.998066,172.283227,-9437.292334
2127.197600,76.570323,210.568389,-9475.577496
2127.198228,133.998066,191.425808,-9418.149754
2127.198855,133.998066,133.998066,-9399.007173
2127.199483,76.570323,210.568389,-9456.434915
2127.200110,57.427742,210.568389,-9456.434915
2127.200738,133.998066,133.998066,-9399.007173
2127.201365,76.570323,210.568389,-9456.434915
2127.201993,133.998066,114.855485,-9437.292334
2127.202620,133.998066,153.140646,-9418.149754
2127.203248,95.712904,153.140646,-9360.722011
2127.203875,133.998066,172.283227,-9418.149754
2127.204503,133.998066,210.568389,-9418.149754
2127.205130,133.998066,210.568389,-9418.149754
2127.205758,133.998066,172.283227,-9418.149754
2127.206385,57.427742,114.855485,-9475.577496
2127.207013,38.285162,114.855485,-9418.149754
2127.207640,76.570323,95.712904,-9399.007173
2127.208268,153.140646,133.998066,-9494.720077
2127.208895,153.140646,133.998066,-9399.007173
2127.209523,114.855485,95.712904,-9399.007173
2127.210150,76.570323,153.140646,-9418.149754
2127.210778,76.570323,114.855485,-9456.434915
2127.211405,76.570323,114.855485,-9418.149754
2127.212033,76.570323,114.855485,-9418.149754
2127.212660,95.712904,114.855485,-9456.434915
2127.213288,76.570323,114.855485,-9437.292334
2127.213915,172.283227,114.855485,-9494.720077
2127.214543,153.140646,153.140646,-9533.005238
2127.215170,133.998066,172.283227,-9418.149754
2127.215798,95.712904,114.855485,-9475.577496
2127.216425,133.998066,114.855485,-9437.292334
2127.217053,95.712904,114.855485,-9418.149754
2127.217680,95.712904,95.712904,-9399.007173
2127.218308,76.570323,153.140646,-9437.292334
2127.218935,76.570323,114.855485,-9418.149754
2127.219563,95.712904,210.568389,-9456.434915
2127.220190,133.998066,133.998066,-9399.007173
2127.220818,95.712904,114.855485,-9418.149754
2127.221445,76.570323,172.283227,-9418.149754
2127.222073,95.712904,114.855485,-9418.149754
2127.222700,133.998066,153.140646,-9418.149754
2127.223328,133.998066,133.998066,-9437.292334
2127.223955,153.140646,133.998066,-9456.434915
2127.224583,133.998066,114.855485,-9418.149754
2127.225210,76.570323,114.855485,-9418.149754
2127.225838,76.570323,114.855485,-9418.149754
2127.226465,57.427742,172.283227,-9360.722011
2127.227093,38.285162,114.855485,-9418.149754
2127.227720,95.712904,153.140646,-9418.149754
2127.228348,133.998066,153.140646,-9418.149754
2127.228975,133.998066,114.855485,-9418.149754
2127.229603,133.998066,114.855485,-9437.292334
2127.230230,95.712904,133.998066,-9360.722011
2127.230858,95.712904,133.998066,-9360.722011
2127.231485,95.712904,95.712904,-9399.007173
2127.232113,95.712904,95.712904,-9399.007173
2127.232740,95.712904,95.712904,-9494.720077
2127.233368,133.998066,191.425808,-9456.434915
2127.233995,76.570323,153.140646,-9418.149754
2127.234623,76.570323,172.283227,-9418.149754
2127.235250,95.712904,114.855485,-9418.149754
2127.235878,133.998066,133.998066,-9399.007173
2127.236505,133.998066,114.855485,-9418.149754
2127.237133,76.570323,172.283227,-9418.149754
2127.237760,38.285162,172.283227,-9475.577496
2127.238388,76.570323,210.568389,-9456.434915
2127.239015,38.285162,114.855485,-9437.292334
2127.239643,76.570323,133.998066,-9360.722011
2127.240270,76.570323,210.568389,-9418.149754
2127.240898,133.998066,172.283227,-9418.149754
2127.241525,133.998066,153.140646,-9456.434915
2127.242153,153.140646,133.998066,-9399.007173
2127.242780,76.570323,172.283227,-9418.149754
2127.243408,76.570323,210.568389,-9418.149754
2127.244035,76.570323,133.998066,-9360.722011
2127.244663,133.998066,210.568389,-9437.292334
2127.245290,76.570323,172.283227,-9418.149754
2127.245918,57.427742,210.568389,-9418.149754
2127.246545,38.285162,114.855485,-9418.149754
2127.247173,38.285162,114.855485,-9418.149754
2127.247800,114.855485,133.998066,-9360.722011
2127.248428,133.998066,172.283227,-9437.292334
2127.249055,76.570323,114.855485,-9418.149754
2127.249683,76.570323,133.998066,-9360.722011
2127.250310,95.712904,114.855485,-9418.149754
2127.250938,76.570323,153.140646,-9418.149754
2127.251565,38.285162,114.855485,-9418.149754
2127.252193,153.140646,172.283227,-9456.434915
2127.252820,133.998066,114.855485,-9418.149754
2127.253448,76.570323,114.855485,-9456.434915
2127.254075,133.998066,114.855485,-9418.149754
2127.254703,133.998066,114.855485,-9418.149754
2127.255330,153.140646,133.998066,-9494.720077
2127.255958,133.998066,114.855485,-9456.434915
2127.256585,133.998066,114.855485,-9418.149754
2127.257213,133.998066,114.855485,-9418.149754
2127.257840,153.140646,153.140646,-9399.007173
2127.258468,133.998066,172.283227,-9437.292334
2127.259095,133.998066,153.140646,-9418.149754
2127.259723,76.570323,153.140646,-9437.292334
2127.260350,133.998066,172.283227,-9418.149754
2127.260978,95.712904,210.568389,-9456.434915
2127.261605,76.570323,153.140646,-9418.149754
2127.262233,57.427742,95.712904,-9399.007173
2127.262860,57.427742,95.712904,-9399.007173
2127.263488,95.712904,229.710970,-9456.434915
2127.264115,133.998066,153.140646,-9418.149754
2127.264743,76.570323,114.855485,-9418.149754
2127.265370,76.570323,114.855485,-9456.434915
2127.265998,38.285162,153.140646,-9418.149754
2127.266625,76.570323,114.855485,-9418.149754
2127.267253,114.855485,191.425808,-9360.722011
2127.267880,133.998066,172.283227,-9437.292334
2127.268508,95.712904,114.855485,-9418.149754
2127.269135,95.712904,114.855485,-9418.149754
2127.269763,95.712904,95.712904,-9475.577496
2127.270390,114.855485,95.712904,-9437.292334
2127.271018,114.855485,95.712904,-9399.007173
2127.271645,114.855485,133.998066,-9360.722011
2127.272273,76.570323,114.855485,-9418.149754
2127.272900,76.570323,172.283227,-9418.149754
2127.273528,133.998066,172.283227,-9437.292334
2127.274155,133.998066,114.855485,-9494.720077
2127.274783,76.570323,172.283227,-9418.149754
2127.275410,76.570323,153.140646,-9475.577496
2127.276038,76.570323,114.855485,-9437.292334
2127.276665,38.285162,114.855485,-9418.149754
2127.277293,57.427742,114.855485,-9456.434915
2127.277920,133.998066,172.283227,-9418.149754
2127.278548,95.712904,114.855485,-9418.149754
2127.279175,133.998066,172.283227,-9418.149754
2127.279803,76.570323,172.283227,-9418.149754
2127.280430,153.140646,172.283227,-9399.007173
2127.281058,76.570323,172.283227,-9475.577496
2127.281685,38.285162,114.855485,-9418.149754
2127.282313,95.712904,172.283227,-9418.149754
2127.282940,133.998066,114.855485,-9418.149754
2127.283568,133.998066,114.855485,-9418.149754
2127.284195,76.570323,153.140646,-9418.149754
2127.284823,57.427742,133.998066,-9360.722011
2127.285450,133.998066,172.283227,-9418.149754
2127.286078,172.283227,76.570323,-9418.149754
2127.286705,95.712904,114.855485,-9418.149754
2127.287333,57.427742,95.712904,-9399.007173
2127.287960,38.285162,114.855485,-9418.149754
2127.288588,76.570323,114.855485,-9418.149754
2127.289215,19.142581,114.855485,-9475.577496
2127.289843,38.285162,114.855485,-9418.149754
2127.290470,153.140646,133.998066,-9456.434915
2127.291098,38.285162,114.855485,-9418.149754
2127.291725,95.712904,172.283227,-9418.149754
2127.292353,95.712904,153.140646,-9360.722011
2127.292980,76.570323,210.568389,-9418.149754
2127.293608,133.998066,153.140646,-9475.577496
2127.294235,133.998066,114.855485,-9418.149754
2127.294863,76.570323,114.855485,-9418.149754
2127.295490,57.427742,114.855485,-9418.149754
2127.296118,133.998066,172.283227,-9456.434915
2127.296745,76.570323,114.855485,-9456.434915
2127.297373,38.285162,114.855485,-9475.577496
2127.298000,95.712904,114.855485,-9399.007173
2127.298627,76.570323,114.855485,-9475.577496
2127.299255,133.998066,210.568389,-9437.292334
2127.299882,38.285162,172.283227,-9456.434915
2127.300509,76.570323,172.283227,-9418.149754
2127.301137,76.570323,172.283227,-9418.149754
2127.301764,133.998066,114.855485,-9437.292334
2127.302392,95.712904,114.855485,-9360.722011
2127.303019,76.570323,114.855485,-9437.292334
2127.303646,38.285162,172.283227,-9456.434915
2127.304274,133.998066,114.855485,-9418.149754
2127.304901,38.285162,114.855485,-9418.149754
2127.305528,76.570323,114.855485,-9418.149754
2127.306156,114.855485,95.712904,-9399.007173
2127.306783,133.998066,114.855485,-9418.149754
2127.307410,133.998066,172.283227,-9418.149754
2127.308038,76.570323,114.855485,-9418.149754
2127.308665,114.855485,114.855485,-9399.007173
2127.309293,114.855485,95.712904,-9399.007173
2127.309920,114.855485,114.855485,-9399.007173
2127.310547,114.855485,95.712904,-9399.007173
2127.311175,153.140646,114.855485,-9418.149754
2127.311802,95.712904,114.855485,-9456.434915
2127.312429,210.568389,133.998066,-9456.434915
2127.313057,133.998066,114.855485,-9456.434915
2127.313684,38.285162,114.855485,-9418.149754
2127.314311,114.855485,95.712904,-9437.292334
2127.314939,76.570323,172.283227,-9418.149754
2127.315566,133.998066,172.283227,-9475.577496
2127.316193,95.712904,172.283227,-9418.149754
2127.316821,57.427742,229.710970,-9418.149754
2127.317448,76.570323,210.568389,-9456.434915
2127.318076,133.998066,172.283227,-9437.292334
2127.318703,114.855485,133.998066,-9360.722011
2127.319330,133.998066,153.140646,-9418.149754
2127.319958,133.998066,133.998066,-9437.292334
2127.320585,76.570323,191.425808,-9418.149754
2127.321212,95.712904,153.140646,-9360.722011
2127.321840,38.285162,210.568389,-9418.149754
2127.322467,76.570323,114.855485,-9418.149754
2127.323094,57.427742,133.998066,-9341.579430
2127.323722,95.712904,114.855485,-9437.292334
2127.324349,76.570323,114.855485,-9418.149754
2127.324976,76.570323,153.140646,-9418.149754
2127.325604,95.712904,114.855485,-9418.149754
2127.326231,76.570323,114.855485,-9418.149754
2127.326859,133.998066,114.855485,-9456.434915
2127.327486,133.998066,114.855485,-9437.292334
2127.328113,57.427742,114.855485,-9456.434915
2127.328741,133.998066,153.140646,-9418.149754
2127.329368,57.427742,133.998066,-9360.722011
2127.329995,76.570323,172.283227,-9418.149754
2127.330623,133.998066,114.855485,-9418.149754
2127.331250,76.570323,114.855485,-9418.149754
2127.331877,76.570323,114.855485,-9418.149754
2127.332505,133.998066,210.568389,-9475.577496
2127.333132,133.998066,114.855485,-9533.005238
2127.333760,133.998066,210.568389,-9437.292334
2127.334387,76.570323,114.855485,-9475.577496
2127.335014,133.998066,114.855485,-9418.149754
2127.335642,133.998066,191.425808,-9475.577496
2127.336269,114.855485,172.283227,-9379.864592
2127.336896,76.570323,210.568389,-9437.292334
2127.337524,76.570323,114.855485,-9475.577496
2127.338151,76.570323,153.140646,-9418.149754
2127.338778,76.570323,114.855485,-9418.149754
2127.339406,114.855485,133.998066,-9360.722011
2127.340033,133.998066,153.140646,-9360.722011
2127.340660,133.998066,114.855485,-9437.292334
2127.341288,114.855485,95.712904,-9399.007173
2127.341915,76.570323,114.855485,-9475.577496
2127.342543,153.140646,133.998066,-9399.007173
2127.343170,133.998066,114.855485,-9418.149754
2127.343797,133.998066,114.855485,-9418.149754
2127.344425,133.998066,153.140646,-9418.149754
2127.345052,133.998066,172.283227,-9399.007173
2127.345679,76.570323,114.855485,-9418.149754
2127.346307,57.427742,95.712904,-9399.007173
2127.346934,38.285162,114.855485,-9437.292334
2127.347561,76.570323,114.855485,-9456.434915
2127.348189,172.283227,153.140646,-9379.864592
2127.348816,76.570323,114.855485,-9418.149754
2127.349444,172.283227,76.570323,-9475.577496
2127.350071,172.283227,76.570323,-9418.149754
2127.350698,133.998066,172.283227,-9437.292334
2127.351326,133.998066,114.855485,-9437.292334
2127.351953,76.570323,114.855485,-9418.149754
2127.352580,133.998066,114.855485,-9437.292334
2127.353208,76.570323,114.855485,-9418.149754
2127.353835,76.570323,114.855485,-9437.292334
2127.354462,19.142581,114.855485,-9418.149754
2127.355090,76.570323,172.283227,-9437.292334
2127.355717,133.998066,114.855485,-9456.434915
2127.356344,114.855485,76.570323,-9437.292334
2127.356972,57.427742,114.855485,-9418.149754
2127.357599,57.427742,191.425808,-9494.720077
2127.358227,76.570323,153.140646,-9456.434915
2127.358854,114.855485,172.283227,-9322.436850
2127.359481,133.998066,114.855485,-9456.434915
2127.360109,133.998066,210.568389,-9418.149754
2127.360736,133.998066,114.855485,-9437.292334
2127.361363,133.998066,114.855485,-9418.149754
2127.361991,133.998066,114.855485,-9456.434915
2127.362618,133.998066,114.855485,-9437.292334
2127.363245,95.712904,95.712904,-9399.007173
2127.363873,95.712904,95.712904,-9399.007173
2127.364500,133.998066,172.283227,-9494.720077
2127.365128,76.570323,114.855485,-9456.434915
2127.365755,133.998066,153.140646,-9418.149754
2127.366382,153.140646,133.998066,-9399.007173
2127.367010,76.570323,114.855485,-9418.149754
2127.367637,133.998066,114.855485,-9418.149754
2127.368264,76.570323,114.855485,-9418.149754
2127.368892,38.285162,172.283227,-9418.149754
2127.369519,76.570323,153.140646,-9533.005238
2127.370146,153.140646,172.283227,-9399.007173
2127.370774,133.998066,172.283227,-9418.149754
2127.371401,133.998066,114.855485,-9418.149754
2127.372028,133.998066,210.568389,-9418.149754
2127.372656,153.140646,133.998066,-9494.720077
2127.373283,133.998066,114.855485,-9456.434915
2127.373911,133.998066,153.140646,-9418.149754
2127.374538,133.998066,191.425808,-9418.149754
2127.375165,114.855485,172.283227,-9475.577496
2127.375793,133.998066,172.283227,-9418.149754
2127.376420,76.570323,153.140646,-9418.149754
2127.377047,133.998066,172.283227,-9418.149754
2127.377675,133.998066,172.283227,-9418.149754
2127.378302,133.998066,172.283227,-9418.149754
2127.378929,133.998066,172.283227,-9418.149754
2127.379557,57.427742,172.283227,-9360.722011
2127.380184,76.570323,114.855485,-9418.149754
2127.380812,76.570323,114.855485,-9475.577496
2127.381439,95.712904,172.283227,-9418.149754
2127.382066,133.998066,153.140646,-9418.149754
2127.382694,133.998066,76.570323,-9379.864592
2127.383321,95.712904,114.855485,-9418.149754
2127.383948,57.427742,95.712904,-9494.720077
2127.384576,76.570323,153.140646,-9437.292334
2127.385203,95.712904,114.855485,-9418.149754
2127.385830,95.712904,114.855485,-9475.577496
2127.386458,133.998066,114.855485,-9418.149754
2127.387085,76.570323,114.855485,-9418.149754
2127.387712,133.998066,114.855485,-9418.149754
2127.388340,76.570323,114.855485,-9456.434915
2127.388967,76.570323,114.855485,-9418.149754
2127.389595,76.570323,172.283227,-9418.149754
2127.390222,76.570323,114.855485,-9418.149754
2127.390849,95.712904,133.998066,-9360.722011
2127.391477,76.570323,114.855485,-9418.149754
2127.392104,76.570323,172.283227,-9418.149754
2127.392731,76.570323,172.283227,-9418.149754
2127.393359,133.998066,210.568389,-9418.149754
2127.393986,133.998066,153.140646,-9418.149754
2127.394613,133.998066,114.855485,-9418.149754
2127.395241,76.570323,172.283227,-9418.149754
2127.395868,133.998066,153.140646,-9418.149754
2127.396496,133.998066,210.568389,-9418.149754
2127.397123,133.998066,133.998066,-9437.292334
2127.397750,133.998066,133.998066,-9399.007173
2127.398378,38.285162,114.855485,-9418.149754
2127.399005,153.140646,172.283227,-9399.007173
2127.399633,114.855485,287.138712,-9399.007173
2127.400260,153.140646,133.998066,-9399.007173
2127.400888,133.998066,172.283227,-9418.149754
2127.401515,133.998066,114.855485,-9418.149754
2127.402143,114.855485,133.998066,-9360.722011
2127.402771,95.712904,133.998066,-9360.722011
2127.403398,76.570323,191.425808,-9418.149754
2127.404026,76.570323,114.855485,-9418.149754
2127.404653,133.998066,114.855485,-9418.149754
2127.405281,95.712904,95.712904,-9475.577496
2127.405909,76.570323,114.855485,-9437.292334
2127.406536,38.285162,114.855485,-9418.149754
2127.407164,95.712904,95.712904,-9399.007173
2127.407791,95.712904,95.712904,-9399.007173
2127.408419,153.140646,133.998066,-9399.007173
2127.409046,133.998066,114.855485,-9437.292334
2127.409674,76.570323,114.855485,-9437.292334
2127.410302,153.140646,133.998066,-9399.007173
2127.410929,133.998066,133.998066,-9399.007173
2127.411557,153.140646,191.425808,-9456.434915
2127.412184,76.570323,191.425808,-9437.292334
2127.412812,76.570323,210.568389,-9456.434915
2127.413439,38.285162,153.140646,-9437.292334
2127.414067,57.427742,153.140646,-9475.577496
2127.414695,76.570323,114.855485,-9456.434915
2127.415322,153.140646,133.998066,-9399.007173
2127.415950,133.998066,210.568389,-9456.434915
2127.416577,133.998066,153.140646,-9418.149754
2127.417205,57.427742,133.998066,-9418.149754
2127.417833,114.855485,95.712904,-9437.292334
2127.418460,76.570323,172.283227,-9456.434915
2127.419088,133.998066,153.140646,-9437.292334
2127.419715,76.570323,210.568389,-9456.434915
2127.420343,95.712904,114.855485,-9456.434915
2127.420970,38.285162,114.855485,-9418.149754
2127.421598,76.570323,114.855485,-9418.149754
2127.422226,38.285162,210.568389,-9418.149754
2127.422853,38.285162,210.568389,-9418.149754
2127.423481,38.285162,95.712904,-9379.864592
2127.424108,95.712904,95.712904,-9399.007173
2127.424736,133.998066,114.855485,-9418.149754
2127.425363,95.712904,95.712904,-9399.007173
2127.425991,0.000000,95.712904,-9437.292334
2127.426619,153.140646,133.998066,-9399.007173
2127.427246,76.570323,114.855485,-9437.292334
2127.427874,114.855485,95.712904,-9456.434915
2127.428501,133.998066,114.855485,-9418.149754
2127.429129,76.570323,114.855485,-9437.292334
2127.429757,76.570323,114.855485,-9456.434915
2127.430384,95.712904,114.855485,-9456.434915
2127.431012,76.570323,172.283227,-9475.577496
2127.431639,133.998066,172.283227,-9475.577496
2127.432267,133.998066,210.568389,-9418.149754
2127.432894,76.570323,210.568389,-9456.434915
2127.433522,133.998066,114.855485,-9456.434915
2127.434150,133.998066,114.855485,-9418.149754
2127.434777,133.998066,114.855485,-9418.149754
2127.435405,114.855485,133.998066,-9418.149754
2127.436032,133.998066,153.140646,-9399.007173
2127.436660,19.142581,153.140646,-9360.722011
2127.437287,38.285162,210.568389,-9360.722011
2127.437915,133.998066,172.283227,-9418.149754
2127.438543,76.570323,153.140646,-9399.007173
2127.439170,114.855485,114.855485,-9379.864592
2127.439798,38.285162,114.855485,-9418.149754
2127.440425,76.570323,172.283227,-9418.149754
2127.441053,133.998066,114.855485,-9418.149754
2127.441680,153.140646,133.998066,-9399.007173
2127.442308,76.570323,114.855485,-9418.149754
2127.442936,172.283227,114.855485,-9379.864592
2127.443563,76.570323,114.855485,-9437.292334
2127.444191,95.712904,95.712904,-9399.007173
2127.444818,95.712904,114.855485,-9418.149754
2127.445446,76.570323,114.855485,-9475.577496
2127.446074,133.998066,114.855485,-9418.149754
2127.446701,153.140646,133.998066,-9475.577496
2127.447329,76.570323,114.855485,-9418.149754
2127.447956,133.998066,172.283227,-9418.149754
2127.448584,133.998066,191.425808,-9456.434915
2127.449211,153.140646,153.140646,-9494.720077
2127.449839,133.998066,210.568389,-9437.292334
2127.450467,153.140646,153.140646,-9456.434915
2127.451094,133.998066,172.283227,-9475.577496
2127.451722,76.570323,210.568389,-9456.434915
2127.452349,133.998066,153.140646,-9418.149754
2127.452977,114.855485,229.710970,-9456.434915
2127.453604,133.998066,153.140646,-9456.434915
