#time,accel_x,accel_y,accel_z
2055.287737,172.283227,133.998066,-9437.292334
2055.288364,114.855485,133.998066,-9360.722011
2055.288991,153.140646,133.998066,-9456.434915
2055.289618,95.712904,95.712904,-9399.007173
2055.290246,114.855485,114.855485,-9399.007173
2055.290873,153.140646,133.998066,-9437.292334
2055.291500,76.570323,172.283227,-9437.292334
2055.292127,76.570323,210.568389,-9456.434915
2055.292754,95.712904,95.712904,-9399.007173
2055.293382,95.712904,114.855485,-9475.577496
2055.294009,133.998066,114.855485,-9456.434915
2055.294636,95.712904,95.712904,-9456.434915
2055.295263,76.570323,114.855485,-9475.577496
2055.295890,133.998066,114.855485,-9418.149754
2055.296517,57.427742,153.140646,-9418.149754
2055.297145,57.427742,95.712904,-9437.292334
2055.297772,19.142581,114.855485,-9418.149754
2055.298399,133.998066,191.425808,-9418.149754
2055.299026,133.998066,114.855485,-9418.149754
2055.299653,95.712904,114.855485,-9418.149754
2055.300281,76.570323,153.140646,-9418.149754
2055.300908,133.998066,114.855485,-9418.149754
2055.301535,95.712904,95.712904,-9494.720077
2055.302162,57.427742,114.855485,-9399.007173
2055.302789,133.998066,153.140646,-9418.149754
2055.303416,76.570323,114.855485,-9418.149754
2055.304044,133.998066,114.855485,-9418.149754
2055.304671,153.140646,133.998066,-9399.007173
2055.305298,76.570323,114.855485,-9418.149754
2055.305925,133.998066,133.998066,-9456.434915
2055.306552,76.570323,172.283227,-9418.149754
2055.307180,76.570323,153.140646,-9399.007173
2055.307807,95.712904,153.140646,-9418.149754
2055.308434,76.570323,114.855485,-9456.434915
2055.309061,76.570323,114.855485,-9456.434915
2055.309688,38.285162,172.283227,-9418.149754
2055.310315,133.998066,114.855485,-9418.149754
2055.310943,153.140646,114.855485,-9456.434915
2055.311570,76.570323,114.855485,-9418.149754
2055.312197,76.570323,95.712904,-9418.149754
2055.312824,76.570323,114.855485,-9418.149754
2055.313451,57.427742,114.855485,-9418.149754
2055.314079,133.998066,114.855485,-9494.720077
2055.314706,95.712904,114.855485,-9437.292334
2055.315333,95.712904,114.855485,-9418.149754
2055.315960,76.570323,114.855485,-9494.720077
2055.316587,95.712904,114.855485,-9418.149754
2055.317215,76.570323,114.855485,-9418.149754
2055.317842,153.140646,210.568389,-9399.007173
2055.318469,133.998066,114.855485,-9418.149754
2055.319096,153.140646,153.140646,-9456.434915
2055.319723,133.998066,114.855485,-9418.149754
2055.320350,38.285162,114.855485,-9418.149754
2055.320978,133.998066,114.855485,-9418.149754
2055.321605,133.998066,114.855485,-9418.149754
2055.322232,76.570323,114.855485,-9418.149754
2055.322859,133.998066,114.855485,-9418.149754
2055.323486,153.140646,153.140646,-9399.007173
2055.324114,38.285162,114.855485,-9456.434915
2055.324741,153.140646,114.855485,-9418.149754
2055.325368,76.570323,114.855485,-9533.005238
2055.325995,19.142581,114.855485,-9494.720077
2055.326622,133.998066,114.855485,-9475.577496
2055.327249,76.570323,191.425808,-9456.434915
2055.327877,133.998066,114.855485,-9437.292334
2055.328504,76.570323,153.140646,-9456.434915
2055.329131,76.570323,114.855485,-9533.005238
2055.329758,95.712904,172.283227,-9437.292334
2055.330385,153.140646,133.998066,-9399.007173
2055.331013,153.140646,153.140646,-9513.862658
2055.331640,76.570323,114.855485,-9418.149754
2055.332267,95.712904,153.140646,-9456.434915
2055.332894,76.570323,114.855485,-9437.292334
2055.333521,38.285162,114.855485,-9418.149754
2055.334149,172.283227,76.570323,-9418.149754
2055.334776,133.998066,191.425808,-9379.864592
2055.335403,76.570323,114.855485,-9475.577496
2055.336030,76.570323,114.855485,-9494.720077
2055.336657,76.570323,114.855485,-9418.149754
2055.337284,76.570323,153.140646,-9418.149754
2055.337912,133.998066,114.855485,-9418.149754
2055.338539,38.285162,114.855485,-9418.149754
2055.339166,38.285162,153.140646,-9418.149754
2055.339793,133.998066,153.140646,-9456.434915
2055.340420,76.570323,114.855485,-9437.292334
2055.341048,133.998066,114.855485,-9418.149754
2055.341675,38.285162,114.855485,-9437.292334
2055.342302,76.570323,210.568389,-9418.149754
2055.342929,133.998066,133.998066,-9456.434915
2055.343557,133.998066,114.855485,-9437.292334
2055.344184,76.570323,114.855485,-9418.149754
2055.344811,133.998066,210.568389,-9418.149754
2055.345438,76.570323,114.855485,-9418.149754
2055.346066,76.570323,153.140646,-9418.149754
2055.346693,133.998066,133.998066,-9399.007173
2055.347320,95.712904,133.998066,-9418.149754
2055.347948,76.570323,172.283227,-9475.577496
2055.348575,76.570323,114.855485,-9418.149754
2055.349202,133.998066,133.998066,-9399.007173
2055.349829,76.570323,210.568389,-9418.149754
2055.350457,133.998066,133.998066,-9399.007173
2055.351084,38.285162,153.140646,-9418.149754
2055.351711,76.570323,172.283227,-9418.149754
2055.352338,76.570323,114.855485,-9418.149754
2055.352966,76.570323,114.855485,-9418.149754
2055.353593,76.570323,153.140646,-9418.149754
2055.354220,76.570323,114.855485,-9418.149754
2055.354847,172.283227,76.570323,-9456.434915
2055.355475,38.285162,114.855485,-9437.292334
2055.356102,76.570323,153.140646,-9418.149754
2055.356729,38.285162,95.712904,-9399.007173
2055.357357,38.285162,210.568389,-9418.149754
2055.357984,114.855485,95.712904,-9399.007173
2055.358611,95.712904,172.283227,-9418.149754
2055.359238,76.570323,210.568389,-9418.149754
2055.359866,57.427742,172.283227,-9418.149754
2055.360493,76.570323,172.283227,-9418.149754
2055.361120,38.285162,114.855485,-9418.149754
2055.361747,76.570323,114.855485,-9418.149754
2055.362375,76.570323,114.855485,-9437.292334
2055.363002,95.712904,95.712904,-9513.862658
2055.363629,95.712904,114.855485,-9418.149754
2055.364256,38.285162,114.855485,-9437.292334
2055.364884,76.570323,114.855485,-9418.149754
2055.365511,38.285162,172.283227,-9418.149754
2055.366138,57.427742,114.855485,-9399.007173
2055.366765,95.712904,153.140646,-9418.149754
2055.367393,133.998066,114.855485,-9437.292334
2055.368020,133.998066,133.998066,-9399.007173
2055.368647,133.998066,114.855485,-9418.149754
2055.369275,133.998066,153.140646,-9418.149754
2055.369902,133.998066,114.855485,-9418.149754
2055.370529,114.855485,133.998066,-9360.722011
2055.371156,76.570323,114.855485,-9418.149754
2055.371784,114.855485,114.855485,-9379.864592
2055.372411,38.285162,191.425808,-9456.434915
2055.373038,133.998066,153.140646,-9418.149754
2055.373665,57.427742,133.998066,-9360.722011
2055.374293,76.570323,210.568389,-9418.149754
2055.374920,153.140646,172.283227,-9399.007173
2055.375547,76.570323,114.855485,-9418.149754
2055.376174,38.285162,172.283227,-9437.292334
2055.376802,76.570323,114.855485,-9418.149754
2055.377429,38.285162,153.140646,-9437.292334
2055.378056,133.998066,172.283227,-9456.434915
2055.378684,38.285162,114.855485,-9418.149754
2055.379311,95.712904,114.855485,-9418.149754
2055.379938,172.283227,95.712904,-9399.007173
2055.380565,38.285162,172.283227,-9360.722011
2055.381193,76.570323,153.140646,-9418.149754
2055.381820,76.570323,172.283227,-9418.149754
2055.382447,38.285162,114.855485,-9418.149754
2055.383074,133.998066,153.140646,-9418.149754
2055.383702,76.570323,114.855485,-9418.149754
2055.384329,133.998066,153.140646,-9418.149754
2055.384956,153.140646,133.998066,-9399.007173
2055.385583,133.998066,133.998066,-9399.007173
2055.386211,57.427742,133.998066,-9360.722011
2055.386838,95.712904,133.998066,-9360.722011
2055.387465,114.855485,95.712904,-9399.007173
2055.388092,133.998066,172.283227,-9456.434915
2055.388720,133.998066,114.855485,-9418.149754
2055.389347,76.570323,172.283227,-9399.007173
2055.389974,95.712904,133.998066,-9360.722011
2055.390602,38.285162,114.855485,-9360.722011
2055.391229,95.712904,191.425808,-9418.149754
2055.391856,76.570323,172.283227,-9418.149754
2055.392483,76.570323,172.283227,-9418.149754
2055.393111,153.140646,153.140646,-9456.434915
2055.393738,133.998066,172.283227,-9418.149754
2055.394365,76.570323,114.855485,-9437.292334
2055.394992,76.570323,114.855485,-9399.007173
2055.395620,76.570323,172.283227,-9437.292334
2055.396247,114.855485,114.855485,-9418.149754
2055.396874,76.570323,172.283227,-9418.149754
2055.397501,133.998066,114.855485,-9475.577496
2055.398129,38.285162,229.710970,-9437.292334
2055.398756,133.998066,210.568389,-9418.149754
2055.399383,133.998066,172.283227,-9456.434915
2055.400011,95.712904,133.998066,-9360.722011
2055.400638,95.712904,95.712904,-9399.007173
2055.401265,133.998066,133.998066,-9399.007173
2055.401892,133.998066,153.140646,-9418.149754
2055.402520,38.285162,114.855485,-9475.577496
2055.403147,76.570323,133.998066,-9360.722011
2055.403774,76.570323,172.283227,-9418.149754
2055.404401,95.712904,114.855485,-9418.149754
2055.405029,114.855485,114.855485,-9379.864592
2055.405656,133.998066,172.283227,-9418.149754
2055.406283,76.570323,153.140646,-9418.149754
2055.406910,76.570323,114.855485,-9437.292334
2055.407538,153.140646,133.998066,-9437.292334
2055.408165,153.140646,191.425808,-9399.007173
2055.408792,76.570323,172.283227,-9418.149754
2055.409419,95.712904,114.855485,-9475.577496
2055.410047,38.285162,114.855485,-9418.149754
2055.410674,76.570323,95.712904,-9399.007173
2055.411301,133.998066,114.855485,-9418.149754
2055.411929,133.998066,172.283227,-9418.149754
2055.412556,133.998066,172.283227,-9418.149754
2055.413183,153.140646,114.855485,-9437.292334
2055.413810,76.570323,210.568389,-9418.149754
2055.414438,76.570323,114.855485,-9437.292334
2055.415065,76.570323,114.855485,-9456.434915
2055.415692,153.140646,172.283227,-9418.149754
2055.416319,76.570323,114.855485,-9418.149754
2055.416947,38.285162,114.855485,-9418.149754
2055.417574,133.998066,191.425808,-9418.149754
2055.418201,38.285162,229.710970,-9418.149754
2055.418828,133.998066,172.283227,-9418.149754
2055.419456,133.998066,114.855485,-9418.149754
2055.420083,76.570323,210.568389,-9418.149754
2055.420710,133.998066,114.855485,-9418.149754
2055.421338,95.712904,95.712904,-9399.007173
2055.421965,133.998066,114.855485,-9418.149754
2055.422592,76.570323,191.425808,-9418.149754
2055.423219,38.285162,172.283227,-9418.149754
2055.423847,38.285162,114.855485,-9418.149754
2055.424474,76.570323,114.855485,-9418.149754
2055.425101,95.712904,191.425808,-9360.722011
2055.425728,95.712904,114.855485,-9418.149754
2055.426356,76.570323,153.140646,-9418.149754
2055.426983,38.285162,114.855485,-9418.149754
2055.427610,76.570323,153.140646,-9418.149754
2055.428237,172.283227,76.570323,-9418.149754
2055.428865,95.712904,114.855485,-9418.149754
2055.429492,95.712904,133.998066,-9360.722011
2055.430119,133.998066,114.855485,-9437.292334
2055.430746,76.570323,114.855485,-9475.577496
2055.431374,133.998066,114.855485,-9437.292334
2055.432001,133.998066,210.568389,-9456.434915
2055.432628,133.998066,114.855485,-9418.149754
2055.433256,76.570323,114.855485,-9418.149754
2055.433883,95.712904,114.855485,-9437.292334
2055.434510,76.570323,172.283227,-9418.149754
2055.435137,38.285162,114.855485,-9418.149754
2055.435765,133.998066,133.998066,-9399.007173
2055.436392,76.570323,95.712904,-9437.292334
2055.437019,133.998066,191.425808,-9418.149754
2055.437646,114.855485,76.570323,-9418.149754
2055.438274,133.998066,229.710970,-9418.149754
2055.438901,95.712904,210.568389,-9418.149754
2055.439528,95.712904,153.140646,-9418.149754
2055.440155,76.570323,114.855485,-9418.149754
2055.440783,76.570323,114.855485,-9418.149754
2055.441410,57.427742,133.998066,-9360.722011
2055.442037,95.712904,133.998066,-9533.005238
2055.442665,76.570323,191.425808,-9418.149754
2055.443292,76.570323,210.568389,-9456.434915
2055.443919,76.570323,114.855485,-9418.149754
2055.444546,76.570323,114.855485,-9418.149754
2055.445174,57.427742,172.283227,-9360.722011
2055.445801,133.998066,114.855485,-9437.292334
2055.446429,76.570323,114.855485,-9437.292334
2055.447057,76.570323,114.855485,-9418.149754
2055.447685,76.570323,114.855485,-9418.149754
2055.448312,133.998066,153.140646,-9418.149754
2055.448940,95.712904,114.855485,-9418.149754
2055.449568,38.285162,153.140646,-9418.149754
2055.450196,76.570323,172.283227,-9418.149754
2055.450824,95.712904,153.140646,-9437.292334
2055.451452,76.570323,172.283227,-9418.149754
2055.452080,153.140646,172.283227,-9437.292334
2055.452708,57.427742,114.855485,-9418.149754
2055.453336,38.285162,172.283227,-9456.434915
2055.453964,95.712904,172.283227,-9418.149754
2055.454591,38.285162,114.855485,-9418.149754
2055.455219,153.140646,153.140646,-9475.577496
2055.455847,57.427742,114.855485,-9399.007173
2055.456475,19.142581,133.998066,-9399.007173
2055.457103,38.285162,114.855485,-9418.149754
2055.457731,57.427742,153.140646,-9418.149754
2055.458359,76.570323,172.283227,-9437.292334
2055.458987,76.570323,114.855485,-9418.149754
2055.459615,76.570323,114.855485,-9456.434915
2055.460243,133.998066,210.568389,-9418.149754
2055.460871,76.570323,114.855485,-9418.149754
2055.461498,95.712904,172.283227,-9418.149754
2055.462126,153.140646,114.855485,-9437.292334
2055.462754,76.570323,114.855485,-9456.434915
2055.463382,133.998066,114.855485,-9418.149754
2055.464010,133.998066,191.425808,-9456.434915
2055.464638,95.712904,95.712904,-9399.007173
2055.465266,153.140646,114.855485,-9399.007173
2055.465894,76.570323,210.568389,-9418.149754
2055.466522,76.570323,114.855485,-9418.149754
2055.467150,57.427742,133.998066,-9360.722011
2055.467777,76.570323,114.855485,-9418.149754
2055.468405,76.570323,114.855485,-9418.149754
2055.469033,38.285162,114.855485,-9418.149754
2055.469661,57.427742,153.140646,-9360.722011
2055.470289,133.998066,114.855485,-9418.149754
2055.470917,76.570323,210.568389,-9418.149754
2055.471545,133.998066,153.140646,-9418.149754
2055.472173,38.285162,210.568389,-9456.434915
2055.472801,133.998066,210.568389,-9418.149754
2055.473429,153.140646,153.140646,-9456.434915
2055.474057,133.998066,133.998066,-9399.007173
2055.474684,133.998066,210.568389,-9418.149754
2055.475312,76.570323,114.855485,-9418.149754
2055.475940,95.712904,210.568389,-9475.577496
2055.476568,133.998066,114.855485,-9418.149754
2055.477196,133.998066,153.140646,-9456.434915
2055.477824,38.285162,114.855485,-9418.149754
2055.478452,57.427742,95.712904,-9399.007173
2055.479080,57.427742,153.140646,-9456.434915
2055.479708,95.712904,114.855485,-9399.007173
2055.480336,76.570323,114.855485,-9418.149754
2055.480963,95.712904,114.855485,-9399.007173
2055.481591,95.712904,95.712904,-9456.434915
2055.482219,38.285162,114.855485,-9418.149754
2055.482847,133.998066,172.283227,-9418.149754
2055.483475,95.712904,114.855485,-9418.149754
2055.484103,133.998066,114.855485,-9418.149754
2055.484731,133.998066,210.568389,-9437.292334
2055.485359,210.568389,172.283227,-9399.007173
2055.485987,133.998066,76.570323,-9379.864592
2055.486615,133.998066,153.140646,-9456.434915
2055.487242,38.285162,153.140646,-9437.292334
2055.487870,38.285162,114.855485,-9418.149754
2055.488498,153.140646,114.855485,-9418.149754
2055.489126,95.712904,95.712904,-9399.007173
2055.489754,76.570323,95.712904,-9399.007173
2055.490382,76.570323,114.855485,-9533.005238
2055.491010,133.998066,114.855485,-9494.720077
2055.491638,57.427742,95.712904,-9437.292334
2055.492266,133.998066,172.283227,-9418.149754
2055.492894,76.570323,172.283227,-9475.577496
2055.493522,133.998066,114.855485,-9456.434915
2055.494149,38.285162,114.855485,-9456.434915
2055.494777,76.570323,95.712904,-9399.007173
2055.495405,76.570323,172.283227,-9418.149754
2055.496033,95.712904,172.283227,-9418.149754
2055.496661,133.998066,153.140646,-9418.149754
2055.497289,133.998066,153.140646,-9418.149754
2055.497917,38.285162,153.140646,-9418.149754
2055.498545,76.570323,172.283227,-9494.720077
2055.499173,133.998066,210.568389,-9475.577496
2055.499801,133.998066,153.140646,-9418.149754
2055.500428,133.998066,114.855485,-9437.292334
2055.501056,133.998066,172.283227,-9437.292334
2055.501684,76.570323,114.855485,-9437.292334
2055.502312,133.998066,133.998066,-9399.007173
2055.502940,76.570323,114.855485,-9418.149754
2055.503568,76.570323,153.140646,-9456.434915
2055.504196,76.570323,114.855485,-9418.149754
2055.504824,133.998066,133.998066,-9399.007173
2055.505452,133.998066,133.998066,-9399.007173
2055.506080,153.140646,133.998066,-9437.292334
2055.506708,133.998066,114.855485,-9418.149754
2055.507335,133.998066,153.140646,-9399.007173
2055.507963,153.140646,133.998066,-9399.007173
2055.508591,57.427742,114.855485,-9418.149754
2055.509219,95.712904,95.712904,-9437.292334
2055.509847,76.570323,95.712904,-9456.434915
2055.510475,76.570323,114.855485,-9494.720077
2055.511103,76.570323,153.140646,-9418.149754
2055.511731,38.285162,114.855485,-9418.149754
2055.512359,133.998066,153.140646,-9437.292334
2055.512987,95.712904,172.283227,-9456.434915
2055.513614,76.570323,114.855485,-9437.292334
2055.514242,95.712904,153.140646,-9456.434915
2055.514870,95.712904,153.140646,-9360.722011
2055.515498,76.570323,114.855485,-9437.292334
2055.516126,76.570323,114.855485,-9418.149754
2055.516754,95.712904,210.568389,-9494.720077
2055.517382,133.998066,133.998066,-9456.434915
2055.518010,133.998066,191.425808,-9399.007173
2055.518638,133.998066,172.283227,-9456.434915
2055.519266,133.998066,210.568389,-9437.292334
2055.519893,95.712904,191.425808,-9494.720077
2055.520521,95.712904,153.140646,-9418.149754
2055.521149,114.855485,95.712904,-9399.007173
2055.521777,76.570323,153.140646,-9418.149754
2055.522405,76.570323,172.283227,-9418.149754
2055.523033,76.570323,229.710970,-9418.149754
2055.523661,133.998066,114.855485,-9418.149754
2055.524289,114.855485,114.855485,-9379.864592
2055.524917,114.855485,95.712904,-9456.434915
2055.525545,76.570323,114.855485,-9456.434915
2055.526173,95.712904,95.712904,-9399.007173
2055.526800,76.570323,114.855485,-9418.149754
2055.527428,172.283227,210.568389,-9379.864592
2055.528056,153.140646,133.998066,-9399.007173
2055.528684,153.140646,133.998066,-9399.007173
2055.529312,133.998066,153.140646,-9399.007173
2055.529940,38.285162,172.283227,-9456.434915
2055.530568,76.570323,114.855485,-9418.149754
2055.531196,76.570323,153.140646,-9418.149754
2055.531824,133.998066,114.855485,-9399.007173
2055.532452,153.140646,133.998066,-9437.292334
2055.533079,133.998066,153.140646,-9418.149754
2055.533707,133.998066,210.568389,-9437.292334
2055.534335,133.998066,114.855485,-9418.149754
2055.534963,172.283227,133.998066,-9494.720077
2055.535591,76.570323,153.140646,-9418.149754
2055.536219,57.427742,95.712904,-9399.007173
2055.536847,133.998066,114.855485,-9418.149754
2055.537475,172.283227,153.140646,-9379.864592
2055.538103,133.998066,114.855485,-9418.149754
2055.538731,76.570323,172.283227,-9437.292334
2055.539359,133.998066,210.568389,-9418.149754
2055.539986,114.855485,210.568389,-9341.579430
2055.540614,76.570323,114.855485,-9418.149754
2055.541242,114.855485,133.998066,-9360.722011
2055.541870,153.140646,210.568389,-9399.007173
2055.542498,133.998066,153.140646,-9437.292334
2055.543126,133.998066,229.710970,-9418.149754
2055.543754,76.570323,153.140646,-9418.149754
2055.544382,95.712904,114.855485,-9418.149754
2055.545010,95.712904,172.283227,-9360.722011
2055.545638,38.285162,114.855485,-9418.149754
2055.546265,153.140646,133.998066,-9456.434915
2055.546894,133.998066,114.855485,-9418.149754
2055.547522,76.570323,114.855485,-9437.292334
2055.548150,153.140646,133.998066,-9399.007173
2055.548778,114.855485,95.712904,-9399.007173
2055.549406,38.285162,114.855485,-9418.149754
2055.550034,114.855485,76.570323,-9360.722011
2055.550662,76.570323,114.855485,-9418.149754
2055.551290,76.570323,153.140646,-9418.149754
2055.551918,133.998066,210.568389,-9418.149754
2055.552546,133.998066,210.568389,-9418.149754
2055.553174,95.712904,210.568389,-9360.722011
2055.553802,95.712904,114.855485,-9418.149754
2055.554430,57.427742,153.140646,-9456.434915
2055.555058,19.142581,114.855485,-9418.149754
2055.555686,133.998066,210.568389,-9456.434915
2055.556315,76.570323,114.855485,-9418.149754
2055.556943,57.427742,133.998066,-9360.722011
2055.557571,133.998066,114.855485,-9437.292334
2055.558199,76.570323,172.283227,-9418.149754
2055.558827,76.570323,114.855485,-9437.292334
2055.559455,76.570323,114.855485,-9494.720077
2055.560083,133.998066,172.283227,-9456.434915
2055.560711,133.998066,210.568389,-9437.292334
2055.561339,133.998066,114.855485,-9418.149754
2055.561967,133.998066,153.140646,-9418.149754
2055.562595,114.855485,76.570323,-9437.292334
2055.563223,95.712904,114.855485,-9418.149754
2055.563851,133.998066,114.855485,-9418.149754
2055.564479,133.998066,114.855485,-9456.434915
2055.565107,95.712904,95.712904,-9437.292334
2055.565736,38.285162,114.855485,-9418.149754
2055.566364,57.427742,95.712904,-9456.434915
2055.566992,57.427742,95.712904,-9399.007173
2055.567620,76.570323,210.568389,-9418.149754
2055.568248,133.998066,114.855485,-9418.149754
2055.568876,114.855485,172.283227,-9418.149754
2055.569504,19.142581,114.855485,-9456.434915
2055.570132,38.285162,153.140646,-9418.149754
2055.570760,133.998066,114.855485,-9418.149754
2055.571388,133.998066,76.570323,-9379.864592
2055.572016,38.285162,114.855485,-9418.149754
2055.572644,133.998066,114.855485,-9418.149754
2055.573272,133.998066,153.140646,-9418.149754
2055.573900,76.570323,114.855485,-9418.149754
2055.574529,153.140646,133.998066,-9399.007173
2055.575157,76.570323,153.140646,-9418.149754
2055.575785,95.712904,248.853550,-9418.149754
2055.576413,76.570323,172.283227,-9418.149754
2055.577041,133.998066,114.855485,-9456.434915
2055.577669,133.998066,153.140646,-9418.149754
2055.578297,95.712904,210.568389,-9418.149754
2055.578925,133.998066,210.568389,-9418.149754
2055.579553,133.998066,114.855485,-9360.722011
2055.580181,76.570323,172.283227,-9418.149754
2055.580809,38.285162,114.855485,-9418.149754
2055.581437,38.285162,114.855485,-9418.149754
2055.582065,76.570323,114.855485,-9418.149754
2055.582693,133.998066,114.855485,-9418.149754
2055.583321,153.140646,114.855485,-9418.149754
2055.583950,76.570323,114.855485,-9418.149754
2055.584578,133.998066,133.998066,-9399.007173
2055.585206,95.712904,153.140646,-9418.149754
2055.585834,133.998066,172.283227,-9360.722011
2055.586462,76.570323,172.283227,-9418.149754
2055.587090,153.140646,153.140646,-9399.007173
2055.587718,133.998066,114.855485,-9418.149754
2055.588346,153.140646,133.998066,-9399.007173
2055.588974,133.998066,133.998066,-9437.292334
2055.589602,38.285162,114.855485,-9418.149754
2055.590230,76.570323,172.283227,-9418.149754
2055.590858,95.712904,114.855485,-9418.149754
2055.591486,153.140646,133.998066,-9399.007173
2055.592114,76.570323,114.855485,-9418.149754
2055.592742,133.998066,133.998066,-9399.007173
2055.593371,133.998066,210.568389,-9418.149754
2055.593999,133.998066,153.140646,-9418.149754
2055.594627,76.570323,172.283227,-9418.149754
2055.595255,133.998066,114.855485,-9418.149754
2055.595883,133.998066,114.855485,-9418.149754
2055.596511,95.712904,95.712904,-9456.434915
2055.597139,38.285162,114.855485,-9437.292334
2055.597767,133.998066,229.710970,-9437.292334
2055.598395,133.998066,114.855485,-9456.434915
2055.599023,76.570323,229.710970,-9418.149754
2055.599651,95.712904,210.568389,-9399.007173
2055.600279,76.570323,114.855485,-9418.149754
2055.600907,133.998066,172.283227,-9418.149754
2055.601535,133.998066,210.568389,-9418.149754
2055.602163,172.283227,114.855485,-9379.864592
2055.602792,95.712904,95.712904,-9456.434915
2055.603420,95.712904,172.283227,-9418.149754
2055.604048,76.570323,114.855485,-9418.149754
2055.604676,114.855485,76.570323,-9418.149754
2055.605304,57.427742,133.998066,-9360.722011
2055.605932,153.140646,153.140646,-9399.007173
2055.606560,76.570323,153.140646,-9418.149754
2055.607188,76.570323,114.855485,-9456.434915
2055.607816,133.998066,114.855485,-9418.149754
2055.608444,133.998066,172.283227,-9437.292334
2055.609072,76.570323,210.568389,-9437.292334
2055.609700,153.140646,172.283227,-9399.007173
2055.610328,153.140646,133.998066,-9399.007173
2055.610956,114.855485,210.568389,-9456.434915
2055.611584,114.855485,114.855485,-9399.007173
2055.612213,95.712904,172.283227,-9437.292334
2055.612841,95.712904,95.712904,-9379.864592
2055.613469,76.570323,210.568389,-9418.149754
2055.614097,172.283227,114.855485,-9379.864592
2055.614725,95.712904,95.712904,-9399.007173
2055.615353,76.570323,153.140646,-9437.292334
2055.615981,76.570323,114.855485,-9418.149754
2055.616609,133.998066,210.568389,-9437.292334
2055.617237,133.998066,172.283227,-9418.149754
2055.617865,133.998066,133.998066,-9399.007173
2055.618493,133.998066,172.283227,-9418.149754
2055.619121,38.285162,153.140646,-9437.292334
2055.619749,76.570323,153.140646,-9475.577496
2055.620377,114.855485,114.855485,-9399.007173
2055.621006,133.998066,172.283227,-9418.149754
2055.621634,76.570323,114.855485,-9437.292334
2055.622262,172.283227,76.570323,-9456.434915
2055.622890,38.285162,172.283227,-9418.149754
2055.623518,133.998066,153.140646,-9379.864592
2055.624146,133.998066,114.855485,-9418.149754
2055.624774,153.140646,153.140646,-9437.292334
2055.625402,57.427742,114.855485,-9437.292334
2055.626030,76.570323,172.283227,-9418.149754
2055.626658,76.570323,172.283227,-9418.149754
2055.627286,133.998066,172.283227,-9399.007173
2055.627914,38.285162,114.855485,-9418.149754
2055.628542,38.285162,172.283227,-9437.292334
2055.629170,38.285162,114.855485,-9437.292334
2055.629798,76.570323,210.568389,-9418.149754
2055.630427,95.712904,133.998066,-9360.722011
2055.631055,133.998066,114.855485,-9418.149754
2055.631683,76.570323,76.570323,-9379.864592
2055.632311,133.998066,114.855485,-9418.149754
2055.632939,133.998066,153.140646,-9456.434915
2055.633567,76.570323,114.855485,-9437.292334
2055.634195,76.570323,172.283227,-9418.149754
2055.634823,95.712904,114.855485,-9418.149754
2055.635451,76.570323,114.855485,-9418.149754
2055.636079,133.998066,133.998066,-9456.434915
2055.636707,95.712904,114.855485,-9456.434915
2055.637335,76.570323,172.283227,-9418.149754
2055.637963,76.570323,172.283227,-9418.149754
2055.638591,95.712904,114.855485,-9437.292334
2055.639219,114.855485,114.855485,-9399.007173
2055.639848,133.998066,114.855485,-9437.292334
2055.640476,114.855485,95.712904,-9399.007173
2055.641104,133.998066,172.283227,-9475.577496
2055.641732,95.712904,95.712904,-9399.007173
2055.642360,38.285162,153.140646,-9418.149754
2055.642988,76.570323,114.855485,-9418.149754
2055.643616,76.570323,114.855485,-9475.577496
2055.644244,38.285162,172.283227,-9418.149754
2055.644872,38.285162,114.855485,-9418.149754
2055.645500,76.570323,114.855485,-9418.149754
2055.646128,76.570323,114.855485,-9418.149754
2055.646756,38.285162,114.855485,-9418.149754
2055.647383,38.285162,172.283227,-9418.149754
2055.648010,153.140646,172.283227,-9399.007173
2055.648638,133.998066,133.998066,-9399.007173
2055.649265,95.712904,114.855485,-9418.149754
2055.649892,95.712904,133.998066,-9360.722011
2055.650519,133.998066,153.140646,-9418.149754
2055.651146,153.140646,133.998066,-9399.007173
2055.651773,76.570323,114.855485,-9456.434915
2055.652400,133.998066,172.283227,-9418.149754
2055.653027,76.570323,114.855485,-9418.149754
2055.653654,38.285162,114.855485,-9437.292334
2055.654282,76.570323,114.855485,-9418.149754
2055.654909,76.570323,95.712904,-9456.434915
2055.655536,114.855485,95.712904,-9399.007173
2055.656163,133.998066,172.283227,-9418.149754
2055.656790,76.570323,172.283227,-9437.292334
2055.657417,38.285162,114.855485,-9475.577496
2055.658044,38.285162,172.283227,-9418.149754
2055.658671,76.570323,172.283227,-9418.149754
2055.659298,133.998066,133.998066,-9399.007173
2055.659926,95.712904,229.710970,-9418.149754
2055.660553,76.570323,210.568389,-9456.434915
2055.661180,76.570323,210.568389,-9418.149754
2055.661807,114.855485,153.140646,-9360.722011
2055.662434,133.998066,133.998066,-9399.007173
2055.663061,76.570323,114.855485,-9418.149754
2055.663688,133.998066,172.283227,-9418.149754
2055.664315,133.998066,114.855485,-9418.149754
2055.664942,76.570323,114.855485,-9437.292334
2055.665570,114.855485,95.712904,-9437.292334
2055.666197,114.855485,133.998066,-9360.722011
2055.666824,38.285162,114.855485,-9475.577496
2055.667451,38.285162,172.283227,-9456.434915
2055.668078,133.998066,153.140646,-9475.577496
2055.668705,153.140646,133.998066,-9399.007173
2055.669332,133.998066,153.140646,-9418.149754
2055.669959,76.570323,114.855485,-9418.149754
2055.670586,76.570323,172.283227,-9418.149754
2055.671214,95.712904,114.855485,-9437.292334
2055.671841,76.570323,114.855485,-9418.149754
2055.672468,95.712904,114.855485,-9418.149754
2055.673095,95.712904,95.712904,-9437.292334
2055.673722,38.285162,114.855485,-9360.722011
2055.674349,38.285162,114.855485,-9475.577496
2055.674976,153.140646,133.998066,-9456.434915
2055.675603,38.285162,114.855485,-9456.434915
2055.676230,76.570323,114.855485,-9437.292334
2055.676858,133.998066,114.855485,-9475.577496
2055.677485,95.712904,114.855485,-9437.292334
2055.678112,95.712904,114.855485,-9418.149754
2055.678739,133.998066,114.855485,-9494.720077
2055.679366,76.570323,210.568389,-9437.292334
2055.679993,95.712904,153.140646,-9437.292334
2055.680620,114.855485,172.283227,-9360.722011
2055.681247,76.570323,153.140646,-9418.149754
2055.681874,38.285162,153.140646,-9418.149754
2055.682502,172.283227,172.283227,-9360.722011
2055.683129,95.712904,172.283227,-9418.149754
2055.683756,38.285162,172.283227,-9418.149754
2055.684383,76.570323,114.855485,-9418.149754
2055.685010,133.998066,114.855485,-9418.149754
2055.685637,76.570323,153.140646,-9418.149754
2055.686264,76.570323,114.855485,-9418.149754
2055.686891,38.285162,114.855485,-9418.149754
2055.687518,76.570323,114.855485,-9418.149754
2055.688146,133.998066,133.998066,-9399.007173
2055.688773,38.285162,114.855485,-9437.292334
2055.689400,133.998066,114.855485,-9475.577496
2055.690027,76.570323,114.855485,-9418.149754
2055.690654,76.570323,114.855485,-9418.149754
2055.691281,38.285162,210.568389,-9456.434915
2055.691908,133.998066,114.855485,-9456.434915
2055.692535,133.998066,114.855485,-9418.149754
2055.693162,133.998066,229.710970,-9418.149754
2055.693790,133.998066,153.140646,-9418.149754
2055.694417,38.285162,114.855485,-9437.292334
2055.695044,76.570323,114.855485,-9418.149754
2055.695671,95.712904,153.140646,-9418.149754
2055.696298,133.998066,114.855485,-9418.149754
2055.696925,57.427742,172.283227,-9360.722011
2055.697552,38.285162,153.140646,-9418.149754
2055.698179,95.712904,114.855485,-9418.149754
2055.698806,153.140646,210.568389,-9456.434915
2055.699434,133.998066,114.855485,-9437.292334
2055.700061,95.712904,114.855485,-9418.149754
2055.700688,95.712904,114.855485,-9418.149754
2055.701315,95.712904,248.853550,-9418.149754
2055.701942,133.998066,172.283227,-9456.434915
2055.702569,76.570323,153.140646,-9418.149754
2055.703196,133.998066,172.283227,-9418.149754
2055.703823,76.570323,172.283227,-9418.149754
2055.704450,38.285162,114.855485,-9456.434915
2055.705078,76.570323,114.855485,-9418.149754
2055.705705,76.570323,172.283227,-9418.149754
2055.706332,76.570323,114.855485,-9418.149754
2055.706959,38.285162,114.855485,-9418.149754
2055.707586,133.998066,114.855485,-9475.577496
2055.708213,133.998066,114.855485,-9418.149754
2055.708840,133.998066,210.568389,-9418.149754
2055.709467,133.998066,153.140646,-9418.149754
2055.710094,133.998066,114.855485,-9418.149754
2055.710722,133.998066,114.855485,-9418.149754
2055.711349,114.855485,95.712904,-9399.007173
2055.711976,38.285162,114.855485,-9418.149754
2055.712603,133.998066,114.855485,-9418.149754
2055.713230,57.427742,95.712904,-9399.007173
2055.713857,38.285162,95.712904,-9399.007173
2055.714484,95.712904,95.712904,-9399.007173
2055.715111,133.998066,114.855485,-9418.149754
2055.715738,95.712904,95.712904,-9399.007173
2055.716366,76.570323,114.855485,-9418.149754
2055.716993,38.285162,114.855485,-9494.720077
2055.717620,76.570323,172.283227,-9475.577496
2055.718247,133.998066,153.140646,-9494.720077
2055.718874,76.570323,172.283227,-9418.149754
2055.719501,133.998066,114.855485,-9475.577496
2055.720128,76.570323,172.283227,-9418.149754
2055.720755,95.712904,114.855485,-9456.434915
2055.721382,76.570323,153.140646,-9418.149754
2055.722010,38.285162,153.140646,-9418.149754
2055.722637,76.570323,114.855485,-9475.577496
2055.723264,133.998066,114.855485,-9475.577496
2055.723891,133.998066,114.855485,-9418.149754
2055.724518,76.570323,114.855485,-9418.149754
2055.725145,57.427742,191.425808,-9360.722011
2055.725772,38.285162,114.855485,-9418.149754
2055.726399,172.283227,114.855485,-9379.864592
2055.727026,95.712904,95.712904,-9399.007173
2055.727654,38.285162,114.855485,-9418.149754
2055.728281,76.570323,114.855485,-9418.149754
2055.728908,19.142581,153.140646,-9418.149754
2055.729535,95.712904,153.140646,-9360.722011
2055.730162,38.285162,114.855485,-9360.722011
2055.730789,133.998066,172.283227,-9418.149754
2055.731416,76.570323,114.855485,-9418.149754
2055.732043,76.570323,153.140646,-9456.434915
2055.732670,38.285162,114.855485,-9418.149754
2055.733298,38.285162,114.855485,-9437.292334
2055.733925,133.998066,114.855485,-9437.292334
2055.734552,95.712904,172.283227,-9418.149754
2055.735179,133.998066,229.710970,-9360.722011
2055.735806,76.570323,114.855485,-9418.149754
2055.736433,133.998066,172.283227,-9418.149754
2055.737060,76.570323,114.855485,-9418.149754
2055.737687,172.283227,114.855485,-9399.007173
2055.738314,76.570323,210.568389,-9418.149754
2055.738942,133.998066,153.140646,-9418.149754
2055.739569,114.855485,95.712904,-9399.007173
2055.740196,76.570323,153.140646,-9418.149754
2055.740823,114.855485,191.425808,-9360.722011
2055.741450,19.142581,114.855485,-9418.149754
2055.742077,76.570323,114.855485,-9418.149754
2055.742704,76.570323,114.855485,-9418.149754
2055.743331,133.998066,114.855485,-9418.149754
2055.743958,76.570323,114.855485,-9437.292334
2055.744586,76.570323,210.568389,-9418.149754
2055.745213,133.998066,153.140646,-9456.434915
2055.745840,38.285162,114.855485,-9456.434915
2055.746467,38.285162,153.140646,-9418.149754
2055.747094,57.427742,133.998066,-9360.722011
2055.747721,95.712904,95.712904,-9399.007173
2055.748348,95.712904,153.140646,-9360.722011
2055.748975,76.570323,114.855485,-9418.149754
2055.749602,95.712904,95.712904,-9437.292334
2055.750229,114.855485,114.855485,-9399.007173
2055.750857,153.140646,172.283227,-9399.007173
2055.751484,133.998066,153.140646,-9418.149754
2055.752111,133.998066,153.140646,-9418.149754
2055.752738,133.998066,133.998066,-9399.007173
2055.753365,133.998066,210.568389,-9418.149754
2055.753992,76.570323,114.855485,-9437.292334
2055.754619,153.140646,114.855485,-9456.434915
2055.755246,172.283227,114.855485,-9379.864592
2055.755873,114.855485,114.855485,-9379.864592
2055.756501,76.570323,114.855485,-9494.720077
2055.757128,76.570323,114.855485,-9418.149754
2055.757755,76.570323,172.283227,-9437.292334
2055.758382,133.998066,114.855485,-9437.292334
2055.759009,153.140646,133.998066,-9399.007173
2055.759636,133.998066,114.855485,-9475.577496
2055.760263,76.570323,114.855485,-9418.149754
2055.760890,95.712904,114.855485,-9475.577496
2055.761517,114.855485,95.712904,-9437.292334
2055.762145,76.570323,114.855485,-9418.149754
2055.762772,76.570323,114.855485,-9360.722011
2055.763399,57.427742,114.855485,-9418.149754
2055.764026,133.998066,114.855485,-9456.434915
2055.764653,133.998066,114.855485,-9475.577496
2055.765280,153.140646,133.998066,-9399.007173
2055.765907,133.998066,210.568389,-9456.434915
2055.766534,133.998066,172.283227,-9456.434915
2055.767161,153.140646,133.998066,-9399.007173
2055.767788,38.285162,191.425808,-9418.149754
2055.768416,114.855485,133.998066,-9360.722011
2055.769043,133.998066,114.855485,-9418.149754
2055.769670,133.998066,153.140646,-9418.149754
2055.770297,133.998066,210.568389,-9456.434915
2055.770924,133.998066,114.855485,-9418.149754
2055.771551,95.712904,172.283227,-9418.149754
2055.772178,133.998066,153.140646,-9418.149754
2055.772805,76.570323,114.855485,-9418.149754
2055.773432,133.998066,114.855485,-9437.292334
2055.774060,76.570323,114.855485,-9456.434915
2055.774687,153.140646,133.998066,-9399.007173
2055.775314,133.998066,210.568389,-9418.149754
2055.775941,38.285162,172.283227,-9456.434915
2055.776568,133.998066,133.998066,-9399.007173
2055.777195,133.998066,114.855485,-9418.149754
2055.777822,133.998066,114.855485,-9437.292334
2055.778449,76.570323,172.283227,-9456.434915
2055.779076,133.998066,172.283227,-9399.007173
2055.779703,133.998066,172.283227,-9418.149754
2055.780331,153.140646,153.140646,-9494.720077
2055.780958,133.998066,114.855485,-9475.577496
2055.781585,38.285162,114.855485,-9475.577496
2055.782212,153.140646,133.998066,-9456.434915
2055.782839,133.998066,114.855485,-9418.149754
2055.783466,95.712904,153.140646,-9418.149754
2055.784093,76.570323,114.855485,-9437.292334
2055.784720,38.285162,114.855485,-9418.149754
2055.785347,133.998066,114.855485,-9437.292334
2055.785975,76.570323,114.855485,-9418.149754
2055.786602,172.283227,76.570323,-9456.434915
2055.787229,95.712904,114.855485,-9437.292334
2055.787856,133.998066,114.855485,-9418.149754
2055.788483,76.570323,114.855485,-9418.149754
2055.789110,57.427742,95.712904,-9456.434915
2055.789737,95.712904,114.855485,-9418.149754
2055.790364,95.712904,133.998066,-9360.722011
2055.790991,95.712904,95.712904,-9399.007173
2055.791619,76.570323,172.283227,-9418.149754
2055.792246,133.998066,153.140646,-9533.005238
2055.792873,76.570323,114.855485,-9475.577496
2055.793500,76.570323,153.140646,-9418.149754
2055.794127,133.998066,114.855485,-9418.149754
2055.794754,95.712904,95.712904,-9399.007173
2055.795381,133.998066,114.855485,-9418.149754
2055.796008,95.712904,172.283227,-9418.149754
2055.796635,172.283227,76.570323,-9360.722011
2055.797262,57.427742,153.140646,-9360.722011
2055.797890,57.427742,95.712904,-9456.434915
2055.798517,76.570323,76.570323,-9379.864592
2055.799144,114.855485,95.712904,-9399.007173
2055.799771,76.570323,172.283227,-9418.149754
2055.800398,38.285162,114.855485,-9418.149754
2055.801025,133.998066,172.283227,-9360.722011
2055.801652,76.570323,114.855485,-9418.149754
2055.802279,57.427742,114.855485,-9418.149754
2055.802906,133.998066,114.855485,-9418.149754
2055.803534,133.998066,114.855485,-9418.149754
2055.804161,38.285162,133.998066,-9379.864592
2055.804788,95.712904,153.140646,-9418.149754
2055.805415,114.855485,133.998066,-9360.722011
2055.806042,38.285162,114.855485,-9418.149754
2055.806669,38.285162,191.425808,-9418.149754
2055.807296,133.998066,210.568389,-9418.149754
2055.807923,153.140646,191.425808,-9399.007173
2055.808550,133.998066,153.140646,-9418.149754
2055.809177,153.140646,153.140646,-9399.007173
2055.809805,133.998066,172.283227,-9418.149754
2055.810432,133.998066,114.855485,-9418.149754
2055.811059,38.285162,191.425808,-9456.434915
2055.811686,76.570323,153.140646,-9475.577496
2055.812313,133.998066,172.283227,-9418.149754
2055.812940,76.570323,172.283227,-9418.149754
2055.813567,57.427742,95.712904,-9399.007173
2055.814194,57.427742,114.855485,-9399.007173
2055.814821,133.998066,133.998066,-9399.007173
2055.815449,38.285162,114.855485,-9418.149754
2055.816076,38.285162,172.283227,-9437.292334
2055.816703,76.570323,210.568389,-9437.292334
2055.817330,38.285162,153.140646,-9418.149754
2055.817957,76.570323,153.140646,-9437.292334
2055.818584,133.998066,133.998066,-9456.434915
2055.819211,133.998066,114.855485,-9475.577496
2055.819838,38.285162,114.855485,-9437.292334
2055.820465,133.998066,153.140646,-9456.434915
2055.821093,133.998066,172.283227,-9399.007173
2055.821720,133.998066,114.855485,-9494.720077
2055.822347,114.855485,95.712904,-9399.007173
2055.822974,95.712904,114.855485,-9418.149754
2055.823601,133.998066,153.140646,-9418.149754
2055.824228,95.712904,172.283227,-9475.577496
2055.824855,114.855485,95.712904,-9399.007173
2055.825482,133.998066,114.855485,-9437.292334
2055.826109,57.427742,133.998066,-9360.722011
2055.826736,76.570323,114.855485,-9418.149754
2055.827364,38.285162,210.568389,-9456.434915
2055.827991,76.570323,133.998066,-9360.722011
2055.828618,76.570323,114.855485,-9418.149754
2055.829245,153.140646,172.283227,-9399.007173
2055.829872,95.712904,172.283227,-9360.722011
2055.830499,76.570323,114.855485,-9418.149754
2055.831126,95.712904,191.425808,-9360.722011
2055.831753,38.285162,114.855485,-9456.434915
2055.832380,19.142581,210.568389,-9437.292334
2055.833008,95.712904,229.710970,-9399.007173
2055.833635,76.570323,153.140646,-9418.149754
2055.834262,38.285162,191.425808,-9418.149754
2055.834889,38.285162,114.855485,-9456.434915
2055.835516,133.998066,153.140646,-9437.292334
2055.836143,76.570323,114.855485,-9475.577496
2055.836770,133.998066,172.283227,-9418.149754
2055.837397,76.570323,172.283227,-9418.149754
2055.838024,114.855485,95.712904,-9399.007173
2055.838651,172.283227,114.855485,-9379.864592
2055.839279,133.998066,114.855485,-9456.434915
2055.839906,38.285162,114.855485,-9475.577496
2055.840533,38.285162,114.855485,-9418.149754
2055.841160,153.140646,172.283227,-9418.149754
2055.841787,133.998066,153.140646,-9418.149754
2055.842414,133.998066,153.140646,-9475.577496
2055.843041,133.998066,114.855485,-9418.149754
2055.843668,133.998066,153.140646,-9456.434915
2055.844295,133.998066,172.283227,-9418.149754
2055.844923,95.712904,191.425808,-9437.292334
2055.845550,153.140646,191.425808,-9399.007173
2055.846177,76.570323,114.855485,-9418.149754
2055.846804,76.570323,210.568389,-9418.149754
2055.847431,133.998066,153.140646,-9456.434915
2055.848058,133.998066,172.283227,-9418.149754
2055.848685,76.570323,191.425808,-9360.722011
2055.849313,95.712904,133.998066,-9360.722011
2055.849940,133.998066,114.855485,-9360.722011
2055.850567,57.427742,95.712904,-9456.434915
2055.851194,57.427742,114.855485,-9437.292334
2055.851822,19.142581,210.568389,-9418.149754
2055.852449,76.570323,210.568389,-9418.149754
2055.853076,38.285162,210.568389,-9437.292334
2055.853703,38.285162,114.855485,-9533.005238
2055.854331,76.570323,114.855485,-9456.434915
2055.854958,95.712904,153.140646,-9456.434915
2055.855585,38.285162,153.140646,-9418.149754
2055.856212,114.855485,133.998066,-9360.722011
2055.856840,133.998066,172.283227,-9418.149754
2055.857467,76.570323,153.140646,-9437.292334
2055.858094,133.998066,153.140646,-9418.149754
2055.858721,76.570323,114.855485,-9418.149754
2055.859349,114.855485,133.998066,-9360.722011
2055.859976,114.855485,133.998066,-9360.722011
2055.860603,76.570323,210.568389,-9456.434915
2055.861230,76.570323,153.140646,-9475.577496
2055.861858,95.712904,95.712904,-9456.434915
2055.862485,38.285162,114.855485,-9418.149754
2055.863112,153.140646,133.998066,-9437.292334
2055.863739,153.140646,133.998066,-9456.434915
2055.864367,76.570323,114.855485,-9456.434915
2055.864994,38.285162,153.140646,-9418.149754
2055.865621,76.570323,114.855485,-9418.149754
2055.866248,95.712904,133.998066,-9418.149754
2055.866876,38.285162,114.855485,-9437.292334
2055.867503,76.570323,172.283227,-9360.722011
2055.868130,133.998066,133.998066,-9399.007173
2055.868757,133.998066,172.283227,-9418.149754
2055.869385,133.998066,114.855485,-9418.149754
2055.870012,133.998066,172.283227,-9437.292334
2055.870639,76.570323,172.283227,-9533.005238
2055.871266,133.998066,114.855485,-9456.434915
2055.871894,95.712904,191.425808,-9418.149754
2055.872521,76.570323,172.283227,-9418.149754
2055.873148,76.570323,114.855485,-9456.434915
2055.873775,133.998066,114.855485,-9437.292334
2055.874403,153.140646,133.998066,-9437.292334
2055.875030,95.712904,191.425808,-9418.149754
2055.875657,95.712904,114.855485,-9456.434915
2055.876284,95.712904,153.140646,-9360.722011
2055.876912,57.427742,114.855485,-9456.434915
2055.877539,114.855485,133.998066,-9360.722011
2055.878166,133.998066,114.855485,-9418.149754
2055.878793,133.998066,114.855485,-9418.149754
2055.879421,76.570323,172.283227,-9418.149754
2055.880048,210.568389,153.140646,-9399.007173
2055.880675,38.285162,210.568389,-9418.149754
2055.881302,76.570323,153.140646,-9456.434915
2055.881930,76.570323,114.855485,-9437.292334
2055.882557,133.998066,114.855485,-9475.577496
2055.883184,38.285162,172.283227,-9494.720077
2055.883811,114.855485,95.712904,-9456.434915
2055.884439,133.998066,153.140646,-9456.434915
2055.885066,76.570323,114.855485,-9418.149754
2055.885693,76.570323,172.283227,-9456.434915
2055.886320,76.570323,114.855485,-9418.149754
2055.886948,38.285162,114.855485,-9418.149754
2055.887575,153.140646,248.853550,-9399.007173
2055.888202,76.570323,114.855485,-9456.434915
2055.888829,133.998066,114.855485,-9418.149754
2055.889457,76.570323,114.855485,-9418.149754
2055.890084,133.998066,153.140646,-9418.149754
2055.890711,133.998066,114.855485,-9418.149754
2055.891338,172.283227,153.140646,-9379.864592
2055.891966,38.285162,153.140646,-9475.577496
2055.892593,38.285162,114.855485,-9418.149754
2055.893220,76.570323,114.855485,-9418.149754
2055.893847,133.998066,172.283227,-9418.149754
2055.894475,76.570323,114.855485,-9418.149754
2055.895102,133.998066,210.568389,-9418.149754
2055.895729,95.712904,153.140646,-9418.149754
2055.896356,76.570323,114.855485,-9437.292334
2055.896984,133.998066,172.283227,-9418.149754
2055.897611,57.427742,133.998066,-9360.722011
2055.898238,133.998066,114.855485,-9418.149754
2055.898865,133.998066,153.140646,-9418.149754
2055.899493,133.998066,114.855485,-9418.149754
2055.900120,133.998066,172.283227,-9418.149754
2055.900747,76.570323,114.855485,-9437.292334
2055.901374,133.998066,114.855485,-9456.434915
2055.902002,133.998066,114.855485,-9437.292334
2055.902629,133.998066,114.855485,-9418.149754
2055.903256,38.285162,114.855485,-9399.007173
2055.903883,133.998066,153.140646,-9418.149754
2055.904511,76.570323,114.855485,-9437.292334
2055.905138,38.285162,114.855485,-9418.149754
2055.905765,114.855485,95.712904,-9437.292334
2055.906392,133.998066,172.283227,-9418.149754
2055.907020,38.285162,114.855485,-9418.149754
2055.907647,133.998066,114.855485,-9475.577496
2055.908274,76.570323,114.855485,-9418.149754
2055.908901,133.998066,114.855485,-9418.149754
2055.909529,133.998066,133.998066,-9399.007173
2055.910156,38.285162,172.283227,-9418.149754
2055.910783,76.570323,172.283227,-9418.149754
2055.911410,76.570323,191.425808,-9437.292334
2055.912038,95.712904,95.712904,-9437.292334
2055.912665,76.570323,114.855485,-9418.149754
2055.913292,114.855485,114.855485,-9456.434915
2055.913919,133.998066,153.140646,-9475.577496
2055.914547,76.570323,114.855485,-9418.149754
2055.915174,38.285162,114.855485,-9418.149754
2055.915801,38.285162,153.140646,-9437.292334
2055.916428,95.712904,114.855485,-9456.434915
2055.917056,95.712904,114.855485,-9437.292334
2055.917683,133.998066,114.855485,-9418.149754
2055.918310,133.998066,76.570323,-9513.862658
2055.918937,76.570323,114.855485,-9475.577496
2055.919565,133.998066,114.855485,-9437.292334
2055.920192,153.140646,133.998066,-9437.292334
2055.920819,133.998066,114.855485,-9418.149754
2055.921446,114.855485,95.712904,-9399.007173
2055.922074,76.570323,114.855485,-9475.577496
2055.922701,57.427742,114.855485,-9475.577496
2055.923328,38.285162,114.855485,-9437.292334
2055.923955,95.712904,114.855485,-9418.149754
2055.924583,133.998066,153.140646,-9399.007173
2055.925210,76.570323,229.710970,-9475.577496
2055.925837,133.998066,153.140646,-9418.149754
2055.926464,38.285162,133.998066,-9399.007173
2055.927092,133.998066,114.855485,-9437.292334
2055.927719,76.570323,172.283227,-9437.292334
2055.928346,76.570323,114.855485,-9437.292334
2055.928973,38.285162,210.568389,-9418.149754
2055.929601,76.570323,114.855485,-9418.149754
2055.930228,76.570323,210.568389,-9418.149754
2055.930855,76.570323,210.568389,-9418.149754
2055.931482,114.855485,95.712904,-9456.434915
2055.932110,38.285162,114.855485,-9494.720077
2055.932737,76.570323,114.855485,-9437.292334
2055.933364,133.998066,153.140646,-9418.149754
2055.933991,133.998066,114.855485,-9437.292334
2055.934619,153.140646,133.998066,-9456.434915
2055.935246,133.998066,114.855485,-9418.149754
2055.935873,133.998066,133.998066,-9456.434915
2055.936500,133.998066,133.998066,-9399.007173
2055.937128,153.140646,133.998066,-9399.007173
2055.937755,38.285162,114.855485,-9418.149754
2055.938382,133.998066,153.140646,-9418.149754
2055.939009,76.570323,114.855485,-9418.149754
2055.939637,133.998066,114.855485,-9418.149754
2055.940264,95.712904,114.855485,-9475.577496
2055.940891,76.570323,114.855485,-9418.149754
2055.941518,76.570323,153.140646,-9437.292334
2055.942146,133.998066,114.855485,-9418.149754
2055.942773,114.855485,95.712904,-9399.007173
2055.943400,133.998066,114.855485,-9437.292334
2055.944027,133.998066,210.568389,-9418.149754
2055.944655,133.998066,114.855485,-9418.149754
2055.945282,76.570323,114.855485,-9437.292334
2055.945909,172.283227,114.855485,-9379.864592
2055.946536,153.140646,133.998066,-9399.007173
2055.947164,133.998066,114.855485,-9437.292334
2055.947791,133.998066,153.140646,-9418.149754
2055.948418,133.998066,114.855485,-9360.722011
2055.949046,76.570323,114.855485,-9437.292334
2055.949673,76.570323,153.140646,-9418.149754
2055.950300,76.570323,114.855485,-9418.149754
2055.950928,76.570323,114.855485,-9418.149754
2055.951555,76.570323,172.283227,-9418.149754
2055.952183,153.140646,153.140646,-9399.007173
2055.952810,76.570323,172.283227,-9418.149754
2055.953437,76.570323,153.140646,-9437.292334
2055.954065,76.570323,114.855485,-9418.149754
2055.954692,133.998066,114.855485,-9418.149754
2055.955320,133.998066,153.140646,-9494.720077
2055.955947,76.570323,114.855485,-9437.292334
2055.956574,19.142581,114.855485,-9475.577496
2055.957202,76.570323,114.855485,-9418.149754
2055.957829,172.283227,76.570323,-9418.149754
2055.958456,95.712904,114.855485,-9456.434915
2055.959084,38.285162,114.855485,-9360.722011
2055.959711,38.285162,210.568389,-9437.292334
2055.960339,38.285162,210.568389,-9475.577496
2055.960966,133.998066,114.855485,-9437.292334
2055.961593,133.998066,172.283227,-9456.434915
2055.962221,114.855485,95.712904,-9456.434915
2055.962848,153.140646,133.998066,-9399.007173
2055.963476,133.998066,210.568389,-9475.577496
2055.964103,133.998066,114.855485,-9418.149754
2055.964730,76.570323,114.855485,-9456.434915
2055.965358,153.140646,133.998066,-9437.292334
2055.965985,133.998066,114.855485,-9418.149754
2055.966612,133.998066,229.710970,-9418.149754
2055.967240,76.570323,114.855485,-9418.149754
2055.967867,38.285162,114.855485,-9494.720077
2055.968495,76.570323,114.855485,-9437.292334
2055.969122,133.998066,114.855485,-9456.434915
2055.969749,57.427742,153.140646,-9437.292334
2055.970377,57.427742,114.855485,-9456.434915
2055.971004,38.285162,114.855485,-9437.292334
2055.971632,38.285162,114.855485,-9418.149754
2055.972259,133.998066,153.140646,-9456.434915
2055.972886,76.570323,153.140646,-9360.722011
2055.973514,95.712904,133.998066,-9360.722011
2055.974141,114.855485,133.998066,-9360.722011
2055.974768,133.998066,153.140646,-9437.292334
2055.975396,76.570323,114.855485,-9418.149754
2055.976023,133.998066,172.283227,-9456.434915
2055.976651,114.855485,133.998066,-9360.722011
2055.977278,57.427742,133.998066,-9360.722011
2055.977905,76.570323,114.855485,-9437.292334
2055.978533,76.570323,114.855485,-9418.149754
2055.979160,38.285162,114.855485,-9418.149754
2055.979788,133.998066,172.283227,-9418.149754
2055.980415,76.570323,114.855485,-9418.149754
2055.981042,133.998066,114.855485,-9418.149754
2055.981670,133.998066,191.425808,-9418.149754
2055.982297,133.998066,114.855485,-9418.149754
2055.982924,95.712904,133.998066,-9418.149754
2055.983552,38.285162,114.855485,-9418.149754
2055.984179,76.570323,172.283227,-9418.149754
2055.984807,133.998066,172.283227,-9418.149754
2055.985434,133.998066,133.998066,-9399.007173
2055.986061,95.712904,95.712904,-9399.007173
2055.986689,153.140646,133.998066,-9399.007173
2055.987316,133.998066,133.998066,-9456.434915
2055.987944,133.998066,153.140646,-9456.434915
2055.988571,76.570323,210.568389,-9494.720077
2055.989198,76.570323,210.568389,-9475.577496
2055.989826,76.570323,114.855485,-9456.434915
2055.990453,95.712904,114.855485,-9437.292334
2055.991080,133.998066,114.855485,-9475.577496
2055.991708,133.998066,114.855485,-9418.149754
2055.992335,133.998066,153.140646,-9399.007173
2055.992963,76.570323,114.855485,-9418.149754
2055.993590,57.427742,172.283227,-9322.436850
2055.994217,133.998066,191.425808,-9437.292334
2055.994845,133.998066,229.710970,-9418.149754
2055.995472,133.998066,114.855485,-9418.149754
2055.996100,76.570323,191.425808,-9437.292334
2055.996727,76.570323,153.140646,-9437.292334
2055.997354,133.998066,114.855485,-9418.149754
2055.997982,133.998066,172.283227,-9418.149754
2055.998609,76.570323,153.140646,-9418.149754
2055.999236,76.570323,114.855485,-9418.149754
2055.999864,76.570323,172.283227,-9418.149754
2056.000491,57.427742,210.568389,-9456.434915
2056.001119,76.570323,153.140646,-9418.149754
2056.001746,133.998066,114.855485,-9475.577496
2056.002373,172.283227,76.570323,-9418.149754
2056.003001,76.570323,114.855485,-9418.149754
2056.003628,76.570323,172.283227,-9418.149754
2056.004256,38.285162,210.568389,-9456.434915
2056.004883,76.570323,210.568389,-9456.434915
2056.005510,133.998066,114.855485,-9418.149754
2056.006138,38.285162,114.855485,-9418.149754
2056.006765,114.855485,133.998066,-9418.149754
2056.007392,133.998066,153.140646,-9418.149754
2056.008020,19.142581,114.855485,-9437.292334
2056.008647,76.570323,114.855485,-9418.149754
2056.009275,76.570323,95.712904,-9494.720077
2056.009902,76.570323,114.855485,-9360.722011
2056.010529,133.998066,114.855485,-9418.149754
2056.011157,38.285162,114.855485,-9418.149754
2056.011784,133.998066,114.855485,-9418.149754
2056.012412,133.998066,114.855485,-9418.149754
2056.013039,76.570323,114.855485,-9437.292334
2056.013666,153.140646,133.998066,-9456.434915
2056.014294,133.998066,210.568389,-9418.149754
2056.014921,76.570323,114.855485,-9418.149754
2056.015549,133.998066,114.855485,-9418.149754
2056.016176,76.570323,153.140646,-9360.722011
2056.016803,95.712904,133.998066,-9360.722011
2056.017431,95.712904,114.855485,-9418.149754
2056.018058,133.998066,153.140646,-9418.149754
2056.018685,133.998066,114.855485,-9437.292334
2056.019313,133.998066,114.855485,-9418.149754
2056.019940,133.998066,114.855485,-9418.149754
2056.020568,133.998066,114.855485,-9418.149754
2056.021195,38.285162,172.283227,-9437.292334
2056.021822,76.570323,114.855485,-9437.292334
2056.022450,153.140646,172.283227,-9399.007173
2056.023077,133.998066,191.425808,-9418.149754
2056.023705,210.568389,133.998066,-9494.720077
2056.024332,57.427742,114.855485,-9456.434915
2056.024959,76.570323,153.140646,-9437.292334
2056.025587,133.998066,114.855485,-9418.149754
2056.026214,76.570323,172.283227,-9456.434915
2056.026841,76.570323,210.568389,-9418.149754
2056.027469,133.998066,153.140646,-9456.434915
2056.028096,76.570323,114.855485,-9418.149754
2056.028724,133.998066,172.283227,-9418.149754
2056.029351,76.570323,172.283227,-9456.434915
2056.029978,133.998066,153.140646,-9437.292334
2056.030606,133.998066,114.855485,-9418.149754
2056.031233,95.712904,95.712904,-9399.007173
2056.031861,133.998066,114.855485,-9418.149754
2056.032488,133.998066,210.568389,-9437.292334
2056.033115,38.285162,114.855485,-9437.292334
2056.033743,57.427742,133.998066,-9418.149754
2056.034370,76.570323,114.855485,-9418.149754
2056.034997,133.998066,114.855485,-9437.292334
2056.035625,133.998066,114.855485,-9456.434915
2056.036252,76.570323,114.855485,-9418.149754
2056.036880,95.712904,114.855485,-9418.149754
2056.037507,76.570323,114.855485,-9456.434915
2056.038134,114.855485,95.712904,-9399.007173
2056.038762,76.570323,114.855485,-9418.149754
2056.039389,133.998066,114.855485,-9418.149754
2056.040017,114.855485,95.712904,-9399.007173
2056.040644,172.283227,76.570323,-9418.149754
2056.041271,133.998066,172.283227,-9418.149754
2056.041899,133.998066,172.283227,-9418.149754
2056.042526,114.855485,133.998066,-9360.722011
2056.043153,76.570323,172.283227,-9456.434915
2056.043781,76.570323,153.140646,-9418.149754
2056.044408,133.998066,210.568389,-9418.149754
2056.045036,95.712904,114.855485,-9437.292334
2056.045663,76.570323,114.855485,-9475.577496
2056.046290,76.570323,172.283227,-9475.577496
2056.046918,76.570323,172.283227,-9494.720077
2056.047545,95.712904,114.855485,-9437.292334
2056.048173,76.570323,114.855485,-9437.292334
2056.048800,76.570323,153.140646,-9418.149754
2056.049427,133.998066,191.425808,-9418.149754
2056.050054,133.998066,210.568389,-9475.577496
2056.050682,76.570323,172.283227,-9418.149754
2056.051309,133.998066,153.140646,-9418.149754
2056.051936,76.570323,172.283227,-9418.149754
2056.052564,114.855485,76.570323,-9418.149754
2056.053191,38.285162,114.855485,-9418.149754
2056.053818,133.998066,172.283227,-9418.149754
2056.054446,133.998066,133.998066,-9437.292334
2056.055073,38.285162,114.855485,-9418.149754
2056.055700,76.570323,114.855485,-9437.292334
2056.056328,38.285162,210.568389,-9418.149754
2056.056955,76.570323,153.140646,-9418.149754
2056.057582,76.570323,153.140646,-9418.149754
2056.058210,95.712904,95.712904,-9399.007173
2056.058837,76.570323,114.855485,-9418.149754
2056.059464,133.998066,114.855485,-9418.149754
2056.060091,76.570323,172.283227,-9475.577496
2056.060719,38.285162,153.140646,-9418.149754
2056.061346,133.998066,114.855485,-9418.149754
2056.061973,76.570323,210.568389,-9418.149754
2056.062601,95.712904,172.283227,-9418.149754
2056.063228,76.570323,114.855485,-9456.434915
2056.063855,95.712904,114.855485,-9399.007173
2056.064483,38.285162,172.283227,-9418.149754
2056.065110,95.712904,172.283227,-9533.005238
2056.065737,133.998066,114.855485,-9533.005238
2056.066365,133.998066,153.140646,-9437.292334
2056.066992,133.998066,114.855485,-9418.149754
2056.067619,133.998066,114.855485,-9456.434915
2056.068247,76.570323,95.712904,-9418.149754
2056.068874,133.998066,210.568389,-9418.149754
2056.069501,38.285162,210.568389,-9418.149754
2056.070129,133.998066,114.855485,-9418.149754
2056.070756,133.998066,172.283227,-9418.149754
2056.071383,133.998066,153.140646,-9418.149754
2056.072010,114.855485,172.283227,-9379.864592
2056.072638,76.570323,153.140646,-9418.149754
2056.073265,133.998066,153.140646,-9456.434915
2056.073892,133.998066,133.998066,-9399.007173
2056.074520,76.570323,114.855485,-9418.149754
2056.075147,172.283227,76.570323,-9456.434915
2056.075774,133.998066,114.855485,-9418.149754
2056.076402,153.140646,133.998066,-9399.007173
2056.077029,76.570323,114.855485,-9437.292334
2056.077656,95.712904,95.712904,-9399.007173
2056.078284,76.570323,114.855485,-9418.149754
2056.078911,38.285162,114.855485,-9418.149754
2056.079538,210.568389,153.140646,-9399.007173
2056.080166,133.998066,172.283227,-9418.149754
2056.080793,95.712904,229.710970,-9418.149754
2056.081420,153.140646,133.998066,-9399.007173
2056.082047,133.998066,210.568389,-9418.149754
2056.082675,95.712904,191.425808,-9418.149754
2056.083302,133.998066,114.855485,-9418.149754
2056.083929,153.140646,172.283227,-9399.007173
2056.084557,133.998066,153.140646,-9399.007173
2056.085184,133.998066,114.855485,-9418.149754
2056.085811,133.998066,153.140646,-9437.292334
2056.086439,57.427742,153.140646,-9475.577496
2056.087066,76.570323,172.283227,-9456.434915
2056.087693,76.570323,153.140646,-9418.149754
2056.088321,114.855485,172.283227,-9399.007173
2056.088948,153.140646,153.140646,-9399.007173
2056.089575,76.570323,153.140646,-9418.149754
2056.090203,76.570323,114.855485,-9418.149754
2056.090830,133.998066,114.855485,-9418.149754
2056.091457,133.998066,133.998066,-9399.007173
2056.092085,95.712904,114.855485,-9418.149754
2056.092712,76.570323,114.855485,-9418.149754
2056.093339,114.855485,133.998066,-9418.149754
2056.093966,133.998066,210.568389,-9456.434915
2056.094594,76.570323,114.855485,-9437.292334
2056.095221,133.998066,153.140646,-9418.149754
2056.095848,76.570323,114.855485,-9418.149754
2056.096476,38.285162,191.425808,-9418.149754
2056.097103,133.998066,114.855485,-9456.434915
2056.097730,133.998066,114.855485,-9418.149754
2056.098358,38.285162,191.425808,-9418.149754
2056.098985,38.285162,153.140646,-9418.149754
2056.099612,38.285162,172.283227,-9494.720077
2056.100240,76.570323,172.283227,-9418.149754
2056.100867,76.570323,114.855485,-9418.149754
2056.101494,114.855485,95.712904,-9399.007173
2056.102122,76.570323,114.855485,-9437.292334
2056.102749,38.285162,172.283227,-9418.149754
2056.103376,133.998066,210.568389,-9418.149754
2056.104003,76.570323,114.855485,-9418.149754
2056.104631,114.855485,133.998066,-9360.722011
2056.105258,114.855485,95.712904,-9399.007173
2056.105885,133.998066,133.998066,-9399.007173
2056.106513,133.998066,114.855485,-9418.149754
2056.107140,76.570323,114.855485,-9418.149754
2056.107767,38.285162,114.855485,-9399.007173
2056.108395,95.712904,95.712904,-9399.007173
2056.109022,133.998066,114.855485,-9418.149754
2056.109649,38.285162,172.283227,-9418.149754
2056.110277,95.712904,114.855485,-9418.149754
2056.110904,133.998066,133.998066,-9399.007173
2056.111531,38.285162,172.283227,-9418.149754
2056.112159,38.285162,172.283227,-9418.149754
2056.112786,95.712904,153.140646,-9456.434915
2056.113413,133.998066,153.140646,-9418.149754
2056.114041,76.570323,153.140646,-9533.005238
2056.114668,133.998066,172.283227,-9418.149754
2056.115295,76.570323,153.140646,-9418.149754
2056.115922,38.285162,172.283227,-9418.149754
2056.116550,133.998066,172.283227,-9399.007173
2056.117177,133.998066,76.570323,-9379.864592
2056.117804,172.283227,153.140646,-9379.864592
2056.118432,153.140646,133.998066,-9437.292334
2056.119059,153.140646,133.998066,-9399.007173
2056.119686,76.570323,172.283227,-9494.720077
2056.120314,133.998066,114.855485,-9418.149754
2056.120941,95.712904,133.998066,-9360.722011
2056.121568,95.712904,114.855485,-9399.007173
2056.122196,133.998066,114.855485,-9418.149754
2056.122823,76.570323,95.712904,-9399.007173
2056.123450,114.855485,114.855485,-9379.864592
2056.124078,133.998066,114.855485,-9418.149754
2056.124705,133.998066,153.140646,-9418.149754
2056.125332,76.570323,153.140646,-9456.434915
2056.125959,133.998066,172.283227,-9418.149754
2056.126587,95.712904,210.568389,-9418.149754
2056.127214,95.712904,133.998066,-9360.722011
2056.127841,133.998066,114.855485,-9418.149754
2056.128469,95.712904,114.855485,-9437.292334
2056.129096,153.140646,172.283227,-9437.292334
2056.129723,210.568389,153.140646,-9456.434915
2056.130351,76.570323,153.140646,-9418.149754
2056.130978,76.570323,172.283227,-9437.292334
2056.131605,114.855485,114.855485,-9456.434915
2056.132233,95.712904,210.568389,-9418.149754
2056.132860,76.570323,114.855485,-9418.149754
2056.133487,133.998066,172.283227,-9399.007173
2056.134115,95.712904,114.855485,-9456.434915
2056.134742,38.285162,114.855485,-9437.292334
2056.135369,76.570323,114.855485,-9418.149754
2056.135997,57.427742,95.712904,-9399.007173
2056.136624,95.712904,133.998066,-9360.722011
2056.137251,133.998066,114.855485,-9418.149754
2056.137878,76.570323,114.855485,-9437.292334
2056.138506,133.998066,114.855485,-9418.149754
2056.139133,95.712904,133.998066,-9360.722011
2056.139760,133.998066,114.855485,-9418.149754
2056.140388,76.570323,114.855485,-9418.149754
2056.141015,38.285162,114.855485,-9418.149754
2056.141642,114.855485,95.712904,-9456.434915
2056.142270,133.998066,114.855485,-9418.149754
2056.142897,153.140646,133.998066,-9399.007173
2056.143524,76.570323,153.140646,-9456.434915
2056.144152,133.998066,114.855485,-9360.722011
2056.144779,133.998066,114.855485,-9437.292334
2056.145406,133.998066,153.140646,-9418.149754
2056.146034,76.570323,114.855485,-9418.149754
2056.146661,76.570323,114.855485,-9418.149754
2056.147288,38.285162,153.140646,-9456.434915
2056.147915,133.998066,114.855485,-9456.434915
2056.148543,133.998066,114.855485,-9418.149754
2056.149170,114.855485,153.140646,-9360.722011
2056.149798,76.570323,153.140646,-9475.577496
2056.150425,38.285162,114.855485,-9418.149754
2056.151052,38.285162,172.283227,-9437.292334
2056.151680,133.998066,153.140646,-9418.149754
2056.152307,114.855485,133.998066,-9360.722011
2056.152934,153.140646,153.140646,-9494.720077
2056.153562,76.570323,229.710970,-9418.149754
2056.154189,114.855485,191.425808,-9360.722011
2056.154816,76.570323,210.568389,-9437.292334
2056.155444,76.570323,210.568389,-9418.149754
2056.156071,76.570323,114.855485,-9418.149754
2056.156699,114.855485,95.712904,-9399.007173
2056.157326,133.998066,114.855485,-9437.292334
2056.157953,76.570323,114.855485,-9418.149754
2056.158581,133.998066,153.140646,-9418.149754
2056.159208,133.998066,114.855485,-9418.149754
2056.159835,133.998066,210.568389,-9437.292334
2056.160463,153.140646,153.140646,-9399.007173
2056.161090,133.998066,114.855485,-9456.434915
2056.161717,76.570323,114.855485,-9418.149754
2056.162345,76.570323,114.855485,-9437.292334
2056.162972,76.570323,114.855485,-9418.149754
2056.163599,38.285162,114.855485,-9418.149754
2056.164227,76.570323,114.855485,-9418.149754
2056.164854,114.855485,95.712904,-9437.292334
2056.165482,133.998066,210.568389,-9399.007173
2056.166109,76.570323,114.855485,-9418.149754
2056.166736,38.285162,210.568389,-9418.149754
2056.167364,133.998066,172.283227,-9437.292334
2056.167991,76.570323,114.855485,-9418.149754
2056.168618,153.140646,191.425808,-9399.007173
2056.169246,76.570323,210.568389,-9418.149754
2056.169873,133.998066,172.283227,-9418.149754
2056.170500,38.285162,114.855485,-9437.292334
2056.171128,76.570323,172.283227,-9418.149754
2056.171755,133.998066,114.855485,-9418.149754
2056.172383,95.712904,172.283227,-9360.722011
2056.173010,76.570323,153.140646,-9418.149754
2056.173637,95.712904,95.712904,-9456.434915
2056.174265,76.570323,153.140646,-9456.434915
2056.174892,133.998066,153.140646,-9418.149754
2056.175519,76.570323,172.283227,-9456.434915
2056.176147,76.570323,114.855485,-9437.292334
2056.176774,95.712904,114.855485,-9418.149754
2056.177401,57.427742,133.998066,-9360.722011
2056.178029,19.142581,172.283227,-9418.149754
2056.178656,76.570323,114.855485,-9437.292334
2056.179284,114.855485,133.998066,-9360.722011
2056.179911,133.998066,133.998066,-9399.007173
2056.180538,133.998066,153.140646,-9418.149754
2056.181166,76.570323,153.140646,-9437.292334
2056.181793,76.570323,172.283227,-9494.720077
2056.182420,57.427742,95.712904,-9437.292334
2056.183048,38.285162,114.855485,-9437.292334
2056.183675,76.570323,114.855485,-9475.577496
2056.184302,133.998066,172.283227,-9418.149754
2056.184930,76.570323,114.855485,-9418.149754
2056.185557,172.283227,114.855485,-9399.007173
2056.186184,76.570323,114.855485,-9418.149754
2056.186812,133.998066,133.998066,-9456.434915
2056.187439,38.285162,172.283227,-9418.149754
2056.188067,57.427742,172.283227,-9475.577496
2056.188694,38.285162,210.568389,-9418.149754
2056.189321,38.285162,172.283227,-9418.149754
2056.189949,133.998066,114.855485,-9418.149754
2056.190576,133.998066,133.998066,-9437.292334
2056.191203,133.998066,114.855485,-9437.292334
2056.191831,95.712904,133.998066,-9360.722011
2056.192458,153.140646,114.855485,-9418.149754
2056.193085,153.140646,133.998066,-9399.007173
2056.193713,76.570323,114.855485,-9418.149754
2056.194340,133.998066,172.283227,-9475.577496
2056.194968,38.285162,153.140646,-9437.292334
2056.195595,95.712904,114.855485,-9418.149754
2056.196222,76.570323,210.568389,-9418.149754
2056.196850,133.998066,114.855485,-9418.149754
2056.197477,133.998066,210.568389,-9437.292334
2056.198104,133.998066,172.283227,-9418.149754
2056.198732,95.712904,95.712904,-9399.007173
2056.199359,76.570323,114.855485,-9418.149754
2056.199986,76.570323,153.140646,-9475.577496
2056.200614,76.570323,114.855485,-9418.149754
2056.201241,76.570323,114.855485,-9418.149754
2056.201869,133.998066,133.998066,-9399.007173
2056.202496,95.712904,172.283227,-9418.149754
2056.203123,76.570323,114.855485,-9475.577496
2056.203751,133.998066,114.855485,-9418.149754
2056.204378,133.998066,191.425808,-9418.149754
2056.205005,133.998066,210.568389,-9494.720077
2056.205633,133.998066,114.855485,-9418.149754
2056.206260,95.712904,153.140646,-9418.149754
2056.206887,133.998066,114.855485,-9418.149754
2056.207515,38.285162,114.855485,-9418.149754
2056.208142,76.570323,114.855485,-9494.720077
2056.208770,38.285162,172.283227,-9475.577496
2056.209397,153.140646,133.998066,-9456.434915
2056.210024,133.998066,114.855485,-9418.149754
2056.210652,172.283227,133.998066,-9437.292334
2056.211279,133.998066,153.140646,-9475.577496
2056.211906,133.998066,114.855485,-9437.292334
2056.212534,38.285162,153.140646,-9456.434915
2056.213161,76.570323,153.140646,-9418.149754
2056.213788,76.570323,114.855485,-9418.149754
2056.214416,133.998066,172.283227,-9418.149754
2056.215043,76.570323,114.855485,-9418.149754
2056.215670,38.285162,172.283227,-9475.577496
2056.216298,38.285162,114.855485,-9418.149754
2056.216925,76.570323,172.283227,-9437.292334
2056.217553,133.998066,153.140646,-9437.292334
2056.218180,114.855485,95.712904,-9437.292334
2056.218807,76.570323,114.855485,-9418.149754
2056.219435,133.998066,153.140646,-9418.149754
2056.220062,76.570323,172.283227,-9418.149754
2056.220689,114.855485,191.425808,-9418.149754
2056.221317,133.998066,114.855485,-9456.434915
2056.221944,76.570323,114.855485,-9418.149754
2056.222571,133.998066,153.140646,-9437.292334
2056.223199,95.712904,95.712904,-9437.292334
2056.223826,76.570323,114.855485,-9437.292334
2056.224454,76.570323,114.855485,-9418.149754
2056.225081,57.427742,95.712904,-9494.720077
2056.225708,76.570323,153.140646,-9418.149754
2056.226336,76.570323,172.283227,-9418.149754
2056.226963,153.140646,191.425808,-9456.434915
2056.227590,38.285162,114.855485,-9437.292334
2056.228218,38.285162,114.855485,-9437.292334
2056.228845,133.998066,114.855485,-9475.577496
2056.229472,153.140646,153.140646,-9399.007173
2056.230100,133.998066,172.283227,-9418.149754
2056.230727,133.998066,210.568389,-9418.149754
2056.231355,95.712904,172.283227,-9418.149754
2056.231982,114.855485,153.140646,-9360.722011
2056.232609,38.285162,172.283227,-9418.149754
2056.233237,76.570323,153.140646,-9418.149754
2056.233864,76.570323,210.568389,-9418.149754
2056.234491,38.285162,172.283227,-9456.434915
2056.235119,76.570323,114.855485,-9418.149754
2056.235746,153.140646,133.998066,-9399.007173
2056.236373,133.998066,172.283227,-9418.149754
2056.237001,76.570323,153.140646,-9437.292334
2056.237628,114.855485,191.425808,-9360.722011
2056.238255,38.285162,153.140646,-9418.149754
2056.238883,76.570323,114.855485,-9418.149754
2056.239510,38.285162,114.855485,-9418.149754
2056.240138,76.570323,114.855485,-9475.577496
2056.240765,153.140646,153.140646,-9437.292334
2056.241392,95.712904,172.283227,-9418.149754
2056.242020,76.570323,114.855485,-9418.149754
2056.242647,133.998066,114.855485,-9437.292334
2056.243274,76.570323,153.140646,-9494.720077
2056.243902,38.285162,114.855485,-9418.149754
2056.244529,133.998066,210.568389,-9437.292334
2056.245156,133.998066,153.140646,-9418.149754
2056.245784,76.570323,210.568389,-9437.292334
2056.246411,133.998066,172.283227,-9475.577496
2056.247039,153.140646,133.998066,-9399.007173
2056.247666,153.140646,153.140646,-9456.434915
2056.248293,76.570323,114.855485,-9418.149754
2056.248921,76.570323,153.140646,-9418.149754
2056.249548,153.140646,172.283227,-9437.292334
2056.250176,133.998066,191.425808,-9399.007173
2056.250803,38.285162,153.140646,-9418.149754
2056.251431,133.998066,114.855485,-9456.434915
2056.252058,76.570323,172.283227,-9437.292334
2056.252686,133.998066,114.855485,-9475.577496
2056.253313,76.570323,172.283227,-9418.149754
2056.253941,76.570323,172.283227,-9456.434915
2056.254568,95.712904,114.855485,-9418.149754
2056.255196,133.998066,133.998066,-9456.434915
2056.255823,76.570323,114.855485,-9418.149754
2056.256451,76.570323,114.855485,-9399.007173
2056.257078,76.570323,114.855485,-9418.149754
2056.257706,57.427742,133.998066,-9360.722011
2056.258333,76.570323,114.855485,-9418.149754
2056.258960,76.570323,114.855485,-9418.149754
2056.259588,76.570323,114.855485,-9418.149754
2056.260215,210.568389,133.998066,-9456.434915
2056.260843,133.998066,114.855485,-9456.434915
2056.261470,114.855485,191.425808,-9360.722011
2056.262098,38.285162,229.710970,-9456.434915
2056.262725,76.570323,114.855485,-9437.292334
2056.263353,153.140646,114.855485,-9418.149754
2056.263980,38.285162,153.140646,-9456.434915
2056.264608,76.570323,114.855485,-9418.149754
2056.265235,76.570323,114.855485,-9456.434915
2056.265863,114.855485,133.998066,-9360.722011
2056.266490,76.570323,153.140646,-9418.149754
2056.267118,95.712904,153.140646,-9360.722011
2056.267745,76.570323,172.283227,-9437.292334
2056.268373,133.998066,191.425808,-9399.007173
2056.269000,95.712904,114.855485,-9418.149754
2056.269628,114.855485,76.570323,-9437.292334
2056.270255,133.998066,114.855485,-9418.149754
2056.270883,76.570323,172.283227,-9418.149754
2056.271510,76.570323,191.425808,-9437.292334
2056.272138,153.140646,133.998066,-9399.007173
2056.272765,114.855485,153.140646,-9360.722011
2056.273393,133.998066,210.568389,-9456.434915
2056.274020,57.427742,172.283227,-9418.149754
2056.274648,38.285162,114.855485,-9437.292334
2056.275275,95.712904,153.140646,-9418.149754
2056.275903,76.570323,153.140646,-9418.149754
2056.276530,133.998066,191.425808,-9379.864592
2056.277158,114.855485,172.283227,-9360.722011
2056.277785,95.712904,153.140646,-9418.149754
2056.278413,133.998066,153.140646,-9418.149754
2056.279040,133.998066,114.855485,-9418.149754
2056.279668,38.285162,114.855485,-9456.434915
2056.280295,57.427742,114.855485,-9418.149754
2056.280923,76.570323,95.712904,-9437.292334
2056.281550,76.570323,114.855485,-9360.722011
2056.282178,95.712904,95.712904,-9399.007173
2056.282805,133.998066,133.998066,-9399.007173
2056.283433,153.140646,191.425808,-9399.007173
2056.284060,95.712904,191.425808,-9360.722011
2056.284688,133.998066,153.140646,-9418.149754
2056.285315,133.998066,172.283227,-9418.149754
2056.285943,95.712904,172.283227,-9418.149754
2056.286570,76.570323,114.855485,-9437.292334
2056.287198,133.998066,153.140646,-9418.149754
2056.287825,133.998066,114.855485,-9437.292334
2056.288453,38.285162,133.998066,-9360.722011
2056.289080,76.570323,114.855485,-9475.577496
2056.289708,133.998066,172.283227,-9456.434915
2056.290335,76.570323,114.855485,-9456.434915
2056.290962,95.712904,133.998066,-9360.722011
2056.291590,133.998066,172.283227,-9494.720077
2056.292217,76.570323,210.568389,-9437.292334
2056.292845,38.285162,153.140646,-9418.149754
2056.293472,133.998066,210.568389,-9475.577496
2056.294100,76.570323,114.855485,-9475.577496
2056.294727,19.142581,210.568389,-9437.292334
2056.295355,38.285162,153.140646,-9418.149754
2056.295982,95.712904,114.855485,-9418.149754
2056.296610,153.140646,191.425808,-9399.007173
2056.297237,76.570323,172.283227,-9418.149754
2056.297865,172.283227,114.855485,-9379.864592
2056.298492,210.568389,133.998066,-9399.007173
2056.299120,76.570323,153.140646,-9418.149754
2056.299747,133.998066,114.855485,-9360.722011
2056.300375,76.570323,114.855485,-9418.149754
2056.301002,76.570323,172.283227,-9418.149754
2056.301630,133.998066,114.855485,-9418.149754
2056.302257,153.140646,172.283227,-9456.434915
2056.302885,133.998066,114.855485,-9418.149754
2056.303512,114.855485,76.570323,-9437.292334
2056.304140,76.570323,114.855485,-9494.720077
2056.304767,133.998066,153.140646,-9418.149754
2056.305395,133.998066,153.140646,-9456.434915
2056.306022,38.285162,114.855485,-9437.292334
2056.306650,76.570323,248.853550,-9360.722011
2056.307277,133.998066,114.855485,-9437.292334
2056.307905,153.140646,133.998066,-9399.007173
2056.308532,114.855485,133.998066,-9360.722011
2056.309160,95.712904,95.712904,-9399.007173
2056.309787,95.712904,114.855485,-9418.149754
2056.310415,76.570323,210.568389,-9418.149754
2056.311042,133.998066,153.140646,-9494.720077
2056.311670,38.285162,114.855485,-9456.434915
2056.312297,133.998066,210.568389,-9418.149754
2056.312925,76.570323,172.283227,-9418.149754
2056.313552,76.570323,114.855485,-9418.149754
2056.314180,76.570323,114.855485,-9437.292334
2056.314807,172.283227,95.712904,-9399.007173
2056.315435,133.998066,172.283227,-9437.292334
2056.316062,76.570323,114.855485,-9456.434915
2056.316690,133.998066,114.855485,-9494.720077
2056.317317,133.998066,153.140646,-9456.434915
2056.317945,76.570323,114.855485,-9418.149754
2056.318572,76.570323,114.855485,-9418.149754
2056.319200,133.998066,114.855485,-9418.149754
2056.319827,76.570323,153.140646,-9418.149754
2056.320455,133.998066,153.140646,-9494.720077
2056.321082,95.712904,95.712904,-9513.862658
2056.321710,133.998066,210.568389,-9418.149754
2056.322337,57.427742,172.283227,-9418.149754
2056.322965,38.285162,114.855485,-9437.292334
2056.323592,76.570323,114.855485,-9437.292334
2056.324219,19.142581,153.140646,-9418.149754
2056.324847,172.283227,114.855485,-9379.864592
2056.325474,76.570323,114.855485,-9418.149754
2056.326102,95.712904,172.283227,-9360.722011
2056.326729,38.285162,114.855485,-9456.434915
2056.327357,133.998066,114.855485,-9456.434915
2056.327984,133.998066,114.855485,-9418.149754
2056.328612,95.712904,114.855485,-9437.292334
2056.329239,133.998066,114.855485,-9456.434915
2056.329867,38.285162,114.855485,-9437.292334
2056.330494,133.998066,133.998066,-9399.007173
2056.331122,133.998066,114.855485,-9418.149754
2056.331749,76.570323,153.140646,-9437.292334
2056.332377,133.998066,114.855485,-9437.292334
2056.333004,172.283227,76.570323,-9456.434915
2056.333632,133.998066,114.855485,-9418.149754
2056.334259,76.570323,114.855485,-9456.434915
2056.334887,133.998066,114.855485,-9418.149754
2056.335514,133.998066,133.998066,-9399.007173
2056.336142,133.998066,172.283227,-9418.149754
2056.336769,133.998066,133.998066,-9399.007173
2056.337397,153.140646,133.998066,-9399.007173
2056.338024,95.712904,133.998066,-9360.722011
2056.338652,133.998066,114.855485,-9418.149754
2056.339279,172.283227,76.570323,-9418.149754
2056.339907,114.855485,95.712904,-9399.007173
2056.340534,153.140646,114.855485,-9418.149754
2056.341162,76.570323,172.283227,-9418.149754
2056.341789,76.570323,114.855485,-9418.149754
2056.342417,133.998066,114.855485,-9437.292334
2056.343044,95.712904,95.712904,-9437.292334
2056.343672,38.285162,114.855485,-9437.292334
2056.344299,76.570323,114.855485,-9418.149754
2056.344927,133.998066,114.855485,-9418.149754
2056.345554,133.998066,172.283227,-9437.292334
2056.346182,133.998066,76.570323,-9456.434915
2056.346809,133.998066,114.855485,-9437.292334
2056.347437,153.140646,133.998066,-9399.007173
2056.348064,76.570323,114.855485,-9437.292334
2056.348692,38.285162,191.425808,-9418.149754
2056.349319,133.998066,153.140646,-9437.292334
2056.349947,76.570323,172.283227,-9418.149754
2056.350574,153.140646,133.998066,-9399.007173
2056.351202,95.712904,95.712904,-9399.007173
2056.351829,76.570323,114.855485,-9437.292334
2056.352457,133.998066,114.855485,-9437.292334
2056.353084,133.998066,114.855485,-9418.149754
2056.353712,133.998066,172.283227,-9456.434915
2056.354339,133.998066,133.998066,-9399.007173
2056.354967,76.570323,172.283227,-9456.434915
2056.355594,133.998066,114.855485,-9437.292334
2056.356222,76.570323,172.283227,-9437.292334
2056.356849,133.998066,153.140646,-9456.434915
2056.357477,76.570323,172.283227,-9456.434915
2056.358104,114.855485,95.712904,-9399.007173
2056.358732,133.998066,172.283227,-9418.149754
2056.359359,76.570323,172.283227,-9418.149754
2056.359987,76.570323,172.283227,-9437.292334
2056.360614,133.998066,133.998066,-9437.292334
2056.361242,76.570323,172.283227,-9418.149754
2056.361869,76.570323,114.855485,-9418.149754
2056.362497,76.570323,172.283227,-9360.722011
2056.363124,95.712904,172.283227,-9418.149754
2056.363752,133.998066,114.855485,-9418.149754
2056.364379,153.140646,172.283227,-9437.292334
2056.365007,76.570323,114.855485,-9418.149754
2056.365634,133.998066,153.140646,-9399.007173
2056.366262,76.570323,114.855485,-9418.149754
2056.366889,133.998066,114.855485,-9437.292334
2056.367517,153.140646,114.855485,-9456.434915
2056.368144,133.998066,172.283227,-9437.292334
2056.368772,114.855485,172.283227,-9360.722011
2056.369399,95.712904,95.712904,-9399.007173
2056.370027,76.570323,114.855485,-9418.149754
2056.370654,38.285162,153.140646,-9418.149754
2056.371282,76.570323,114.855485,-9437.292334
2056.371909,38.285162,172.283227,-9456.434915
2056.372537,76.570323,210.568389,-9418.149754
2056.373164,76.570323,114.855485,-9418.149754
2056.373792,133.998066,210.568389,-9418.149754
2056.374419,76.570323,114.855485,-9418.149754
2056.375047,38.285162,172.283227,-9456.434915
2056.375674,133.998066,153.140646,-9418.149754
2056.376302,133.998066,153.140646,-9418.149754
2056.376929,153.140646,172.283227,-9399.007173
2056.377557,133.998066,114.855485,-9418.149754
2056.378184,153.140646,172.283227,-9399.007173
2056.378812,114.855485,76.570323,-9418.149754
2056.379439,76.570323,172.283227,-9418.149754
2056.380067,95.712904,114.855485,-9418.149754
2056.380694,38.285162,229.710970,-9437.292334
2056.381322,76.570323,153.140646,-9475.577496
2056.381949,133.998066,114.855485,-9456.434915
2056.382577,133.998066,133.998066,-9399.007173
2056.383204,76.570323,172.283227,-9494.720077
2056.383832,95.712904,114.855485,-9418.149754
2056.384459,133.998066,210.568389,-9437.292334
2056.385087,133.998066,153.140646,-9418.149754
2056.385714,76.570323,153.140646,-9418.149754
2056.386342,38.285162,114.855485,-9418.149754
2056.386969,133.998066,191.425808,-9437.292334
2056.387597,153.140646,153.140646,-9399.007173
2056.388224,38.285162,114.855485,-9456.434915
2056.388852,95.712904,95.712904,-9399.007173
2056.389479,114.855485,95.712904,-9399.007173
2056.390107,38.285162,210.568389,-9418.149754
2056.390734,76.570323,229.710970,-9399.007173
2056.391362,133.998066,114.855485,-9437.292334
2056.391989,133.998066,114.855485,-9418.149754
2056.392617,133.998066,153.140646,-9456.434915
2056.393244,153.140646,114.855485,-9418.149754
2056.393872,133.998066,114.855485,-9437.292334
2056.394499,76.570323,210.568389,-9456.434915
2056.395127,133.998066,153.140646,-9418.149754
2056.395754,76.570323,210.568389,-9437.292334
2056.396382,133.998066,153.140646,-9456.434915
2056.397009,114.855485,172.283227,-9360.722011
2056.397637,38.285162,76.570323,-9379.864592
2056.398264,76.570323,172.283227,-9418.149754
2056.398892,153.140646,133.998066,-9475.577496
2056.399519,38.285162,210.568389,-9418.149754
2056.400147,38.285162,153.140646,-9418.149754
2056.400774,114.855485,133.998066,-9360.722011
2056.401401,95.712904,153.140646,-9456.434915
2056.402029,133.998066,153.140646,-9418.149754
2056.402656,114.855485,95.712904,-9456.434915
2056.403284,76.570323,114.855485,-9418.149754
2056.403911,95.712904,153.140646,-9475.577496
2056.404539,76.570323,153.140646,-9437.292334
2056.405166,153.140646,133.998066,-9399.007173
2056.405794,172.283227,76.570323,-9418.149754
2056.406421,114.855485,95.712904,-9437.292334
2056.407049,133.998066,133.998066,-9456.434915
2056.407676,133.998066,114.855485,-9437.292334
2056.408304,95.712904,95.712904,-9456.434915
2056.408931,95.712904,114.855485,-9418.149754
2056.409559,76.570323,114.855485,-9456.434915
2056.410186,76.570323,114.855485,-9456.434915
2056.410814,95.712904,172.283227,-9418.149754
2056.411441,133.998066,172.283227,-9418.149754
2056.412069,76.570323,153.140646,-9418.149754
2056.412696,38.285162,172.283227,-9418.149754
2056.413324,133.998066,114.855485,-9418.149754
2056.413951,133.998066,133.998066,-9437.292334
2056.414579,76.570323,153.140646,-9418.149754
2056.415206,95.712904,153.140646,-9418.149754
2056.415834,133.998066,114.855485,-9418.149754
2056.416461,133.998066,114.855485,-9418.149754
2056.417089,76.570323,114.855485,-9475.577496
2056.417716,210.568389,153.140646,-9399.007173
2056.418344,153.140646,133.998066,-9456.434915
2056.418971,133.998066,114.855485,-9533.005238
2056.419599,76.570323,153.140646,-9418.149754
2056.420226,76.570323,153.140646,-9437.292334
2056.420854,76.570323,172.283227,-9437.292334
2056.421481,133.998066,172.283227,-9418.149754
2056.422109,153.140646,133.998066,-9399.007173
2056.422736,38.285162,114.855485,-9418.149754
2056.423364,38.285162,114.855485,-9456.434915
2056.423991,95.712904,95.712904,-9399.007173
2056.424619,95.712904,95.712904,-9379.864592
2056.425246,76.570323,114.855485,-9437.292334
2056.425874,76.570323,114.855485,-9418.149754
2056.426501,57.427742,172.283227,-9475.577496
2056.427129,38.285162,210.568389,-9475.577496
2056.427756,38.285162,153.140646,-9418.149754
2056.428384,76.570323,153.140646,-9418.149754
2056.429011,76.570323,114.855485,-9418.149754
2056.429639,133.998066,172.283227,-9456.434915
2056.430266,153.140646,153.140646,-9399.007173
2056.430894,133.998066,172.283227,-9437.292334
2056.431521,153.140646,133.998066,-9399.007173
2056.432149,95.712904,153.140646,-9341.579430
2056.432776,95.712904,114.855485,-9418.149754
2056.433404,38.285162,210.568389,-9418.149754
2056.434031,133.998066,114.855485,-9475.577496
2056.434659,76.570323,114.855485,-9456.434915
2056.435286,210.568389,133.998066,-9456.434915
2056.435914,133.998066,114.855485,-9437.292334
2056.436541,57.427742,114.855485,-9399.007173
2056.437169,114.855485,133.998066,-9360.722011
2056.437796,95.712904,95.712904,-9399.007173
2056.438424,76.570323,114.855485,-9437.292334
2056.439051,76.570323,114.855485,-9437.292334
2056.439679,133.998066,114.855485,-9418.149754
2056.440306,153.140646,153.140646,-9399.007173
2056.440934,38.285162,153.140646,-9418.149754
2056.441561,133.998066,114.855485,-9437.292334
2056.442189,95.712904,114.855485,-9437.292334
2056.442816,95.712904,210.568389,-9418.149754
2056.443444,133.998066,172.283227,-9399.007173
2056.444071,133.998066,191.425808,-9437.292334
2056.444699,76.570323,114.855485,-9437.292334
2056.445326,76.570323,114.855485,-9418.149754
2056.445954,76.570323,172.283227,-9418.149754
2056.446581,114.855485,133.998066,-9360.722011
2056.447209,153.140646,133.998066,-9399.007173
2056.447836,133.998066,114.855485,-9418.149754
2056.448464,114.855485,95.712904,-9399.007173
2056.449091,76.570323,210.568389,-9437.292334
2056.449719,133.998066,172.283227,-9475.577496
2056.450346,133.998066,114.855485,-9437.292334
2056.450973,95.712904,229.710970,-9418.149754
2056.451601,114.855485,133.998066,-9360.722011
2056.452228,133.998066,210.568389,-9418.149754
2056.452855,172.283227,172.283227,-9379.864592
2056.453483,172.283227,210.568389,-9379.864592
2056.454110,172.283227,76.570323,-9418.149754
2056.454737,76.570323,114.855485,-9456.434915
2056.455364,76.570323,114.855485,-9437.292334
2056.455992,133.998066,114.855485,-9437.292334
2056.456619,76.570323,114.855485,-9418.149754
2056.457246,133.998066,114.855485,-9418.149754
2056.457874,76.570323,172.283227,-9418.149754
2056.458501,38.285162,153.140646,-9418.149754
2056.459128,114.855485,114.855485,-9399.007173
2056.459755,76.570323,114.855485,-9360.722011
2056.460383,76.570323,114.855485,-9418.149754
2056.461010,133.998066,133.998066,-9399.007173
2056.461637,95.712904,114.855485,-9418.149754
2056.462265,95.712904,210.568389,-9418.149754
2056.462892,19.142581,172.283227,-9418.149754
2056.463519,19.142581,210.568389,-9418.149754
2056.464146,19.142581,133.998066,-9456.434915
2056.464774,133.998066,114.855485,-9437.292334
2056.465401,133.998066,114.855485,-9418.149754
2056.466028,133.998066,114.855485,-9418.149754
2056.466656,133.998066,114.855485,-9418.149754
2056.467283,76.570323,210.568389,-9418.149754
2056.467910,38.285162,114.855485,-9418.149754
2056.468537,95.712904,114.855485,-9418.149754
2056.469165,38.285162,172.283227,-9418.149754
2056.469792,76.570323,153.140646,-9418.149754
2056.470419,76.570323,114.855485,-9418.149754
2056.471047,76.570323,153.140646,-9360.722011
2056.471674,76.570323,172.283227,-9418.149754
2056.472301,76.570323,191.425808,-9360.722011
2056.472928,153.140646,133.998066,-9456.434915
2056.473556,95.712904,114.855485,-9418.149754
2056.474183,95.712904,114.855485,-9475.577496
2056.474810,76.570323,114.855485,-9418.149754
2056.475438,95.712904,210.568389,-9360.722011
2056.476065,95.712904,95.712904,-9399.007173
2056.476692,38.285162,172.283227,-9418.149754
2056.477319,38.285162,210.568389,-9418.149754
2056.477947,76.570323,114.855485,-9533.005238
2056.478574,133.998066,210.568389,-9418.149754
2056.479201,133.998066,114.855485,-9456.434915
2056.479829,76.570323,210.568389,-9418.149754
2056.480456,57.427742,95.712904,-9456.434915
2056.481083,38.285162,153.140646,-9418.149754
2056.481710,114.855485,95.712904,-9399.007173
2056.482338,153.140646,153.140646,-9456.434915
2056.482965,133.998066,210.568389,-9437.292334
2056.483592,133.998066,114.855485,-9418.149754
2056.484220,114.855485,133.998066,-9341.579430
2056.484847,114.855485,95.712904,-9399.007173
2056.485474,133.998066,172.283227,-9456.434915
2056.486101,76.570323,114.855485,-9418.149754
2056.486729,38.285162,114.855485,-9418.149754
2056.487356,76.570323,114.855485,-9456.434915
2056.487983,153.140646,133.998066,-9437.292334
2056.488611,76.570323,172.283227,-9360.722011
2056.489238,95.712904,114.855485,-9418.149754
2056.489865,76.570323,114.855485,-9418.149754
2056.490492,38.285162,153.140646,-9360.722011
2056.491120,133.998066,172.283227,-9475.577496
2056.491747,133.998066,114.855485,-9418.149754
2056.492374,76.570323,114.855485,-9418.149754
2056.493001,114.855485,95.712904,-9456.434915
2056.493629,76.570323,114.855485,-9418.149754
2056.494256,133.998066,114.855485,-9418.149754
2056.494883,76.570323,114.855485,-9418.149754
2056.495511,153.140646,133.998066,-9456.434915
2056.496138,133.998066,114.855485,-9437.292334
2056.496765,133.998066,153.140646,-9437.292334
2056.497392,133.998066,153.140646,-9418.149754
2056.498020,114.855485,95.712904,-9399.007173
2056.498647,133.998066,114.855485,-9437.292334
2056.499274,76.570323,114.855485,-9456.434915
2056.499902,133.998066,114.855485,-9418.149754
2056.500529,38.285162,114.855485,-9418.149754
2056.501156,38.285162,172.283227,-9418.149754
2056.501783,133.998066,114.855485,-9418.149754
2056.502411,76.570323,114.855485,-9418.149754
2056.503038,95.712904,114.855485,-9399.007173
2056.503665,76.570323,114.855485,-9418.149754
2056.504293,114.855485,95.712904,-9399.007173
2056.504920,76.570323,95.712904,-9399.007173
2056.505547,133.998066,172.283227,-9418.149754
2056.506174,133.998066,114.855485,-9418.149754
2056.506802,76.570323,114.855485,-9456.434915
2056.507429,153.140646,172.283227,-9456.434915
2056.508056,76.570323,153.140646,-9418.149754
2056.508684,76.570323,114.855485,-9437.292334
2056.509311,133.998066,114.855485,-9418.149754
2056.509938,76.570323,114.855485,-9418.149754
2056.510565,95.712904,95.712904,-9399.007173
2056.511193,76.570323,114.855485,-9418.149754
2056.511820,114.855485,95.712904,-9399.007173
2056.512447,95.712904,95.712904,-9399.007173
2056.513075,76.570323,114.855485,-9418.149754
2056.513702,76.570323,172.283227,-9437.292334
2056.514329,95.712904,172.283227,-9456.434915
2056.514956,76.570323,114.855485,-9418.149754
2056.515584,76.570323,210.568389,-9456.434915
2056.516211,153.140646,172.283227,-9399.007173
2056.516838,133.998066,114.855485,-9418.149754
2056.517466,133.998066,153.140646,-9418.149754
2056.518093,76.570323,114.855485,-9418.149754
2056.518720,95.712904,114.855485,-9399.007173
2056.519347,76.570323,172.283227,-9456.434915
2056.519975,191.425808,76.570323,-9437.292334
2056.520602,76.570323,191.425808,-9418.149754
2056.521229,76.570323,172.283227,-9437.292334
2056.521857,76.570323,114.855485,-9418.149754
2056.522484,133.998066,114.855485,-9418.149754
2056.523111,76.570323,153.140646,-9418.149754
2056.523738,133.998066,114.855485,-9456.434915
2056.524366,153.140646,133.998066,-9399.007173
2056.524993,114.855485,133.998066,-9360.722011
2056.525620,76.570323,114.855485,-9437.292334
2056.526248,76.570323,114.855485,-9418.149754
2056.526875,153.140646,133.998066,-9379.864592
2056.527502,133.998066,153.140646,-9399.007173
2056.528129,76.570323,153.140646,-9418.149754
2056.528757,76.570323,114.855485,-9418.149754
2056.529384,114.855485,153.140646,-9360.722011
2056.530011,153.140646,133.998066,-9399.007173
2056.530639,133.998066,114.855485,-9418.149754
2056.531266,153.140646,133.998066,-9399.007173
2056.531893,76.570323,114.855485,-9456.434915
2056.532520,38.285162,114.855485,-9418.149754
2056.533148,38.285162,172.283227,-9418.149754
2056.533775,76.570323,153.140646,-9475.577496
2056.534402,95.712904,191.425808,-9418.149754
2056.535030,76.570323,172.283227,-9437.292334
2056.535657,133.998066,114.855485,-9475.577496
2056.536284,76.570323,153.140646,-9418.149754
2056.536911,76.570323,229.710970,-9533.005238
2056.537539,76.570323,172.283227,-9437.292334
2056.538166,76.570323,114.855485,-9418.149754
2056.538793,76.570323,114.855485,-9418.149754
2056.539421,76.570323,114.855485,-9418.149754
2056.540048,76.570323,153.140646,-9437.292334
2056.540675,76.570323,210.568389,-9475.577496
2056.541302,133.998066,172.283227,-9418.149754
2056.541930,38.285162,114.855485,-9418.149754
2056.542557,76.570323,153.140646,-9475.577496
2056.543184,95.712904,133.998066,-9360.722011
2056.543811,133.998066,172.283227,-9418.149754
2056.544439,133.998066,114.855485,-9437.292334
2056.545066,153.140646,172.283227,-9399.007173
2056.545693,153.140646,114.855485,-9418.149754
2056.546321,133.998066,114.855485,-9437.292334
2056.546948,76.570323,114.855485,-9418.149754
2056.547575,95.712904,172.283227,-9418.149754
2056.548202,76.570323,153.140646,-9418.149754
2056.548830,76.570323,114.855485,-9418.149754
2056.549457,38.285162,114.855485,-9418.149754
2056.550084,76.570323,191.425808,-9360.722011
2056.550712,133.998066,114.855485,-9418.149754
2056.551339,133.998066,153.140646,-9418.149754
2056.551966,76.570323,114.855485,-9418.149754
2056.552594,19.142581,114.855485,-9418.149754
2056.553221,76.570323,114.855485,-9418.149754
2056.553848,133.998066,153.140646,-9456.434915
2056.554476,95.712904,114.855485,-9418.149754
2056.555103,133.998066,172.283227,-9399.007173
2056.555730,133.998066,114.855485,-9418.149754
2056.556358,133.998066,172.283227,-9456.434915
2056.556985,133.998066,114.855485,-9418.149754
2056.557613,38.285162,114.855485,-9418.149754
2056.558240,76.570323,114.855485,-9418.149754
2056.558867,76.570323,114.855485,-9437.292334
2056.559495,76.570323,114.855485,-9475.577496
2056.560122,95.712904,95.712904,-9399.007173
2056.560749,95.712904,95.712904,-9399.007173
2056.561377,133.998066,114.855485,-9418.149754
2056.562004,133.998066,114.855485,-9418.149754
2056.562631,76.570323,95.712904,-9494.720077
2056.563259,133.998066,153.140646,-9456.434915
2056.563886,95.712904,114.855485,-9418.149754
2056.564513,95.712904,95.712904,-9399.007173
2056.565141,76.570323,172.283227,-9418.149754
2056.565768,76.570323,114.855485,-9418.149754
2056.566395,133.998066,114.855485,-9418.149754
2056.567023,153.140646,153.140646,-9399.007173
2056.567650,76.570323,76.570323,-9379.864592
2056.568278,76.570323,172.283227,-9418.149754
2056.568905,95.712904,114.855485,-9399.007173
2056.569532,95.712904,133.998066,-9360.722011
2056.570160,153.140646,133.998066,-9456.434915
2056.570787,38.285162,153.140646,-9456.434915
2056.571414,172.283227,76.570323,-9475.577496
2056.572042,133.998066,114.855485,-9418.149754
2056.572669,133.998066,114.855485,-9437.292334
2056.573296,95.712904,172.283227,-9418.149754
2056.573924,76.570323,114.855485,-9418.149754
2056.574551,153.140646,210.568389,-9399.007173
2056.575178,76.570323,210.568389,-9418.149754
2056.575806,133.998066,114.855485,-9437.292334
2056.576433,76.570323,76.570323,-9379.864592
2056.577060,133.998066,114.855485,-9418.149754
2056.577688,76.570323,172.283227,-9533.005238
2056.578315,76.570323,114.855485,-9437.292334
2056.578942,133.998066,248.853550,-9399.007173
2056.579570,76.570323,114.855485,-9456.434915
2056.580197,76.570323,114.855485,-9475.577496
2056.580825,38.285162,153.140646,-9456.434915
2056.581452,133.998066,153.140646,-9418.149754
2056.582079,76.570323,114.855485,-9418.149754
2056.582707,133.998066,172.283227,-9399.007173
2056.583334,57.427742,133.998066,-9475.577496
2056.583961,133.998066,172.283227,-9418.149754
2056.584589,133.998066,114.855485,-9456.434915
2056.585216,76.570323,114.855485,-9418.149754
2056.585843,133.998066,114.855485,-9418.149754
2056.586471,38.285162,153.140646,-9456.434915
2056.587098,95.712904,114.855485,-9418.149754
2056.587725,95.712904,95.712904,-9399.007173
2056.588353,95.712904,95.712904,-9399.007173
2056.588980,153.140646,172.283227,-9456.434915
2056.589607,76.570323,114.855485,-9456.434915
2056.590235,76.570323,172.283227,-9418.149754
2056.590862,133.998066,210.568389,-9418.149754
2056.591489,76.570323,114.855485,-9437.292334
2056.592117,153.140646,133.998066,-9399.007173
2056.592744,95.712904,172.283227,-9360.722011
2056.593372,76.570323,153.140646,-9456.434915
2056.593999,133.998066,114.855485,-9494.720077
2056.594626,153.140646,114.855485,-9475.577496
2056.595254,153.140646,153.140646,-9437.292334
2056.595881,153.140646,191.425808,-9399.007173
2056.596508,133.998066,172.283227,-9418.149754
2056.597136,76.570323,210.568389,-9456.434915
2056.597763,133.998066,114.855485,-9418.149754
2056.598390,76.570323,114.855485,-9418.149754
2056.599018,133.998066,153.140646,-9418.149754
2056.599645,114.855485,95.712904,-9399.007173
2056.600272,133.998066,210.568389,-9418.149754
2056.600900,19.142581,133.998066,-9379.864592
2056.601527,153.140646,153.140646,-9399.007173
2056.602154,153.140646,153.140646,-9418.149754
2056.602782,76.570323,172.283227,-9418.149754
2056.603409,95.712904,153.140646,-9418.149754
2056.604037,133.998066,153.140646,-9418.149754
2056.604664,76.570323,114.855485,-9456.434915
2056.605291,95.712904,153.140646,-9360.722011
2056.605919,153.140646,191.425808,-9418.149754
2056.606546,76.570323,114.855485,-9418.149754
2056.607173,57.427742,172.283227,-9418.149754
2056.607801,38.285162,153.140646,-9456.434915
2056.608428,76.570323,210.568389,-9456.434915
2056.609055,76.570323,153.140646,-9418.149754
2056.609683,38.285162,114.855485,-9418.149754
2056.610310,76.570323,114.855485,-9418.149754
2056.610937,95.712904,114.855485,-9533.005238
2056.611565,95.712904,95.712904,-9513.862658
2056.612192,76.570323,114.855485,-9437.292334
2056.612819,133.998066,114.855485,-9418.149754
2056.613447,57.427742,95.712904,-9399.007173
2056.614074,95.712904,114.855485,-9418.149754
2056.614701,38.285162,191.425808,-9418.149754
2056.615329,76.570323,210.568389,-9418.149754
2056.615956,153.140646,133.998066,-9399.007173
2056.616584,133.998066,153.140646,-9418.149754
2056.617211,76.570323,114.855485,-9418.149754
2056.617838,57.427742,114.855485,-9437.292334
2056.618466,153.140646,153.140646,-9399.007173
2056.619093,19.142581,114.855485,-9418.149754
2056.619720,76.570323,153.140646,-9437.292334
2056.620348,133.998066,114.855485,-9418.149754
2056.620975,76.570323,172.283227,-9456.434915
2056.621602,133.998066,133.998066,-9456.434915
2056.622230,114.855485,172.283227,-9399.007173
2056.622857,76.570323,210.568389,-9437.292334
2056.623484,76.570323,172.283227,-9418.149754
2056.624112,95.712904,133.998066,-9360.722011
2056.624739,76.570323,172.283227,-9437.292334
2056.625366,76.570323,114.855485,-9418.149754
2056.625994,95.712904,172.283227,-9360.722011
2056.626621,76.570323,114.855485,-9418.149754
2056.627248,38.285162,114.855485,-9437.292334
2056.627876,114.855485,114.855485,-9437.292334
2056.628503,38.285162,153.140646,-9418.149754
2056.629131,76.570323,172.283227,-9418.149754
2056.629758,114.855485,153.140646,-9360.722011
2056.630385,133.998066,114.855485,-9418.149754
2056.631013,133.998066,114.855485,-9418.149754
2056.631640,95.712904,95.712904,-9456.434915
2056.632267,19.142581,172.283227,-9475.577496
2056.632895,38.285162,153.140646,-9437.292334
2056.633522,133.998066,172.283227,-9456.434915
2056.634149,95.712904,133.998066,-9360.722011
2056.634777,38.285162,114.855485,-9437.292334
2056.635404,76.570323,172.283227,-9418.149754
2056.636031,95.712904,153.140646,-9418.149754
2056.636659,133.998066,153.140646,-9418.149754
2056.637286,76.570323,153.140646,-9418.149754
2056.637913,38.285162,114.855485,-9418.149754
2056.638541,114.855485,114.855485,-9379.864592
2056.639168,95.712904,114.855485,-9437.292334
2056.639796,114.855485,114.855485,-9399.007173
2056.640423,133.998066,114.855485,-9418.149754
2056.641050,133.998066,114.855485,-9418.149754
2056.641678,133.998066,114.855485,-9418.149754
2056.642305,133.998066,114.855485,-9418.149754
2056.642932,133.998066,210.568389,-9437.292334
2056.643560,76.570323,172.283227,-9533.005238
2056.644187,76.570323,153.140646,-9418.149754
2056.644814,114.855485,95.712904,-9399.007173
2056.645442,57.427742,172.283227,-9418.149754
2056.646069,133.998066,114.855485,-9475.577496
2056.646696,76.570323,172.283227,-9456.434915
2056.647324,133.998066,114.855485,-9418.149754
2056.647951,133.998066,114.855485,-9418.149754
2056.648578,133.998066,114.855485,-9418.149754
2056.649206,114.855485,172.283227,-9379.864592
2056.649833,172.283227,76.570323,-9456.434915
2056.650460,153.140646,153.140646,-9399.007173
2056.651088,114.855485,95.712904,-9437.292334
2056.651715,153.140646,153.140646,-9399.007173
2056.652342,133.998066,114.855485,-9437.292334
2056.652970,153.140646,133.998066,-9399.007173
2056.653597,76.570323,114.855485,-9418.149754
2056.654224,57.427742,95.712904,-9399.007173
2056.654851,133.998066,114.855485,-9418.149754
2056.655479,133.998066,133.998066,-9399.007173
2056.656106,114.855485,172.283227,-9360.722011
2056.656733,153.140646,172.283227,-9456.434915
2056.657360,76.570323,114.855485,-9418.149754
2056.657988,153.140646,133.998066,-9399.007173
2056.658615,153.140646,172.283227,-9437.292334
2056.659242,133.998066,114.855485,-9456.434915
2056.659869,76.570323,114.855485,-9418.149754
2056.660497,76.570323,153.140646,-9418.149754
2056.661124,76.570323,114.855485,-9418.149754
2056.661751,133.998066,210.568389,-9418.149754
2056.662378,76.570323,114.855485,-9456.434915
2056.663006,95.712904,133.998066,-9418.149754
2056.663633,57.427742,114.855485,-9437.292334
2056.664260,76.570323,172.283227,-9418.149754
2056.664887,76.570323,172.283227,-9418.149754
2056.665515,57.427742,114.855485,-9418.149754
2056.666142,153.140646,133.998066,-9437.292334
2056.666769,133.998066,172.283227,-9360.722011
2056.667396,76.570323,114.855485,-9418.149754
2056.668024,133.998066,210.568389,-9437.292334
2056.668651,38.285162,114.855485,-9456.434915
2056.669278,38.285162,229.710970,-9418.149754
2056.669905,95.712904,153.140646,-9418.149754
2056.670533,38.285162,153.140646,-9418.149754
2056.671160,133.998066,114.855485,-9418.149754
2056.671787,133.998066,172.283227,-9399.007173
2056.672414,57.427742,114.855485,-9475.577496
2056.673042,76.570323,114.855485,-9456.434915
2056.673669,95.712904,172.283227,-9360.722011
2056.674296,57.427742,172.283227,-9360.722011
2056.674923,95.712904,172.283227,-9418.149754
2056.675551,76.570323,210.568389,-9437.292334
2056.676178,38.285162,210.568389,-9475.577496
2056.676805,133.998066,153.140646,-9437.292334
2056.677432,133.998066,172.283227,-9456.434915
2056.678060,76.570323,114.855485,-9418.149754
2056.678687,76.570323,153.140646,-9418.149754
2056.679314,133.998066,114.855485,-9418.149754
2056.679942,95.712904,133.998066,-9360.722011
2056.680569,133.998066,172.283227,-9418.149754
2056.681196,76.570323,172.283227,-9418.149754
2056.681823,95.712904,133.998066,-9360.722011
2056.682451,76.570323,153.140646,-9418.149754
2056.683078,38.285162,210.568389,-9399.007173
2056.683705,153.140646,133.998066,-9399.007173
2056.684332,133.998066,172.283227,-9399.007173
2056.684960,95.712904,133.998066,-9360.722011
2056.685587,95.712904,114.855485,-9437.292334
2056.686214,95.712904,172.283227,-9494.720077
2056.686841,76.570323,114.855485,-9418.149754
2056.687469,95.712904,172.283227,-9437.292334
2056.688096,114.855485,210.568389,-9494.720077
2056.688723,133.998066,114.855485,-9494.720077
2056.689350,76.570323,114.855485,-9418.149754
2056.689978,76.570323,114.855485,-9418.149754
2056.690605,133.998066,153.140646,-9418.149754
2056.691232,76.570323,114.855485,-9418.149754
2056.691859,38.285162,114.855485,-9418.149754
2056.692487,38.285162,114.855485,-9418.149754
2056.693114,76.570323,210.568389,-9475.577496
2056.693741,133.998066,153.140646,-9456.434915
2056.694368,76.570323,153.140646,-9475.577496
2056.694996,76.570323,114.855485,-9456.434915
2056.695623,172.283227,76.570323,-9475.577496
2056.696250,133.998066,114.855485,-9494.720077
2056.696877,153.140646,114.855485,-9437.292334
2056.697505,133.998066,114.855485,-9418.149754
2056.698132,95.712904,133.998066,-9360.722011
2056.698759,95.712904,191.425808,-9418.149754
2056.699386,95.712904,210.568389,-9418.149754
2056.700014,133.998066,172.283227,-9418.149754
2056.700641,133.998066,153.140646,-9475.577496
2056.701268,133.998066,114.855485,-9456.434915
2056.701895,133.998066,172.283227,-9456.434915
2056.702523,114.855485,133.998066,-9418.149754
2056.703150,38.285162,114.855485,-9418.149754
2056.703777,76.570323,153.140646,-9437.292334
2056.704405,38.285162,172.283227,-9418.149754
2056.705032,133.998066,114.855485,-9456.434915
2056.705659,95.712904,114.855485,-9456.434915
2056.706286,95.712904,133.998066,-9360.722011
2056.706914,133.998066,114.855485,-9360.722011
2056.707541,76.570323,172.283227,-9418.149754
2056.708168,133.998066,191.425808,-9475.577496
2056.708795,95.712904,229.710970,-9533.005238
2056.709423,38.285162,172.283227,-9418.149754
2056.710050,57.427742,229.710970,-9399.007173
2056.710677,76.570323,153.140646,-9418.149754
2056.711304,38.285162,191.425808,-9437.292334
2056.711932,76.570323,153.140646,-9475.577496
2056.712559,114.855485,114.855485,-9418.149754
2056.713186,76.570323,114.855485,-9475.577496
2056.713813,76.570323,114.855485,-9475.577496
2056.714441,153.140646,133.998066,-9513.862658
2056.715068,133.998066,114.855485,-9437.292334
2056.715695,133.998066,114.855485,-9456.434915
2056.716322,76.570323,172.283227,-9418.149754
2056.716950,133.998066,114.855485,-9456.434915
2056.717577,76.570323,114.855485,-9418.149754
2056.718204,76.570323,153.140646,-9437.292334
2056.718831,76.570323,114.855485,-9418.149754
2056.719459,95.712904,133.998066,-9360.722011
2056.720086,133.998066,153.140646,-9456.434915
2056.720713,38.285162,172.283227,-9475.577496
2056.721340,133.998066,191.425808,-9418.149754
2056.721968,133.998066,210.568389,-9418.149754
2056.722595,38.285162,114.855485,-9418.149754
2056.723222,76.570323,114.855485,-9418.149754
2056.723849,38.285162,114.855485,-9418.149754
2056.724477,133.998066,153.140646,-9418.149754
2056.725104,38.285162,191.425808,-9437.292334
2056.725731,76.570323,191.425808,-9418.149754
2056.726358,76.570323,114.855485,-9418.149754
2056.726986,76.570323,114.855485,-9418.149754
2056.727613,210.568389,210.568389,-9399.007173
2056.728240,114.855485,95.712904,-9456.434915
2056.728868,76.570323,133.998066,-9360.722011
2056.729495,38.285162,172.283227,-9418.149754
2056.730122,76.570323,114.855485,-9437.292334
2056.730749,153.140646,210.568389,-9399.007173
2056.731377,133.998066,172.283227,-9437.292334
2056.732004,133.998066,114.855485,-9418.149754
2056.732631,153.140646,133.998066,-9399.007173
2056.733258,76.570323,114.855485,-9456.434915
2056.733886,76.570323,114.855485,-9418.149754
2056.734513,133.998066,133.998066,-9399.007173
2056.735140,76.570323,114.855485,-9418.149754
2056.735767,38.285162,172.283227,-9418.149754
2056.736395,153.140646,172.283227,-9399.007173
2056.737022,76.570323,114.855485,-9418.149754
2056.737649,76.570323,114.855485,-9418.149754
2056.738276,153.140646,133.998066,-9399.007173
2056.738904,76.570323,210.568389,-9418.149754
2056.739531,95.712904,153.140646,-9418.149754
2056.740158,133.998066,114.855485,-9437.292334
2056.740785,76.570323,172.283227,-9418.149754
2056.741413,76.570323,153.140646,-9437.292334
2056.742040,76.570323,172.283227,-9437.292334
2056.742667,19.142581,210.568389,-9437.292334
2056.743294,172.283227,95.712904,-9399.007173
2056.743922,57.427742,153.140646,-9456.434915
2056.744549,133.998066,172.283227,-9418.149754
2056.745176,76.570323,172.283227,-9494.720077
2056.745803,76.570323,114.855485,-9456.434915
2056.746431,76.570323,210.568389,-9456.434915
2056.747058,76.570323,210.568389,-9418.149754
2056.747685,38.285162,172.283227,-9437.292334
2056.748312,153.140646,133.998066,-9456.434915
2056.748940,114.855485,95.712904,-9399.007173
2056.749567,38.285162,114.855485,-9418.149754
2056.750194,133.998066,114.855485,-9456.434915
2056.750821,153.140646,153.140646,-9399.007173
2056.751449,95.712904,133.998066,-9360.722011
2056.752076,133.998066,114.855485,-9418.149754
2056.752704,76.570323,114.855485,-9475.577496
2056.753331,133.998066,172.283227,-9475.577496
2056.753959,76.570323,114.855485,-9418.149754
2056.754586,95.712904,210.568389,-9360.722011
2056.755214,114.855485,172.283227,-9399.007173
2056.755841,153.140646,191.425808,-9399.007173
2056.756469,133.998066,153.140646,-9399.007173
2056.757096,95.712904,153.140646,-9418.149754
2056.757724,95.712904,210.568389,-9360.722011
2056.758351,38.285162,114.855485,-9437.292334
2056.758979,95.712904,95.712904,-9399.007173
2056.759606,76.570323,114.855485,-9418.149754
2056.760234,114.855485,76.570323,-9418.149754
2056.760861,76.570323,210.568389,-9456.434915
2056.761489,38.285162,114.855485,-9456.434915
2056.762116,76.570323,114.855485,-9418.149754
2056.762744,76.570323,191.425808,-9456.434915
2056.763371,133.998066,153.140646,-9418.149754
2056.763999,76.570323,114.855485,-9418.149754
2056.764626,133.998066,114.855485,-9418.149754
2056.765253,133.998066,114.855485,-9418.149754
2056.765881,133.998066,114.855485,-9418.149754
2056.766508,76.570323,210.568389,-9456.434915
2056.767136,133.998066,133.998066,-9399.007173
2056.767763,133.998066,114.855485,-9437.292334
2056.768391,133.998066,133.998066,-9360.722011
2056.769018,133.998066,114.855485,-9437.292334
2056.769646,38.285162,114.855485,-9475.577496
2056.770273,76.570323,114.855485,-9456.434915
2056.770901,76.570323,153.140646,-9456.434915
2056.771528,76.570323,153.140646,-9399.007173
2056.772156,95.712904,95.712904,-9399.007173
2056.772783,95.712904,114.855485,-9399.007173
2056.773411,76.570323,153.140646,-9418.149754
2056.774038,76.570323,172.283227,-9418.149754
2056.774666,76.570323,210.568389,-9418.149754
2056.775293,114.855485,191.425808,-9437.292334
2056.775921,153.140646,114.855485,-9437.292334
2056.776548,76.570323,114.855485,-9437.292334
2056.777176,133.998066,172.283227,-9418.149754
2056.777803,57.427742,172.283227,-9360.722011
2056.778431,76.570323,172.283227,-9418.149754
2056.779058,38.285162,153.140646,-9456.434915
2056.779685,38.285162,114.855485,-9437.292334
2056.780313,133.998066,133.998066,-9399.007173
2056.780940,76.570323,229.710970,-9418.149754
2056.781568,153.140646,133.998066,-9437.292334
2056.782195,76.570323,114.855485,-9418.149754
2056.782823,38.285162,114.855485,-9418.149754
2056.783450,133.998066,114.855485,-9418.149754
2056.784078,133.998066,172.283227,-9418.149754
2056.784705,38.285162,114.855485,-9418.149754
2056.785333,95.712904,114.855485,-9475.577496
2056.785960,153.140646,133.998066,-9456.434915
2056.786588,76.570323,172.283227,-9437.292334
2056.787215,95.712904,95.712904,-9399.007173
2056.787843,95.712904,95.712904,-9399.007173
2056.788470,133.998066,133.998066,-9399.007173
2056.789098,153.140646,153.140646,-9399.007173
2056.789725,76.570323,153.140646,-9418.149754
2056.790353,76.570323,172.283227,-9418.149754
2056.790980,133.998066,114.855485,-9418.149754
2056.791608,114.855485,153.140646,-9360.722011
2056.792235,133.998066,172.283227,-9418.149754
2056.792863,153.140646,153.140646,-9456.434915
2056.793490,76.570323,153.140646,-9418.149754
2056.794117,95.712904,114.855485,-9418.149754
2056.794745,114.855485,172.283227,-9360.722011
2056.795372,76.570323,172.283227,-9418.149754
2056.796000,95.712904,172.283227,-9418.149754
2056.796627,133.998066,114.855485,-9418.149754
2056.797255,153.140646,172.283227,-9399.007173
2056.797882,95.712904,153.140646,-9360.722011
2056.798510,76.570323,114.855485,-9418.149754
2056.799137,95.712904,153.140646,-9437.292334
2056.799765,153.140646,133.998066,-9399.007173
2056.800392,133.998066,114.855485,-9437.292334
2056.801020,76.570323,153.140646,-9437.292334
2056.801647,76.570323,114.855485,-9437.292334
2056.802275,133.998066,114.855485,-9456.434915
2056.802902,153.140646,172.283227,-9399.007173
2056.803530,114.855485,76.570323,-9533.005238
2056.804157,153.140646,153.140646,-9475.577496
2056.804785,76.570323,114.855485,-9494.720077
2056.805412,133.998066,114.855485,-9437.292334
2056.806040,133.998066,114.855485,-9456.434915
2056.806667,95.712904,133.998066,-9360.722011
2056.807295,133.998066,114.855485,-9418.149754
2056.807922,76.570323,153.140646,-9418.149754
2056.808549,76.570323,172.283227,-9418.149754
2056.809177,38.285162,210.568389,-9456.434915
2056.809804,133.998066,172.283227,-9379.864592
2056.810432,133.998066,114.855485,-9418.149754
2056.811059,133.998066,153.140646,-9418.149754
2056.811687,133.998066,114.855485,-9418.149754
2056.812314,76.570323,114.855485,-9418.149754
2056.812942,95.712904,95.712904,-9494.720077
2056.813569,95.712904,114.855485,-9418.149754
2056.814197,95.712904,95.712904,-9399.007173
2056.814824,38.285162,114.855485,-9418.149754
2056.815452,153.140646,133.998066,-9399.007173
2056.816079,153.140646,133.998066,-9494.720077
2056.816707,95.712904,153.140646,-9475.577496
2056.817334,95.712904,153.140646,-9475.577496
2056.817962,133.998066,210.568389,-9418.149754
2056.818589,114.855485,191.425808,-9418.149754
2056.819217,133.998066,114.855485,-9418.149754
2056.819844,153.140646,133.998066,-9456.434915
2056.820472,133.998066,153.140646,-9418.149754
2056.821099,172.283227,114.855485,-9379.864592
2056.821726,133.998066,114.855485,-9418.149754
2056.822354,76.570323,153.140646,-9418.149754
2056.822981,38.285162,114.855485,-9475.577496
2056.823609,38.285162,114.855485,-9475.577496
2056.824236,38.285162,114.855485,-9475.577496
2056.824864,95.712904,172.283227,-9418.149754
2056.825491,38.285162,114.855485,-9437.292334
2056.826119,95.712904,114.855485,-9437.292334
2056.826746,76.570323,153.140646,-9418.149754
2056.827374,114.855485,133.998066,-9360.722011
2056.828001,133.998066,114.855485,-9418.149754
2056.828629,95.712904,114.855485,-9418.149754
2056.829256,38.285162,153.140646,-9418.149754
2056.829884,76.570323,172.283227,-9418.149754
2056.830511,95.712904,191.425808,-9437.292334
2056.831139,76.570323,153.140646,-9456.434915
2056.831766,38.285162,210.568389,-9418.149754
2056.832394,38.285162,153.140646,-9456.434915
2056.833021,95.712904,95.712904,-9399.007173
2056.833649,76.570323,114.855485,-9418.149754
2056.834276,76.570323,153.140646,-9494.720077
2056.834904,76.570323,114.855485,-9456.434915
2056.835531,133.998066,172.283227,-9475.577496
2056.836158,133.998066,114.855485,-9418.149754
2056.836786,95.712904,95.712904,-9399.007173
2056.837413,76.570323,172.283227,-9418.149754
2056.838041,133.998066,133.998066,-9437.292334
2056.838668,76.570323,114.855485,-9437.292334
2056.839296,95.712904,95.712904,-9475.577496
2056.839923,76.570323,153.140646,-9360.722011
2056.840551,133.998066,172.283227,-9437.292334
2056.841178,133.998066,153.140646,-9418.149754
2056.841806,114.855485,114.855485,-9399.007173
2056.842433,95.712904,95.712904,-9399.007173
2056.843061,76.570323,114.855485,-9418.149754
2056.843688,172.283227,76.570323,-9437.292334
2056.844316,153.140646,133.998066,-9456.434915
2056.844943,153.140646,133.998066,-9399.007173
2056.845571,133.998066,114.855485,-9418.149754
2056.846198,95.712904,133.998066,-9418.149754
2056.846826,76.570323,172.283227,-9418.149754
2056.847453,76.570323,172.283227,-9456.434915
2056.848081,38.285162,114.855485,-9418.149754
2056.848708,76.570323,114.855485,-9456.434915
2056.849336,76.570323,210.568389,-9456.434915
2056.849963,95.712904,114.855485,-9418.149754
2056.850590,57.427742,114.855485,-9418.149754
2056.851218,76.570323,114.855485,-9418.149754
2056.851846,76.570323,172.283227,-9418.149754
2056.852473,76.570323,114.855485,-9418.149754
2056.853101,76.570323,153.140646,-9437.292334
2056.853728,76.570323,114.855485,-9475.577496
2056.854356,38.285162,114.855485,-9494.720077
2056.854984,38.285162,114.855485,-9437.292334
2056.855611,76.570323,114.855485,-9418.149754
2056.856239,95.712904,172.283227,-9418.149754
2056.856866,76.570323,210.568389,-9418.149754
2056.857494,133.998066,114.855485,-9418.149754
2056.858121,95.712904,114.855485,-9418.149754
2056.858749,153.140646,114.855485,-9418.149754
2056.859377,133.998066,172.283227,-9418.149754
2056.860004,133.998066,114.855485,-9418.149754
2056.860632,76.570323,114.855485,-9475.577496
2056.861259,133.998066,114.855485,-9418.149754
2056.861887,133.998066,114.855485,-9418.149754
2056.862515,133.998066,114.855485,-9418.149754
2056.863142,76.570323,172.283227,-9437.292334
2056.863770,57.427742,114.855485,-9418.149754
2056.864397,76.570323,210.568389,-9456.434915
2056.865025,38.285162,114.855485,-9418.149754
2056.865652,76.570323,210.568389,-9360.722011
2056.866280,133.998066,114.855485,-9475.577496
2056.866908,133.998066,114.855485,-9456.434915
2056.867535,133.998066,172.283227,-9475.577496
2056.868163,114.855485,114.855485,-9399.007173
2056.868790,133.998066,114.855485,-9418.149754
2056.869418,76.570323,210.568389,-9437.292334
2056.870046,76.570323,114.855485,-9418.149754
2056.870673,133.998066,114.855485,-9437.292334
2056.871301,76.570323,172.283227,-9418.149754
2056.871928,114.855485,153.140646,-9379.864592
2056.872556,133.998066,76.570323,-9379.864592
2056.873183,114.855485,95.712904,-9437.292334
2056.873811,76.570323,210.568389,-9418.149754
2056.874439,76.570323,114.855485,-9418.149754
2056.875066,76.570323,114.855485,-9418.149754
2056.875694,76.570323,114.855485,-9456.434915
2056.876321,76.570323,114.855485,-9437.292334
2056.876949,76.570323,114.855485,-9418.149754
2056.877577,133.998066,133.998066,-9399.007173
2056.878204,133.998066,114.855485,-9418.149754
2056.878832,76.570323,114.855485,-9418.149754
2056.879459,153.140646,133.998066,-9399.007173
2056.880087,133.998066,114.855485,-9418.149754
2056.880714,114.855485,133.998066,-9360.722011
2056.881342,76.570323,114.855485,-9456.434915
2056.881970,76.570323,153.140646,-9418.149754
2056.882597,95.712904,172.283227,-9456.434915
2056.883225,76.570323,210.568389,-9418.149754
2056.883852,76.570323,114.855485,-9437.292334
2056.884480,38.285162,114.855485,-9418.149754
2056.885108,133.998066,172.283227,-9475.577496
2056.885735,76.570323,114.855485,-9418.149754
2056.886363,133.998066,114.855485,-9418.149754
2056.886990,133.998066,114.855485,-9418.149754
2056.887618,76.570323,153.140646,-9456.434915
2056.888246,133.998066,114.855485,-9437.292334
2056.888873,133.998066,114.855485,-9418.149754
2056.889501,76.570323,210.568389,-9456.434915
2056.890128,153.140646,114.855485,-9437.292334
2056.890756,153.140646,76.570323,-9571.290400
2056.891383,57.427742,133.998066,-9533.005238
2056.892011,95.712904,95.712904,-9437.292334
2056.892639,95.712904,114.855485,-9418.149754
2056.893266,76.570323,114.855485,-9418.149754
2056.893894,38.285162,172.283227,-9418.149754
2056.894521,38.285162,210.568389,-9437.292334
2056.895149,133.998066,191.425808,-9418.149754
2056.895777,76.570323,172.283227,-9494.720077
2056.896404,38.285162,153.140646,-9418.149754
2056.897032,76.570323,114.855485,-9437.292334
2056.897659,76.570323,114.855485,-9418.149754
2056.898287,95.712904,114.855485,-9418.149754
2056.898914,76.570323,114.855485,-9418.149754
2056.899542,133.998066,114.855485,-9418.149754
2056.900170,38.285162,153.140646,-9418.149754
2056.900797,19.142581,114.855485,-9418.149754
2056.901425,76.570323,191.425808,-9418.149754
2056.902052,57.427742,95.712904,-9494.720077
2056.902680,57.427742,95.712904,-9456.434915
2056.903308,76.570323,133.998066,-9475.577496
2056.903935,76.570323,114.855485,-9456.434915
2056.904563,95.712904,95.712904,-9456.434915
2056.905190,76.570323,114.855485,-9418.149754
2056.905818,172.283227,114.855485,-9399.007173
2056.906445,95.712904,229.710970,-9399.007173
2056.907073,133.998066,114.855485,-9418.149754
2056.907701,133.998066,210.568389,-9437.292334
2056.908328,38.285162,153.140646,-9437.292334
2056.908956,76.570323,114.855485,-9475.577496
2056.909583,38.285162,210.568389,-9437.292334
2056.910211,19.142581,153.140646,-9437.292334
2056.910839,114.855485,133.998066,-9360.722011
