#time,accel_x,accel_y,accel_z
2023.370822,38.285162,153.140646,-9475.577496
2023.371450,133.998066,172.283227,-9418.149754
2023.372077,114.855485,191.425808,-9418.149754
2023.372705,76.570323,114.855485,-9437.292334
2023.373332,133.998066,114.855485,-9418.149754
2023.373960,76.570323,172.283227,-9418.149754
2023.374588,95.712904,133.998066,-9360.722011
2023.375215,133.998066,114.855485,-9437.292334
2023.375843,153.140646,133.998066,-9494.720077
2023.376470,95.712904,95.712904,-9399.007173
2023.377098,57.427742,133.998066,-9360.722011
2023.377725,133.998066,172.283227,-9418.149754
2023.378353,133.998066,95.712904,-9437.292334
2023.378981,76.570323,153.140646,-9456.434915
2023.379608,76.570323,153.140646,-9437.292334
2023.380236,38.285162,210.568389,-9437.292334
2023.380863,133.998066,114.855485,-9418.149754
2023.381491,114.855485,95.712904,-9399.007173
2023.382118,153.140646,191.425808,-9437.292334
2023.382746,133.998066,210.568389,-9418.149754
2023.383373,133.998066,153.140646,-9418.149754
2023.384001,133.998066,114.855485,-9418.149754
2023.384629,133.998066,153.140646,-9418.149754
2023.385256,38.285162,114.855485,-9437.292334
2023.385884,133.998066,114.855485,-9418.149754
2023.386511,153.140646,133.998066,-9437.292334
2023.387139,153.140646,133.998066,-9437.292334
2023.387766,133.998066,114.855485,-9437.292334
2023.388394,133.998066,114.855485,-9418.149754
2023.389022,133.998066,114.855485,-9475.577496
2023.389649,95.712904,172.283227,-9418.149754
2023.390277,76.570323,153.140646,-9456.434915
2023.390904,76.570323,210.568389,-9418.149754
2023.391532,133.998066,114.855485,-9418.149754
2023.392159,133.998066,114.855485,-9418.149754
2023.392787,133.998066,114.855485,-9418.149754
2023.393414,57.427742,114.855485,-9437.292334
2023.394042,76.570323,114.855485,-9418.149754
2023.394670,133.998066,114.855485,-9418.149754
2023.395297,57.427742,191.425808,-9360.722011
2023.395925,38.285162,114.855485,-9494.720077
2023.396552,153.140646,133.998066,-9437.292334
2023.397180,114.855485,76.570323,-9475.577496
2023.397807,133.998066,114.855485,-9418.149754
2023.398435,57.427742,172.283227,-9418.149754
2023.399063,76.570323,114.855485,-9475.577496
2023.399690,95.712904,172.283227,-9360.722011
2023.400318,76.570323,114.855485,-9418.149754
2023.400945,95.712904,153.140646,-9418.149754
2023.401573,95.712904,114.855485,-9456.434915
2023.402200,133.998066,172.283227,-9418.149754
2023.402828,95.712904,114.855485,-9456.434915
2023.403455,133.998066,114.855485,-9456.434915
2023.404083,133.998066,114.855485,-9418.149754
2023.404711,95.712904,114.855485,-9418.149754
2023.405338,76.570323,114.855485,-9418.149754
2023.405966,57.427742,95.712904,-9399.007173
2023.406593,76.570323,172.283227,-9475.577496
2023.407221,76.570323,172.283227,-9456.434915
2023.407848,133.998066,133.998066,-9456.434915
2023.408476,76.570323,172.283227,-9437.292334
2023.409104,76.570323,172.283227,-9418.149754
2023.409731,133.998066,114.855485,-9418.149754
2023.410359,133.998066,114.855485,-9437.292334
2023.410986,133.998066,114.855485,-9418.149754
2023.411614,95.712904,114.855485,-9418.149754
2023.412241,114.855485,95.712904,-9399.007173
2023.412869,76.570323,114.855485,-9494.720077
2023.413496,153.140646,191.425808,-9456.434915
2023.414124,133.998066,153.140646,-9475.577496
2023.414752,172.283227,76.570323,-9418.149754
2023.415379,95.712904,95.712904,-9399.007173
2023.416007,76.570323,114.855485,-9418.149754
2023.416634,38.285162,114.855485,-9418.149754
2023.417262,76.570323,114.855485,-9418.149754
2023.417889,38.285162,210.568389,-9418.149754
2023.418517,38.285162,153.140646,-9456.434915
2023.419144,38.285162,191.425808,-9456.434915
2023.419772,95.712904,191.425808,-9360.722011
2023.420400,114.855485,133.998066,-9360.722011
2023.421027,133.998066,114.855485,-9418.149754
2023.421655,76.570323,172.283227,-9418.149754
2023.422282,133.998066,114.855485,-9418.149754
2023.422910,95.712904,95.712904,-9399.007173
2023.423537,133.998066,114.855485,-9437.292334
2023.424165,95.712904,114.855485,-9418.149754
2023.424793,76.570323,229.710970,-9418.149754
2023.425420,38.285162,133.998066,-9360.722011
2023.426048,38.285162,153.140646,-9494.720077
2023.426675,76.570323,153.140646,-9418.149754
2023.427303,133.998066,114.855485,-9418.149754
2023.427930,133.998066,114.855485,-9418.149754
2023.428558,133.998066,114.855485,-9418.149754
2023.429185,133.998066,114.855485,-9418.149754
2023.429814,133.998066,153.140646,-9494.720077
2023.430442,76.570323,114.855485,-9418.149754
2023.431070,133.998066,133.998066,-9399.007173
2023.431698,38.285162,114.855485,-9437.292334
2023.432327,76.570323,153.140646,-9418.149754
2023.432955,133.998066,153.140646,-9418.149754
2023.433583,114.855485,114.855485,-9379.864592
2023.434211,38.285162,114.855485,-9437.292334
2023.434839,76.570323,114.855485,-9418.149754
2023.435468,133.998066,114.855485,-9418.149754
2023.436096,133.998066,114.855485,-9418.149754
2023.436724,95.712904,133.998066,-9360.722011
2023.437352,76.570323,172.283227,-9475.577496
2023.437981,133.998066,114.855485,-9418.149754
2023.438609,95.712904,210.568389,-9437.292334
2023.439237,76.570323,210.568389,-9418.149754
2023.439865,133.998066,114.855485,-9418.149754
2023.440493,38.285162,114.855485,-9437.292334
2023.441122,95.712904,95.712904,-9399.007173
2023.441750,95.712904,210.568389,-9456.434915
2023.442378,153.140646,153.140646,-9418.149754
2023.443006,153.140646,114.855485,-9418.149754
2023.443634,133.998066,114.855485,-9418.149754
2023.444263,76.570323,114.855485,-9418.149754
2023.444891,114.855485,133.998066,-9360.722011
2023.445519,153.140646,172.283227,-9437.292334
2023.446147,76.570323,114.855485,-9418.149754
2023.446776,172.283227,76.570323,-9475.577496
2023.447404,76.570323,114.855485,-9456.434915
2023.448032,76.570323,172.283227,-9418.149754
2023.448660,76.570323,191.425808,-9418.149754
2023.449288,38.285162,191.425808,-9437.292334
2023.449917,76.570323,114.855485,-9418.149754
2023.450545,76.570323,172.283227,-9418.149754
2023.451173,153.140646,133.998066,-9399.007173
2023.451801,76.570323,114.855485,-9437.292334
2023.452430,95.712904,114.855485,-9399.007173
2023.453058,133.998066,172.283227,-9418.149754
2023.453686,76.570323,114.855485,-9437.292334
2023.454314,153.140646,153.140646,-9418.149754
2023.454942,133.998066,172.283227,-9475.577496
2023.455571,133.998066,114.855485,-9418.149754
2023.456199,76.570323,172.283227,-9418.149754
2023.456827,95.712904,153.140646,-9360.722011
2023.457455,76.570323,153.140646,-9437.292334
2023.458083,133.998066,114.855485,-9360.722011
2023.458712,153.140646,133.998066,-9399.007173
2023.459340,133.998066,153.140646,-9437.292334
2023.459968,133.998066,114.855485,-9475.577496
2023.460596,114.855485,95.712904,-9494.720077
2023.461225,76.570323,114.855485,-9475.577496
2023.461853,172.283227,76.570323,-9418.149754
2023.462481,95.712904,114.855485,-9418.149754
2023.463109,133.998066,172.283227,-9418.149754
2023.463737,76.570323,114.855485,-9418.149754
2023.464366,76.570323,114.855485,-9418.149754
2023.464994,95.712904,95.712904,-9399.007173
2023.465622,38.285162,114.855485,-9418.149754
2023.466250,38.285162,172.283227,-9418.149754
2023.466879,95.712904,153.140646,-9360.722011
2023.467507,133.998066,153.140646,-9418.149754
2023.468135,133.998066,210.568389,-9418.149754
2023.468763,76.570323,210.568389,-9475.577496
2023.469391,76.570323,153.140646,-9437.292334
2023.470020,133.998066,114.855485,-9456.434915
2023.470648,76.570323,172.283227,-9437.292334
2023.471276,133.998066,153.140646,-9418.149754
2023.471904,76.570323,210.568389,-9437.292334
2023.472533,76.570323,133.998066,-9360.722011
2023.473161,133.998066,210.568389,-9437.292334
2023.473789,38.285162,172.283227,-9533.005238
2023.474417,95.712904,172.283227,-9437.292334
2023.475045,133.998066,114.855485,-9437.292334
2023.475674,133.998066,153.140646,-9399.007173
2023.476302,133.998066,133.998066,-9456.434915
2023.476930,76.570323,172.283227,-9418.149754
2023.477558,95.712904,114.855485,-9418.149754
2023.478186,95.712904,95.712904,-9437.292334
2023.478815,76.570323,114.855485,-9418.149754
2023.479443,153.140646,133.998066,-9456.434915
2023.480071,76.570323,114.855485,-9418.149754
2023.480699,76.570323,114.855485,-9418.149754
2023.481328,133.998066,172.283227,-9456.434915
2023.481956,76.570323,210.568389,-9437.292334
2023.482584,38.285162,114.855485,-9456.434915
2023.483212,133.998066,114.855485,-9360.722011
2023.483840,133.998066,114.855485,-9418.149754
2023.484469,76.570323,114.855485,-9418.149754
2023.485097,76.570323,114.855485,-9418.149754
2023.485725,133.998066,114.855485,-9418.149754
2023.486353,114.855485,95.712904,-9475.577496
2023.486982,133.998066,210.568389,-9418.149754
2023.487610,153.140646,133.998066,-9437.292334
2023.488238,114.855485,133.998066,-9437.292334
2023.488866,133.998066,114.855485,-9418.149754
2023.489494,76.570323,191.425808,-9418.149754
2023.490123,38.285162,114.855485,-9456.434915
2023.490751,95.712904,248.853550,-9418.149754
2023.491379,133.998066,172.283227,-9437.292334
2023.492007,95.712904,153.140646,-9418.149754
2023.492635,153.140646,133.998066,-9399.007173
2023.493264,210.568389,172.283227,-9399.007173
2023.493892,76.570323,114.855485,-9456.434915
2023.494520,76.570323,114.855485,-9418.149754
2023.495148,57.427742,95.712904,-9399.007173
2023.495777,76.570323,114.855485,-9418.149754
2023.496405,76.570323,114.855485,-9418.149754
2023.497033,114.855485,95.712904,-9399.007173
2023.497661,38.285162,114.855485,-9418.149754
2023.498289,153.140646,153.140646,-9399.007173
2023.498918,76.570323,153.140646,-9437.292334
2023.499546,95.712904,114.855485,-9418.149754
2023.500174,133.998066,114.855485,-9437.292334
2023.500802,57.427742,172.283227,-9360.722011
2023.501431,95.712904,153.140646,-9360.722011
2023.502059,153.140646,133.998066,-9399.007173
2023.502687,133.998066,153.140646,-9418.149754
2023.503315,133.998066,114.855485,-9437.292334
2023.503943,57.427742,153.140646,-9418.149754
2023.504572,38.285162,210.568389,-9456.434915
2023.505200,133.998066,114.855485,-9456.434915
2023.505828,95.712904,95.712904,-9399.007173
2023.506456,114.855485,95.712904,-9437.292334
2023.507084,133.998066,114.855485,-9418.149754
2023.507713,133.998066,153.140646,-9418.149754
2023.508341,133.998066,114.855485,-9437.292334
2023.508969,76.570323,114.855485,-9418.149754
2023.509597,133.998066,114.855485,-9494.720077
2023.510226,38.285162,114.855485,-9437.292334
2023.510854,95.712904,114.855485,-9437.292334
2023.511482,76.570323,172.283227,-9475.577496
2023.512110,76.570323,172.283227,-9437.292334
2023.512738,76.570323,114.855485,-9437.292334
2023.513367,76.570323,172.283227,-9418.149754
2023.513995,95.712904,114.855485,-9399.007173
2023.514623,38.285162,114.855485,-9418.149754
2023.515251,38.285162,114.855485,-9437.292334
2023.515880,76.570323,229.710970,-9456.434915
2023.516508,76.570323,153.140646,-9418.149754
2023.517136,76.570323,153.140646,-9418.149754
2023.517764,76.570323,114.855485,-9418.149754
2023.518392,76.570323,114.855485,-9456.434915
2023.519021,76.570323,172.283227,-9437.292334
2023.519649,133.998066,172.283227,-9399.007173
2023.520277,76.570323,153.140646,-9418.149754
2023.520905,76.570323,172.283227,-9418.149754
2023.521533,95.712904,114.855485,-9437.292334
2023.522162,76.570323,153.140646,-9418.149754
2023.522790,76.570323,114.855485,-9418.149754
2023.523418,76.570323,210.568389,-9418.149754
2023.524046,76.570323,229.710970,-9437.292334
2023.524675,38.285162,172.283227,-9494.720077
2023.525303,133.998066,114.855485,-9456.434915
2023.525931,114.855485,133.998066,-9360.722011
2023.526559,133.998066,114.855485,-9418.149754
2023.527187,133.998066,133.998066,-9437.292334
2023.527816,133.998066,114.855485,-9418.149754
2023.528444,133.998066,114.855485,-9437.292334
2023.529072,76.570323,153.140646,-9437.292334
2023.529700,76.570323,114.855485,-9456.434915
2023.530328,38.285162,114.855485,-9418.149754
2023.530955,76.570323,191.425808,-9418.149754
2023.531582,133.998066,114.855485,-9418.149754
2023.532209,57.427742,172.283227,-9360.722011
2023.532837,133.998066,114.855485,-9456.434915
2023.533464,133.998066,114.855485,-9475.577496
2023.534091,153.140646,153.140646,-9399.007173
2023.534719,153.140646,133.998066,-9437.292334
2023.535346,153.140646,133.998066,-9437.292334
2023.535973,133.998066,114.855485,-9418.149754
2023.536601,133.998066,114.855485,-9418.149754
2023.537228,95.712904,172.283227,-9418.149754
2023.537855,76.570323,114.855485,-9418.149754
2023.538482,76.570323,114.855485,-9475.577496
2023.539110,76.570323,172.283227,-9456.434915
2023.539737,76.570323,114.855485,-9456.434915
2023.540364,76.570323,114.855485,-9418.149754
2023.540992,114.855485,95.712904,-9494.720077
2023.541619,133.998066,172.283227,-9418.149754
2023.542246,76.570323,114.855485,-9418.149754
2023.542874,38.285162,172.283227,-9418.149754
2023.543501,95.712904,114.855485,-9437.292334
2023.544128,38.285162,172.283227,-9418.149754
2023.544755,133.998066,114.855485,-9418.149754
2023.545383,114.855485,133.998066,-9360.722011
2023.546010,153.140646,133.998066,-9456.434915
2023.546637,76.570323,114.855485,-9475.577496
2023.547265,38.285162,153.140646,-9437.292334
2023.547892,95.712904,95.712904,-9475.577496
2023.548519,38.285162,114.855485,-9533.005238
2023.549147,133.998066,114.855485,-9437.292334
2023.549774,133.998066,114.855485,-9437.292334
2023.550401,76.570323,114.855485,-9475.577496
2023.551028,76.570323,172.283227,-9418.149754
2023.551656,133.998066,114.855485,-9418.149754
2023.552283,76.570323,114.855485,-9456.434915
2023.552910,76.570323,114.855485,-9475.577496
2023.553538,95.712904,114.855485,-9418.149754
2023.554165,133.998066,153.140646,-9456.434915
2023.554792,76.570323,114.855485,-9418.149754
2023.555420,153.140646,133.998066,-9399.007173
2023.556047,95.712904,153.140646,-9360.722011
2023.556674,76.570323,114.855485,-9437.292334
2023.557301,191.425808,153.140646,-9379.864592
2023.557929,133.998066,114.855485,-9418.149754
2023.558556,133.998066,114.855485,-9418.149754
2023.559183,153.140646,133.998066,-9399.007173
2023.559811,153.140646,133.998066,-9475.577496
2023.560438,133.998066,153.140646,-9456.434915
2023.561065,133.998066,172.283227,-9456.434915
2023.561693,133.998066,172.283227,-9418.149754
2023.562320,76.570323,114.855485,-9456.434915
2023.562947,133.998066,210.568389,-9437.292334
2023.563574,76.570323,114.855485,-9418.149754
2023.564202,133.998066,114.855485,-9418.149754
2023.564829,76.570323,172.283227,-9418.149754
2023.565456,114.855485,95.712904,-9399.007173
2023.566084,95.712904,114.855485,-9437.292334
2023.566711,133.998066,114.855485,-9418.149754
2023.567338,153.140646,114.855485,-9360.722011
2023.567966,76.570323,114.855485,-9437.292334
2023.568593,76.570323,114.855485,-9418.149754
2023.569220,76.570323,114.855485,-9456.434915
2023.569847,38.285162,172.283227,-9399.007173
2023.570475,114.855485,114.855485,-9379.864592
2023.571102,133.998066,172.283227,-9456.434915
2023.571729,76.570323,172.283227,-9418.149754
2023.572357,153.140646,191.425808,-9399.007173
2023.572984,133.998066,114.855485,-9418.149754
2023.573611,38.285162,210.568389,-9418.149754
2023.574239,114.855485,95.712904,-9456.434915
2023.574866,133.998066,114.855485,-9437.292334
2023.575493,133.998066,153.140646,-9437.292334
2023.576120,38.285162,114.855485,-9418.149754
2023.576748,76.570323,114.855485,-9418.149754
2023.577375,38.285162,114.855485,-9456.434915
2023.578002,133.998066,114.855485,-9418.149754
2023.578630,95.712904,95.712904,-9399.007173
2023.579257,114.855485,95.712904,-9399.007173
2023.579884,133.998066,153.140646,-9399.007173
2023.580512,133.998066,114.855485,-9437.292334
2023.581139,133.998066,114.855485,-9418.149754
2023.581766,114.855485,133.998066,-9360.722011
2023.582393,133.998066,114.855485,-9418.149754
2023.583021,95.712904,114.855485,-9418.149754
2023.583648,76.570323,114.855485,-9456.434915
2023.584275,133.998066,114.855485,-9418.149754
2023.584903,133.998066,153.140646,-9418.149754
2023.585530,133.998066,210.568389,-9418.149754
2023.586157,76.570323,172.283227,-9418.149754
2023.586785,133.998066,133.998066,-9399.007173
2023.587412,95.712904,95.712904,-9399.007173
2023.588039,76.570323,172.283227,-9418.149754
2023.588666,133.998066,153.140646,-9418.149754
2023.589294,76.570323,114.855485,-9437.292334
2023.589921,76.570323,114.855485,-9418.149754
2023.590548,95.712904,95.712904,-9456.434915
2023.591176,153.140646,133.998066,-9456.434915
2023.591803,76.570323,76.570323,-9399.007173
2023.592430,76.570323,114.855485,-9418.149754
2023.593058,76.570323,153.140646,-9418.149754
2023.593685,95.712904,95.712904,-9437.292334
2023.594312,133.998066,114.855485,-9456.434915
2023.594939,38.285162,172.283227,-9418.149754
2023.595567,133.998066,114.855485,-9418.149754
2023.596194,95.712904,95.712904,-9399.007173
2023.596821,133.998066,114.855485,-9418.149754
2023.597449,133.998066,153.140646,-9437.292334
2023.598076,133.998066,114.855485,-9418.149754
2023.598703,95.712904,114.855485,-9437.292334
2023.599331,76.570323,114.855485,-9437.292334
2023.599958,133.998066,114.855485,-9418.149754
2023.600585,76.570323,210.568389,-9418.149754
2023.601212,133.998066,210.568389,-9418.149754
2023.601840,153.140646,133.998066,-9399.007173
2023.602467,153.140646,210.568389,-9399.007173
2023.603094,133.998066,133.998066,-9399.007173
2023.603722,133.998066,114.855485,-9418.149754
2023.604349,76.570323,114.855485,-9437.292334
2023.604976,76.570323,114.855485,-9456.434915
2023.605604,133.998066,172.283227,-9437.292334
2023.606231,210.568389,172.283227,-9456.434915
2023.606858,133.998066,114.855485,-9418.149754
2023.607485,133.998066,153.140646,-9437.292334
2023.608113,38.285162,172.283227,-9437.292334
2023.608740,76.570323,114.855485,-9437.292334
2023.609367,38.285162,114.855485,-9418.149754
2023.609995,76.570323,114.855485,-9418.149754
2023.610622,76.570323,114.855485,-9418.149754
2023.611249,95.712904,95.712904,-9399.007173
2023.611877,76.570323,114.855485,-9418.149754
2023.612504,133.998066,114.855485,-9475.577496
2023.613131,133.998066,153.140646,-9399.007173
2023.613758,76.570323,114.855485,-9456.434915
2023.614386,38.285162,172.283227,-9437.292334
2023.615013,76.570323,114.855485,-9418.149754
2023.615640,133.998066,114.855485,-9418.149754
2023.616268,95.712904,153.140646,-9533.005238
2023.616895,76.570323,114.855485,-9456.434915
2023.617522,76.570323,114.855485,-9437.292334
2023.618150,76.570323,114.855485,-9418.149754
2023.618777,38.285162,114.855485,-9437.292334
2023.619404,38.285162,172.283227,-9418.149754
2023.620031,76.570323,153.140646,-9418.149754
2023.620659,76.570323,153.140646,-9437.292334
2023.621286,133.998066,114.855485,-9456.434915
2023.621913,76.570323,172.283227,-9418.149754
2023.622541,133.998066,114.855485,-9418.149754
2023.623168,19.142581,114.855485,-9456.434915
2023.623795,95.712904,114.855485,-9379.864592
2023.624423,76.570323,114.855485,-9418.149754
2023.625050,153.140646,191.425808,-9437.292334
2023.625677,76.570323,153.140646,-9456.434915
2023.626304,76.570323,114.855485,-9418.149754
2023.626932,133.998066,114.855485,-9418.149754
2023.627559,76.570323,114.855485,-9418.149754
2023.628186,38.285162,114.855485,-9456.434915
2023.628814,133.998066,114.855485,-9456.434915
2023.629441,76.570323,114.855485,-9418.149754
2023.630068,114.855485,95.712904,-9399.007173
2023.630695,38.285162,114.855485,-9418.149754
2023.631322,133.998066,114.855485,-9418.149754
2023.631949,95.712904,153.140646,-9456.434915
2023.632576,133.998066,133.998066,-9513.862658
2023.633203,76.570323,114.855485,-9456.434915
2023.633830,38.285162,210.568389,-9418.149754
2023.634457,95.712904,114.855485,-9418.149754
2023.635084,38.285162,114.855485,-9418.149754
2023.635711,57.427742,114.855485,-9437.292334
2023.636338,95.712904,95.712904,-9399.007173
2023.636965,38.285162,172.283227,-9418.149754
2023.637592,133.998066,153.140646,-9418.149754
2023.638219,133.998066,114.855485,-9418.149754
2023.638846,133.998066,133.998066,-9399.007173
2023.639473,38.285162,114.855485,-9360.722011
2023.640100,114.855485,114.855485,-9399.007173
2023.640727,38.285162,153.140646,-9418.149754
2023.641354,133.998066,153.140646,-9418.149754
2023.641981,76.570323,114.855485,-9533.005238
2023.642608,95.712904,191.425808,-9418.149754
2023.643235,114.855485,114.855485,-9379.864592
2023.643862,76.570323,153.140646,-9437.292334
2023.644489,133.998066,114.855485,-9437.292334
2023.645116,133.998066,210.568389,-9437.292334
2023.645743,133.998066,114.855485,-9437.292334
2023.646371,95.712904,114.855485,-9437.292334
2023.646998,76.570323,153.140646,-9418.149754
2023.647625,133.998066,172.283227,-9456.434915
2023.648252,133.998066,114.855485,-9437.292334
2023.648879,76.570323,114.855485,-9437.292334
2023.649506,172.283227,76.570323,-9418.149754
2023.650133,133.998066,114.855485,-9418.149754
2023.650760,57.427742,172.283227,-9418.149754
2023.651387,133.998066,210.568389,-9418.149754
2023.652014,133.998066,114.855485,-9418.149754
2023.652641,38.285162,114.855485,-9360.722011
2023.653268,38.285162,114.855485,-9437.292334
2023.653895,57.427742,114.855485,-9494.720077
2023.654522,76.570323,114.855485,-9475.577496
2023.655149,76.570323,172.283227,-9418.149754
2023.655776,38.285162,76.570323,-9379.864592
2023.656403,57.427742,133.998066,-9418.149754
2023.657030,76.570323,114.855485,-9437.292334
2023.657657,95.712904,114.855485,-9418.149754
2023.658284,133.998066,153.140646,-9437.292334
2023.658911,76.570323,114.855485,-9456.434915
2023.659538,95.712904,133.998066,-9360.722011
2023.660165,57.427742,95.712904,-9475.577496
2023.660792,76.570323,114.855485,-9418.149754
2023.661419,76.570323,114.855485,-9418.149754
2023.662046,133.998066,172.283227,-9418.149754
2023.662673,95.712904,210.568389,-9418.149754
2023.663300,76.570323,172.283227,-9456.434915
2023.663927,38.285162,114.855485,-9456.434915
2023.664554,38.285162,191.425808,-9418.149754
2023.665181,95.712904,153.140646,-9360.722011
2023.665808,76.570323,114.855485,-9418.149754
2023.666435,133.998066,153.140646,-9475.577496
2023.667062,114.855485,95.712904,-9475.577496
2023.667689,133.998066,114.855485,-9437.292334
2023.668316,76.570323,153.140646,-9456.434915
2023.668943,95.712904,172.283227,-9437.292334
2023.669570,95.712904,114.855485,-9418.149754
2023.670197,57.427742,114.855485,-9399.007173
2023.670824,95.712904,153.140646,-9437.292334
2023.671451,76.570323,114.855485,-9456.434915
2023.672078,95.712904,95.712904,-9399.007173
2023.672705,57.427742,95.712904,-9399.007173
2023.673332,76.570323,153.140646,-9418.149754
2023.673959,76.570323,172.283227,-9418.149754
2023.674586,153.140646,133.998066,-9399.007173
2023.675213,76.570323,114.855485,-9456.434915
2023.675840,76.570323,114.855485,-9437.292334
2023.676467,76.570323,114.855485,-9418.149754
2023.677094,133.998066,114.855485,-9456.434915
2023.677721,76.570323,114.855485,-9437.292334
2023.678348,76.570323,114.855485,-9418.149754
2023.678975,76.570323,114.855485,-9418.149754
2023.679602,76.570323,191.425808,-9533.005238
2023.680229,76.570323,229.710970,-9418.149754
2023.680856,76.570323,153.140646,-9418.149754
2023.681483,133.998066,172.283227,-9437.292334
2023.682110,133.998066,133.998066,-9399.007173
2023.682737,95.712904,172.283227,-9360.722011
2023.683364,76.570323,114.855485,-9418.149754
2023.683991,76.570323,114.855485,-9437.292334
2023.684618,76.570323,114.855485,-9437.292334
2023.685245,76.570323,153.140646,-9360.722011
2023.685872,133.998066,210.568389,-9418.149754
2023.686499,133.998066,153.140646,-9418.149754
2023.687126,133.998066,114.855485,-9418.149754
2023.687753,95.712904,191.425808,-9418.149754
2023.688380,76.570323,172.283227,-9418.149754
2023.689007,38.285162,210.568389,-9418.149754
2023.689634,76.570323,172.283227,-9475.577496
2023.690261,133.998066,210.568389,-9418.149754
2023.690888,153.140646,172.283227,-9399.007173
2023.691515,133.998066,114.855485,-9418.149754
2023.692142,114.855485,95.712904,-9399.007173
2023.692769,133.998066,172.283227,-9418.149754
2023.693396,133.998066,210.568389,-9437.292334
2023.694023,133.998066,114.855485,-9418.149754
2023.694650,38.285162,114.855485,-9475.577496
2023.695277,76.570323,114.855485,-9418.149754
2023.695904,95.712904,153.140646,-9418.149754
2023.696531,76.570323,114.855485,-9418.149754
2023.697158,133.998066,172.283227,-9418.149754
2023.697785,133.998066,114.855485,-9418.149754
2023.698412,76.570323,114.855485,-9418.149754
2023.699039,95.712904,114.855485,-9399.007173
2023.699666,133.998066,114.855485,-9437.292334
2023.700293,153.140646,172.283227,-9418.149754
2023.700920,76.570323,172.283227,-9437.292334
2023.701547,76.570323,114.855485,-9418.149754
2023.702174,38.285162,114.855485,-9418.149754
2023.702801,153.140646,133.998066,-9399.007173
2023.703428,95.712904,95.712904,-9399.007173
2023.704055,153.140646,191.425808,-9399.007173
2023.704683,133.998066,133.998066,-9437.292334
2023.705310,133.998066,153.140646,-9475.577496
2023.705937,133.998066,114.855485,-9418.149754
2023.706564,133.998066,153.140646,-9437.292334
2023.707191,76.570323,210.568389,-9437.292334
2023.707818,133.998066,114.855485,-9418.149754
2023.708445,76.570323,153.140646,-9437.292334
2023.709072,76.570323,114.855485,-9437.292334
2023.709699,38.285162,191.425808,-9437.292334
2023.710326,133.998066,114.855485,-9437.292334
2023.710953,57.427742,114.855485,-9418.149754
2023.711580,76.570323,114.855485,-9418.149754
2023.712207,133.998066,153.140646,-9456.434915
2023.712834,38.285162,114.855485,-9418.149754
2023.713461,76.570323,153.140646,-9418.149754
2023.714088,133.998066,172.283227,-9418.149754
2023.714715,133.998066,114.855485,-9418.149754
2023.715342,95.712904,95.712904,-9399.007173
2023.715969,153.140646,248.853550,-9475.577496
2023.716596,76.570323,172.283227,-9437.292334
2023.717223,76.570323,114.855485,-9418.149754
2023.717850,76.570323,114.855485,-9418.149754
2023.718477,76.570323,114.855485,-9418.149754
2023.719104,95.712904,153.140646,-9418.149754
2023.719731,133.998066,172.283227,-9418.149754
2023.720358,172.283227,114.855485,-9379.864592
2023.720985,76.570323,76.570323,-9399.007173
2023.721612,95.712904,95.712904,-9399.007173
2023.722239,76.570323,114.855485,-9418.149754
2023.722866,76.570323,114.855485,-9437.292334
2023.723493,133.998066,114.855485,-9418.149754
2023.724120,76.570323,172.283227,-9418.149754
2023.724747,76.570323,153.140646,-9418.149754
2023.725374,76.570323,172.283227,-9456.434915
2023.726001,0.000000,95.712904,-9399.007173
2023.726628,133.998066,114.855485,-9418.149754
2023.727255,76.570323,172.283227,-9418.149754
2023.727882,133.998066,153.140646,-9418.149754
2023.728509,133.998066,210.568389,-9494.720077
2023.729136,133.998066,114.855485,-9418.149754
2023.729763,133.998066,114.855485,-9475.577496
2023.730390,76.570323,172.283227,-9418.149754
2023.731017,57.427742,153.140646,-9418.149754
2023.731644,76.570323,172.283227,-9418.149754
2023.732271,57.427742,133.998066,-9360.722011
2023.732898,95.712904,114.855485,-9399.007173
2023.733525,76.570323,114.855485,-9418.149754
2023.734153,76.570323,153.140646,-9456.434915
2023.734780,95.712904,95.712904,-9456.434915
2023.735407,133.998066,229.710970,-9494.720077
2023.736034,133.998066,172.283227,-9494.720077
2023.736661,76.570323,114.855485,-9418.149754
2023.737288,57.427742,114.855485,-9399.007173
2023.737915,133.998066,172.283227,-9475.577496
2023.738542,38.285162,153.140646,-9418.149754
2023.739169,133.998066,114.855485,-9418.149754
2023.739796,133.998066,172.283227,-9418.149754
2023.740424,76.570323,114.855485,-9418.149754
2023.741051,133.998066,114.855485,-9418.149754
2023.741678,76.570323,114.855485,-9437.292334
2023.742305,76.570323,153.140646,-9494.720077
2023.742932,76.570323,153.140646,-9437.292334
2023.743559,133.998066,153.140646,-9456.434915
2023.744186,57.427742,133.998066,-9379.864592
2023.744813,172.283227,133.998066,-9437.292334
2023.745440,76.570323,114.855485,-9494.720077
2023.746067,38.285162,114.855485,-9533.005238
2023.746694,133.998066,172.283227,-9418.149754
2023.747322,153.140646,133.998066,-9399.007173
2023.747949,57.427742,95.712904,-9399.007173
2023.748576,76.570323,153.140646,-9360.722011
2023.749203,114.855485,172.283227,-9379.864592
2023.749830,95.712904,133.998066,-9360.722011
2023.750457,133.998066,114.855485,-9437.292334
2023.751084,153.140646,191.425808,-9399.007173
2023.751711,133.998066,114.855485,-9418.149754
2023.752338,133.998066,114.855485,-9418.149754
2023.752965,76.570323,114.855485,-9418.149754
2023.753593,76.570323,76.570323,-9379.864592
2023.754220,76.570323,114.855485,-9418.149754
2023.754847,133.998066,114.855485,-9494.720077
2023.755474,133.998066,172.283227,-9418.149754
2023.756101,133.998066,210.568389,-9418.149754
2023.756728,76.570323,210.568389,-9418.149754
2023.757355,95.712904,95.712904,-9437.292334
2023.757982,76.570323,114.855485,-9418.149754
2023.758609,133.998066,114.855485,-9418.149754
2023.759236,76.570323,153.140646,-9418.149754
2023.759864,95.712904,95.712904,-9399.007173
2023.760491,76.570323,114.855485,-9437.292334
2023.761118,133.998066,172.283227,-9456.434915
2023.761745,38.285162,114.855485,-9418.149754
2023.762372,133.998066,191.425808,-9399.007173
2023.762999,133.998066,191.425808,-9399.007173
2023.763626,95.712904,210.568389,-9437.292334
2023.764253,95.712904,95.712904,-9399.007173
2023.764880,76.570323,191.425808,-9437.292334
2023.765507,133.998066,210.568389,-9418.149754
2023.766135,38.285162,153.140646,-9456.434915
2023.766762,38.285162,210.568389,-9437.292334
2023.767389,76.570323,172.283227,-9456.434915
2023.768016,76.570323,114.855485,-9418.149754
2023.768643,114.855485,153.140646,-9552.147819
2023.769270,76.570323,114.855485,-9456.434915
2023.769897,38.285162,210.568389,-9456.434915
2023.770524,38.285162,153.140646,-9456.434915
2023.771151,76.570323,114.855485,-9437.292334
2023.771778,38.285162,114.855485,-9437.292334
2023.772405,76.570323,114.855485,-9456.434915
2023.773033,76.570323,229.710970,-9418.149754
2023.773660,153.140646,172.283227,-9399.007173
2023.774287,133.998066,133.998066,-9399.007173
2023.774914,95.712904,153.140646,-9418.149754
2023.775541,95.712904,114.855485,-9437.292334
2023.776168,38.285162,114.855485,-9418.149754
2023.776795,95.712904,133.998066,-9360.722011
2023.777422,76.570323,114.855485,-9475.577496
2023.778049,76.570323,153.140646,-9437.292334
2023.778676,133.998066,172.283227,-9437.292334
2023.779304,76.570323,153.140646,-9418.149754
2023.779931,76.570323,114.855485,-9418.149754
2023.780558,114.855485,191.425808,-9360.722011
2023.781185,95.712904,114.855485,-9456.434915
2023.781812,76.570323,114.855485,-9456.434915
2023.782439,76.570323,210.568389,-9418.149754
2023.783066,133.998066,114.855485,-9418.149754
2023.783693,38.285162,210.568389,-9475.577496
2023.784320,133.998066,114.855485,-9418.149754
2023.784947,133.998066,153.140646,-9418.149754
2023.785575,38.285162,114.855485,-9437.292334
2023.786202,76.570323,114.855485,-9418.149754
2023.786829,76.570323,114.855485,-9418.149754
2023.787456,95.712904,133.998066,-9360.722011
2023.788083,95.712904,210.568389,-9418.149754
2023.788710,133.998066,153.140646,-9437.292334
2023.789337,38.285162,114.855485,-9456.434915
2023.789964,76.570323,191.425808,-9418.149754
2023.790591,114.855485,95.712904,-9456.434915
2023.791218,133.998066,114.855485,-9418.149754
2023.791846,76.570323,114.855485,-9418.149754
2023.792473,38.285162,172.283227,-9475.577496
2023.793100,114.855485,95.712904,-9399.007173
2023.793727,133.998066,172.283227,-9456.434915
2023.794354,76.570323,153.140646,-9418.149754
2023.794981,133.998066,172.283227,-9418.149754
2023.795608,38.285162,172.283227,-9418.149754
2023.796235,133.998066,114.855485,-9418.149754
2023.796862,114.855485,133.998066,-9360.722011
2023.797489,172.283227,76.570323,-9418.149754
2023.798116,95.712904,172.283227,-9360.722011
2023.798744,76.570323,114.855485,-9418.149754
2023.799371,133.998066,172.283227,-9494.720077
2023.799998,153.140646,172.283227,-9456.434915
2023.800625,153.140646,114.855485,-9418.149754
2023.801252,133.998066,172.283227,-9437.292334
2023.801879,133.998066,172.283227,-9418.149754
2023.802506,114.855485,153.140646,-9418.149754
2023.803133,153.140646,172.283227,-9399.007173
2023.803760,76.570323,114.855485,-9418.149754
2023.804387,114.855485,153.140646,-9360.722011
2023.805015,133.998066,172.283227,-9418.149754
2023.805642,153.140646,133.998066,-9399.007173
2023.806269,76.570323,172.283227,-9418.149754
2023.806896,133.998066,229.710970,-9418.149754
2023.807523,153.140646,133.998066,-9399.007173
2023.808150,95.712904,153.140646,-9360.722011
2023.808777,57.427742,114.855485,-9418.149754
2023.809404,38.285162,153.140646,-9456.434915
2023.810031,76.570323,172.283227,-9456.434915
2023.810658,133.998066,153.140646,-9456.434915
2023.811286,38.285162,114.855485,-9418.149754
2023.811913,76.570323,153.140646,-9418.149754
2023.812540,133.998066,133.998066,-9399.007173
2023.813167,133.998066,153.140646,-9418.149754
2023.813794,76.570323,114.855485,-9418.149754
2023.814421,133.998066,133.998066,-9456.434915
2023.815048,95.712904,133.998066,-9360.722011
2023.815675,38.285162,172.283227,-9437.292334
2023.816302,38.285162,172.283227,-9418.149754
2023.816929,133.998066,191.425808,-9437.292334
2023.817557,133.998066,114.855485,-9437.292334
2023.818184,38.285162,114.855485,-9418.149754
2023.818811,76.570323,95.712904,-9399.007173
2023.819438,38.285162,172.283227,-9418.149754
2023.820065,76.570323,114.855485,-9418.149754
2023.820692,76.570323,114.855485,-9418.149754
2023.821319,133.998066,114.855485,-9418.149754
2023.821946,76.570323,172.283227,-9418.149754
2023.822573,57.427742,172.283227,-9437.292334
2023.823200,95.712904,172.283227,-9437.292334
2023.823827,76.570323,153.140646,-9456.434915
2023.824455,76.570323,114.855485,-9456.434915
2023.825082,133.998066,172.283227,-9437.292334
2023.825709,133.998066,172.283227,-9418.149754
2023.826336,76.570323,191.425808,-9360.722011
2023.826963,76.570323,114.855485,-9418.149754
2023.827590,114.855485,133.998066,-9360.722011
2023.828217,76.570323,114.855485,-9456.434915
2023.828844,95.712904,172.283227,-9437.292334
2023.829471,76.570323,172.283227,-9418.149754
2023.830098,114.855485,172.283227,-9418.149754
2023.830726,76.570323,153.140646,-9418.149754
2023.831353,76.570323,172.283227,-9418.149754
2023.831981,133.998066,153.140646,-9418.149754
2023.832609,95.712904,153.140646,-9360.722011
2023.833237,38.285162,114.855485,-9418.149754
2023.833864,95.712904,133.998066,-9360.722011
2023.834492,114.855485,133.998066,-9360.722011
2023.835120,114.855485,114.855485,-9456.434915
2023.835748,76.570323,114.855485,-9418.149754
2023.836375,76.570323,114.855485,-9418.149754
2023.837003,76.570323,114.855485,-9475.577496
2023.837631,133.998066,210.568389,-9418.149754
2023.838259,95.712904,114.855485,-9418.149754
2023.838886,38.285162,114.855485,-9418.149754
2023.839514,76.570323,172.283227,-9475.577496
2023.840142,76.570323,114.855485,-9418.149754
2023.840770,76.570323,114.855485,-9437.292334
2023.841398,76.570323,153.140646,-9475.577496
2023.842025,133.998066,172.283227,-9418.149754
2023.842653,153.140646,153.140646,-9399.007173
2023.843281,133.998066,114.855485,-9418.149754
2023.843909,133.998066,210.568389,-9418.149754
2023.844536,76.570323,172.283227,-9418.149754
2023.845164,57.427742,153.140646,-9322.436850
2023.845792,76.570323,172.283227,-9437.292334
2023.846420,133.998066,229.710970,-9456.434915
2023.847047,153.140646,153.140646,-9475.577496
2023.847675,76.570323,114.855485,-9418.149754
2023.848303,76.570323,210.568389,-9475.577496
2023.848931,76.570323,172.283227,-9418.149754
2023.849559,76.570323,114.855485,-9475.577496
2023.850186,38.285162,210.568389,-9418.149754
2023.850814,153.140646,172.283227,-9494.720077
2023.851442,133.998066,153.140646,-9399.007173
2023.852070,133.998066,114.855485,-9437.292334
2023.852697,133.998066,114.855485,-9418.149754
2023.853325,114.855485,133.998066,-9360.722011
2023.853953,57.427742,114.855485,-9322.436850
2023.854581,57.427742,57.427742,-9399.007173
2023.855208,95.712904,191.425808,-9456.434915
2023.855836,133.998066,210.568389,-9418.149754
2023.856464,133.998066,114.855485,-9418.149754
2023.857092,153.140646,153.140646,-9437.292334
2023.857719,133.998066,114.855485,-9418.149754
2023.858347,76.570323,153.140646,-9437.292334
2023.858975,133.998066,114.855485,-9475.577496
2023.859603,133.998066,114.855485,-9456.434915
2023.860231,133.998066,114.855485,-9418.149754
2023.860858,133.998066,172.283227,-9360.722011
2023.861486,76.570323,153.140646,-9456.434915
2023.862114,95.712904,210.568389,-9418.149754
2023.862742,76.570323,153.140646,-9494.720077
2023.863369,133.998066,114.855485,-9418.149754
2023.863997,114.855485,114.855485,-9399.007173
2023.864625,133.998066,114.855485,-9494.720077
2023.865253,76.570323,153.140646,-9475.577496
2023.865880,114.855485,133.998066,-9360.722011
2023.866508,76.570323,114.855485,-9437.292334
2023.867136,114.855485,172.283227,-9437.292334
2023.867764,76.570323,172.283227,-9418.149754
2023.868392,114.855485,172.283227,-9360.722011
2023.869019,76.570323,172.283227,-9418.149754
2023.869647,114.855485,153.140646,-9360.722011
2023.870275,133.998066,114.855485,-9418.149754
2023.870903,76.570323,114.855485,-9360.722011
2023.871530,133.998066,114.855485,-9437.292334
2023.872158,133.998066,114.855485,-9475.577496
2023.872786,133.998066,153.140646,-9437.292334
2023.873414,38.285162,114.855485,-9418.149754
2023.874041,153.140646,153.140646,-9399.007173
2023.874669,153.140646,153.140646,-9418.149754
2023.875297,76.570323,114.855485,-9418.149754
2023.875925,133.998066,114.855485,-9418.149754
2023.876552,76.570323,114.855485,-9456.434915
2023.877180,133.998066,114.855485,-9418.149754
2023.877808,133.998066,114.855485,-9456.434915
2023.878436,76.570323,172.283227,-9418.149754
2023.879064,133.998066,210.568389,-9533.005238
2023.879691,133.998066,172.283227,-9456.434915
2023.880319,153.140646,133.998066,-9456.434915
2023.880947,133.998066,172.283227,-9418.149754
2023.881575,76.570323,229.710970,-9437.292334
2023.882202,133.998066,153.140646,-9456.434915
2023.882830,76.570323,114.855485,-9437.292334
2023.883458,133.998066,114.855485,-9418.149754
2023.884086,76.570323,114.855485,-9418.149754
2023.884713,133.998066,133.998066,-9399.007173
2023.885341,76.570323,114.855485,-9437.292334
2023.885969,76.570323,210.568389,-9418.149754
2023.886597,133.998066,153.140646,-9418.149754
2023.887224,153.140646,133.998066,-9475.577496
2023.887852,76.570323,210.568389,-9418.149754
2023.888480,133.998066,153.140646,-9456.434915
2023.889108,95.712904,210.568389,-9418.149754
2023.889736,114.855485,133.998066,-9360.722011
2023.890363,133.998066,153.140646,-9418.149754
2023.890991,76.570323,229.710970,-9418.149754
2023.891619,133.998066,114.855485,-9437.292334
2023.892247,76.570323,114.855485,-9456.434915
2023.892874,133.998066,210.568389,-9475.577496
2023.893502,76.570323,153.140646,-9475.577496
2023.894130,76.570323,114.855485,-9475.577496
2023.894758,38.285162,210.568389,-9418.149754
2023.895385,76.570323,210.568389,-9418.149754
2023.896013,95.712904,133.998066,-9360.722011
2023.896641,76.570323,114.855485,-9456.434915
2023.897269,57.427742,114.855485,-9418.149754
2023.897897,0.000000,172.283227,-9360.722011
2023.898524,38.285162,153.140646,-9418.149754
2023.899152,76.570323,153.140646,-9418.149754
2023.899780,133.998066,172.283227,-9418.149754
2023.900408,76.570323,153.140646,-9437.292334
2023.901035,95.712904,114.855485,-9494.720077
2023.901663,95.712904,191.425808,-9418.149754
2023.902291,133.998066,153.140646,-9418.149754
2023.902919,133.998066,114.855485,-9418.149754
2023.903546,114.855485,95.712904,-9399.007173
2023.904174,133.998066,114.855485,-9418.149754
2023.904802,114.855485,172.283227,-9360.722011
2023.905430,210.568389,153.140646,-9399.007173
2023.906057,133.998066,210.568389,-9418.149754
2023.906685,95.712904,133.998066,-9418.149754
2023.907313,76.570323,114.855485,-9437.292334
2023.907941,76.570323,114.855485,-9418.149754
2023.908569,133.998066,114.855485,-9418.149754
2023.909196,76.570323,114.855485,-9437.292334
2023.909824,76.570323,114.855485,-9437.292334
2023.910452,76.570323,114.855485,-9418.149754
2023.911080,95.712904,95.712904,-9399.007173
2023.911707,76.570323,172.283227,-9437.292334
2023.912335,191.425808,76.570323,-9418.149754
2023.912963,76.570323,114.855485,-9418.149754
2023.913591,133.998066,210.568389,-9456.434915
2023.914218,133.998066,133.998066,-9399.007173
2023.914846,114.855485,133.998066,-9418.149754
2023.915474,133.998066,153.140646,-9456.434915
2023.916102,133.998066,114.855485,-9418.149754
2023.916730,76.570323,114.855485,-9475.577496
2023.917357,76.570323,210.568389,-9418.149754
2023.917985,95.712904,210.568389,-9418.149754
2023.918613,133.998066,172.283227,-9418.149754
2023.919241,133.998066,153.140646,-9456.434915
2023.919868,153.140646,153.140646,-9399.007173
2023.920496,114.855485,95.712904,-9399.007173
2023.921124,95.712904,172.283227,-9360.722011
2023.921752,133.998066,114.855485,-9418.149754
2023.922379,153.140646,191.425808,-9399.007173
2023.923007,76.570323,114.855485,-9456.434915
2023.923635,76.570323,153.140646,-9494.720077
2023.924263,38.285162,210.568389,-9418.149754
2023.924890,76.570323,114.855485,-9418.149754
2023.925518,76.570323,153.140646,-9418.149754
2023.926146,95.712904,172.283227,-9418.149754
2023.926774,95.712904,95.712904,-9437.292334
2023.927402,153.140646,172.283227,-9399.007173
2023.928029,133.998066,153.140646,-9418.149754
2023.928657,38.285162,210.568389,-9437.292334
2023.929285,76.570323,114.855485,-9475.577496
2023.929913,38.285162,114.855485,-9418.149754
2023.930540,76.570323,114.855485,-9418.149754
2023.931168,133.998066,153.140646,-9456.434915
2023.931796,38.285162,114.855485,-9418.149754
2023.932423,133.998066,153.140646,-9418.149754
2023.933051,76.570323,153.140646,-9418.149754
2023.933679,76.570323,114.855485,-9418.149754
2023.934306,76.570323,114.855485,-9418.149754
2023.934934,133.998066,133.998066,-9399.007173
2023.935562,76.570323,153.140646,-9418.149754
2023.936189,95.712904,95.712904,-9399.007173
2023.936817,38.285162,191.425808,-9418.149754
2023.937445,153.140646,133.998066,-9399.007173
2023.938072,95.712904,95.712904,-9456.434915
2023.938700,38.285162,114.855485,-9418.149754
2023.939328,95.712904,114.855485,-9437.292334
2023.939955,76.570323,114.855485,-9418.149754
2023.940583,76.570323,133.998066,-9360.722011
2023.941211,133.998066,114.855485,-9418.149754
2023.941838,133.998066,191.425808,-9494.720077
2023.942466,133.998066,210.568389,-9437.292334
2023.943093,114.855485,76.570323,-9418.149754
2023.943721,133.998066,153.140646,-9437.292334
2023.944349,76.570323,172.283227,-9418.149754
2023.944976,133.998066,210.568389,-9456.434915
2023.945604,95.712904,114.855485,-9494.720077
2023.946232,133.998066,114.855485,-9456.434915
2023.946859,114.855485,133.998066,-9360.722011
2023.947487,76.570323,210.568389,-9418.149754
2023.948115,95.712904,172.283227,-9341.579430
2023.948742,95.712904,95.712904,-9399.007173
2023.949370,95.712904,114.855485,-9418.149754
2023.949998,76.570323,172.283227,-9418.149754
2023.950625,153.140646,153.140646,-9494.720077
2023.951253,133.998066,172.283227,-9418.149754
2023.951881,133.998066,153.140646,-9418.149754
2023.952508,38.285162,114.855485,-9437.292334
2023.953136,133.998066,133.998066,-9399.007173
2023.953764,95.712904,153.140646,-9437.292334
2023.954391,76.570323,153.140646,-9418.149754
2023.955019,114.855485,133.998066,-9360.722011
2023.955646,76.570323,114.855485,-9418.149754
2023.956274,95.712904,191.425808,-9418.149754
2023.956902,133.998066,153.140646,-9418.149754
2023.957529,133.998066,114.855485,-9418.149754
2023.958157,76.570323,114.855485,-9456.434915
2023.958785,76.570323,114.855485,-9437.292334
2023.959412,114.855485,114.855485,-9399.007173
2023.960040,133.998066,114.855485,-9437.292334
2023.960668,153.140646,133.998066,-9399.007173
2023.961295,76.570323,114.855485,-9437.292334
2023.961923,57.427742,95.712904,-9399.007173
2023.962551,172.283227,76.570323,-9437.292334
2023.963178,133.998066,172.283227,-9418.149754
2023.963806,133.998066,172.283227,-9418.149754
2023.964434,133.998066,153.140646,-9418.149754
2023.965061,172.283227,114.855485,-9399.007173
2023.965689,76.570323,153.140646,-9418.149754
2023.966316,133.998066,114.855485,-9437.292334
2023.966944,38.285162,153.140646,-9418.149754
2023.967572,76.570323,114.855485,-9437.292334
2023.968199,38.285162,153.140646,-9418.149754
2023.968827,76.570323,172.283227,-9475.577496
2023.969455,133.998066,114.855485,-9437.292334
2023.970082,153.140646,153.140646,-9494.720077
2023.970710,133.998066,114.855485,-9418.149754
2023.971338,133.998066,133.998066,-9437.292334
2023.971965,76.570323,153.140646,-9456.434915
2023.972593,76.570323,114.855485,-9437.292334
2023.973221,133.998066,114.855485,-9418.149754
2023.973848,114.855485,114.855485,-9379.864592
2023.974476,133.998066,172.283227,-9399.007173
2023.975104,133.998066,172.283227,-9399.007173
2023.975731,76.570323,172.283227,-9456.434915
2023.976359,38.285162,114.855485,-9418.149754
2023.976987,38.285162,114.855485,-9437.292334
2023.977614,76.570323,114.855485,-9456.434915
2023.978242,114.855485,95.712904,-9437.292334
2023.978869,153.140646,133.998066,-9399.007173
2023.979497,114.855485,133.998066,-9360.722011
2023.980125,95.712904,172.283227,-9360.722011
2023.980752,133.998066,114.855485,-9418.149754
2023.981380,114.855485,95.712904,-9456.434915
2023.982008,76.570323,153.140646,-9456.434915
2023.982635,95.712904,153.140646,-9418.149754
2023.983263,133.998066,114.855485,-9418.149754
2023.983891,38.285162,114.855485,-9437.292334
2023.984518,76.570323,172.283227,-9437.292334
2023.985146,76.570323,229.710970,-9456.434915
2023.985774,114.855485,95.712904,-9399.007173
2023.986401,133.998066,114.855485,-9418.149754
2023.987029,76.570323,114.855485,-9437.292334
2023.987657,133.998066,153.140646,-9475.577496
2023.988284,153.140646,172.283227,-9399.007173
2023.988912,133.998066,172.283227,-9418.149754
2023.989540,76.570323,153.140646,-9437.292334
2023.990167,76.570323,210.568389,-9418.149754
2023.990795,95.712904,172.283227,-9418.149754
2023.991422,133.998066,153.140646,-9437.292334
2023.992050,133.998066,172.283227,-9494.720077
2023.992678,153.140646,172.283227,-9456.434915
2023.993305,133.998066,153.140646,-9418.149754
2023.993933,133.998066,210.568389,-9418.149754
2023.994561,153.140646,133.998066,-9437.292334
2023.995188,95.712904,114.855485,-9475.577496
2023.995816,76.570323,114.855485,-9456.434915
2023.996444,38.285162,114.855485,-9418.149754
2023.997071,76.570323,172.283227,-9418.149754
2023.997699,133.998066,114.855485,-9418.149754
2023.998327,133.998066,133.998066,-9399.007173
2023.998954,76.570323,114.855485,-9418.149754
2023.999582,76.570323,114.855485,-9437.292334
2024.000210,133.998066,133.998066,-9456.434915
2024.000837,76.570323,153.140646,-9418.149754
2024.001465,95.712904,172.283227,-9418.149754
2024.002092,95.712904,133.998066,-9418.149754
2024.002720,153.140646,172.283227,-9456.434915
2024.003348,76.570323,114.855485,-9456.434915
2024.003975,114.855485,95.712904,-9399.007173
2024.004603,133.998066,114.855485,-9437.292334
2024.005231,76.570323,114.855485,-9418.149754
2024.005858,76.570323,172.283227,-9418.149754
2024.006486,133.998066,172.283227,-9418.149754
2024.007114,133.998066,114.855485,-9437.292334
2024.007741,76.570323,114.855485,-9418.149754
2024.008369,133.998066,114.855485,-9418.149754
2024.008997,133.998066,133.998066,-9399.007173
2024.009624,133.998066,153.140646,-9418.149754
2024.010252,114.855485,172.283227,-9360.722011
2024.010880,133.998066,210.568389,-9475.577496
2024.011507,153.140646,191.425808,-9399.007173
2024.012135,133.998066,210.568389,-9418.149754
2024.012763,95.712904,172.283227,-9418.149754
2024.013390,133.998066,210.568389,-9437.292334
2024.014018,76.570323,210.568389,-9418.149754
2024.014645,76.570323,153.140646,-9418.149754
2024.015273,133.998066,114.855485,-9418.149754
2024.015901,38.285162,153.140646,-9360.722011
2024.016528,76.570323,114.855485,-9437.292334
2024.017156,76.570323,229.710970,-9418.149754
2024.017784,57.427742,133.998066,-9360.722011
2024.018411,38.285162,114.855485,-9418.149754
2024.019039,95.712904,114.855485,-9418.149754
2024.019667,95.712904,95.712904,-9399.007173
2024.020294,95.712904,95.712904,-9437.292334
2024.020922,76.570323,114.855485,-9418.149754
2024.021550,153.140646,133.998066,-9399.007173
2024.022177,114.855485,133.998066,-9360.722011
2024.022805,57.427742,133.998066,-9360.722011
2024.023433,95.712904,153.140646,-9437.292334
2024.024060,153.140646,133.998066,-9456.434915
2024.024688,133.998066,153.140646,-9418.149754
2024.025316,76.570323,95.712904,-9456.434915
2024.025943,114.855485,95.712904,-9456.434915
2024.026571,114.855485,95.712904,-9399.007173
2024.027198,76.570323,172.283227,-9418.149754
2024.027826,114.855485,95.712904,-9437.292334
2024.028454,76.570323,114.855485,-9475.577496
2024.029081,57.427742,133.998066,-9360.722011
2024.029709,76.570323,172.283227,-9437.292334
2024.030337,133.998066,114.855485,-9475.577496
2024.030964,114.855485,76.570323,-9418.149754
2024.031592,133.998066,153.140646,-9475.577496
2024.032219,133.998066,133.998066,-9437.292334
2024.032847,114.855485,95.712904,-9437.292334
2024.033474,38.285162,114.855485,-9360.722011
2024.034101,76.570323,172.283227,-9437.292334
2024.034729,38.285162,229.710970,-9418.149754
2024.035356,114.855485,95.712904,-9437.292334
2024.035983,76.570323,114.855485,-9437.292334
2024.036611,76.570323,172.283227,-9456.434915
2024.037238,133.998066,172.283227,-9456.434915
2024.037865,76.570323,210.568389,-9437.292334
2024.038493,76.570323,114.855485,-9418.149754
2024.039120,133.998066,114.855485,-9437.292334
2024.039747,114.855485,76.570323,-9494.720077
2024.040375,76.570323,114.855485,-9418.149754
2024.041002,133.998066,153.140646,-9418.149754
2024.041629,57.427742,133.998066,-9360.722011
2024.042257,76.570323,114.855485,-9418.149754
2024.042884,57.427742,172.283227,-9360.722011
2024.043511,133.998066,172.283227,-9418.149754
2024.044139,133.998066,172.283227,-9418.149754
2024.044766,133.998066,172.283227,-9418.149754
2024.045393,76.570323,210.568389,-9418.149754
2024.046021,57.427742,191.425808,-9360.722011
2024.046648,76.570323,153.140646,-9418.149754
2024.047275,76.570323,172.283227,-9418.149754
2024.047903,76.570323,114.855485,-9418.149754
2024.048530,153.140646,172.283227,-9399.007173
2024.049157,76.570323,114.855485,-9437.292334
2024.049785,133.998066,114.855485,-9418.149754
2024.050412,133.998066,133.998066,-9399.007173
2024.051039,19.142581,172.283227,-9418.149754
2024.051667,95.712904,114.855485,-9475.577496
2024.052294,76.570323,172.283227,-9418.149754
2024.052921,133.998066,172.283227,-9418.149754
2024.053549,133.998066,133.998066,-9399.007173
2024.054176,133.998066,153.140646,-9418.149754
2024.054803,95.712904,95.712904,-9399.007173
2024.055431,76.570323,114.855485,-9418.149754
2024.056058,38.285162,210.568389,-9456.434915
2024.056685,95.712904,114.855485,-9360.722011
2024.057313,76.570323,114.855485,-9475.577496
2024.057940,76.570323,172.283227,-9418.149754
2024.058567,76.570323,114.855485,-9437.292334
2024.059195,76.570323,114.855485,-9418.149754
2024.059822,133.998066,172.283227,-9456.434915
2024.060449,133.998066,114.855485,-9360.722011
2024.061077,76.570323,114.855485,-9418.149754
2024.061704,133.998066,133.998066,-9399.007173
2024.062331,76.570323,114.855485,-9418.149754
2024.062959,133.998066,114.855485,-9418.149754
2024.063586,153.140646,133.998066,-9437.292334
2024.064213,95.712904,95.712904,-9456.434915
2024.064841,76.570323,153.140646,-9456.434915
2024.065468,76.570323,210.568389,-9418.149754
2024.066095,133.998066,172.283227,-9437.292334
2024.066723,133.998066,114.855485,-9418.149754
2024.067350,76.570323,114.855485,-9418.149754
2024.067977,133.998066,114.855485,-9437.292334
2024.068605,133.998066,114.855485,-9437.292334
2024.069232,133.998066,172.283227,-9418.149754
2024.069859,133.998066,114.855485,-9418.149754
2024.070487,38.285162,153.140646,-9418.149754
2024.071114,76.570323,210.568389,-9418.149754
2024.071741,76.570323,114.855485,-9437.292334
2024.072369,38.285162,153.140646,-9475.577496
2024.072996,76.570323,114.855485,-9437.292334
2024.073623,38.285162,76.570323,-9399.007173
2024.074251,38.285162,114.855485,-9437.292334
2024.074878,76.570323,172.283227,-9456.434915
2024.075505,76.570323,210.568389,-9418.149754
2024.076133,38.285162,114.855485,-9418.149754
2024.076760,133.998066,114.855485,-9437.292334
2024.077387,95.712904,95.712904,-9418.149754
2024.078015,95.712904,133.998066,-9418.149754
2024.078642,76.570323,153.140646,-9418.149754
2024.079269,76.570323,114.855485,-9418.149754
2024.079897,95.712904,114.855485,-9437.292334
2024.080524,38.285162,172.283227,-9360.722011
2024.081151,114.855485,133.998066,-9360.722011
2024.081779,76.570323,114.855485,-9437.292334
2024.082406,133.998066,114.855485,-9418.149754
2024.083033,133.998066,114.855485,-9418.149754
2024.083661,133.998066,114.855485,-9418.149754
2024.084288,95.712904,95.712904,-9399.007173
2024.084915,76.570323,114.855485,-9418.149754
2024.085543,38.285162,172.283227,-9437.292334
2024.086170,133.998066,114.855485,-9494.720077
2024.086797,133.998066,114.855485,-9475.577496
2024.087425,95.712904,191.425808,-9360.722011
2024.088052,76.570323,114.855485,-9494.720077
2024.088679,153.140646,133.998066,-9456.434915
2024.089307,133.998066,153.140646,-9399.007173
2024.089934,57.427742,248.853550,-9360.722011
2024.090561,38.285162,114.855485,-9437.292334
2024.091189,57.427742,114.855485,-9475.577496
2024.091816,38.285162,114.855485,-9456.434915
2024.092443,57.427742,133.998066,-9360.722011
2024.093071,76.570323,114.855485,-9437.292334
2024.093698,76.570323,210.568389,-9437.292334
2024.094325,38.285162,114.855485,-9418.149754
2024.094953,133.998066,172.283227,-9456.434915
2024.095580,133.998066,229.710970,-9418.149754
2024.096207,95.712904,191.425808,-9360.722011
2024.096835,38.285162,229.710970,-9456.434915
2024.097462,76.570323,114.855485,-9418.149754
2024.098089,76.570323,114.855485,-9360.722011
2024.098717,95.712904,114.855485,-9418.149754
2024.099344,38.285162,114.855485,-9418.149754
2024.099971,76.570323,95.712904,-9399.007173
2024.100599,76.570323,114.855485,-9418.149754
2024.101226,133.998066,172.283227,-9418.149754
2024.101853,133.998066,210.568389,-9418.149754
2024.102481,133.998066,229.710970,-9418.149754
2024.103108,76.570323,153.140646,-9437.292334
2024.103735,38.285162,114.855485,-9494.720077
2024.104363,76.570323,114.855485,-9456.434915
2024.104990,76.570323,114.855485,-9494.720077
2024.105617,153.140646,133.998066,-9399.007173
2024.106245,133.998066,114.855485,-9418.149754
2024.106872,133.998066,114.855485,-9418.149754
2024.107499,76.570323,172.283227,-9418.149754
2024.108127,76.570323,172.283227,-9437.292334
2024.108754,133.998066,153.140646,-9494.720077
2024.109381,38.285162,229.710970,-9456.434915
2024.110009,57.427742,229.710970,-9418.149754
2024.110636,76.570323,114.855485,-9475.577496
2024.111263,38.285162,153.140646,-9418.149754
2024.111891,133.998066,210.568389,-9418.149754
2024.112518,133.998066,153.140646,-9437.292334
2024.113145,76.570323,229.710970,-9456.434915
2024.113773,76.570323,114.855485,-9437.292334
2024.114400,38.285162,153.140646,-9437.292334
2024.115027,95.712904,191.425808,-9418.149754
2024.115655,133.998066,153.140646,-9399.007173
2024.116282,153.140646,172.283227,-9399.007173
2024.116909,76.570323,172.283227,-9418.149754
2024.117537,114.855485,153.140646,-9360.722011
2024.118164,153.140646,133.998066,-9399.007173
2024.118791,153.140646,133.998066,-9456.434915
2024.119419,133.998066,172.283227,-9399.007173
2024.120046,38.285162,172.283227,-9437.292334
2024.120673,76.570323,229.710970,-9418.149754
2024.121301,38.285162,210.568389,-9418.149754
2024.121928,76.570323,114.855485,-9437.292334
2024.122555,133.998066,133.998066,-9437.292334
2024.123183,38.285162,114.855485,-9418.149754
2024.123810,76.570323,114.855485,-9360.722011
2024.124437,133.998066,114.855485,-9437.292334
2024.125065,133.998066,133.998066,-9399.007173
2024.125692,76.570323,114.855485,-9475.577496
2024.126319,76.570323,114.855485,-9475.577496
2024.126947,38.285162,172.283227,-9418.149754
2024.127574,133.998066,172.283227,-9418.149754
2024.128201,95.712904,133.998066,-9418.149754
2024.128829,38.285162,114.855485,-9418.149754
2024.129456,19.142581,210.568389,-9418.149754
2024.130083,38.285162,114.855485,-9437.292334
2024.130711,153.140646,133.998066,-9399.007173
2024.131338,76.570323,114.855485,-9456.434915
2024.131965,133.998066,153.140646,-9399.007173
2024.132593,133.998066,114.855485,-9475.577496
2024.133220,172.283227,153.140646,-9379.864592
2024.133847,76.570323,153.140646,-9418.149754
2024.134474,95.712904,95.712904,-9399.007173
2024.135101,95.712904,114.855485,-9418.149754
2024.135729,76.570323,172.283227,-9475.577496
2024.136356,95.712904,95.712904,-9399.007173
2024.136983,76.570323,172.283227,-9437.292334
2024.137610,133.998066,114.855485,-9456.434915
2024.138238,133.998066,114.855485,-9437.292334
2024.138865,38.285162,210.568389,-9437.292334
2024.139492,133.998066,114.855485,-9418.149754
2024.140119,153.140646,172.283227,-9494.720077
2024.140747,76.570323,172.283227,-9475.577496
2024.141374,57.427742,287.138712,-9437.292334
2024.142001,95.712904,153.140646,-9418.149754
2024.142628,76.570323,114.855485,-9437.292334
2024.143255,114.855485,133.998066,-9360.722011
2024.143883,76.570323,114.855485,-9437.292334
2024.144510,133.998066,114.855485,-9418.149754
2024.145137,133.998066,133.998066,-9475.577496
2024.145764,153.140646,172.283227,-9456.434915
2024.146392,153.140646,191.425808,-9475.577496
2024.147019,133.998066,153.140646,-9418.149754
2024.147646,133.998066,114.855485,-9418.149754
2024.148273,133.998066,172.283227,-9418.149754
2024.148900,76.570323,133.998066,-9360.722011
2024.149528,38.285162,114.855485,-9418.149754
2024.150155,76.570323,172.283227,-9418.149754
2024.150782,76.570323,153.140646,-9418.149754
2024.151409,95.712904,172.283227,-9437.292334
2024.152037,76.570323,114.855485,-9533.005238
2024.152664,38.285162,114.855485,-9360.722011
2024.153291,133.998066,114.855485,-9456.434915
2024.153918,95.712904,114.855485,-9456.434915
2024.154545,133.998066,114.855485,-9418.149754
2024.155173,153.140646,133.998066,-9399.007173
2024.155800,76.570323,114.855485,-9418.149754
2024.156427,57.427742,133.998066,-9360.722011
2024.157054,133.998066,153.140646,-9418.149754
2024.157682,76.570323,114.855485,-9418.149754
2024.158309,95.712904,95.712904,-9399.007173
2024.158936,38.285162,191.425808,-9475.577496
2024.159563,133.998066,114.855485,-9456.434915
2024.160190,133.998066,114.855485,-9437.292334
2024.160818,133.998066,172.283227,-9418.149754
2024.161445,76.570323,114.855485,-9418.149754
2024.162072,76.570323,114.855485,-9418.149754
2024.162699,76.570323,210.568389,-9418.149754
2024.163327,133.998066,114.855485,-9437.292334
2024.163954,133.998066,114.855485,-9437.292334
2024.164581,57.427742,133.998066,-9418.149754
2024.165208,133.998066,114.855485,-9418.149754
2024.165836,76.570323,172.283227,-9456.434915
2024.166463,38.285162,210.568389,-9360.722011
2024.167090,57.427742,114.855485,-9399.007173
2024.167717,76.570323,114.855485,-9437.292334
2024.168344,38.285162,114.855485,-9360.722011
2024.168972,57.427742,114.855485,-9437.292334
2024.169599,57.427742,133.998066,-9360.722011
2024.170226,133.998066,114.855485,-9418.149754
2024.170853,76.570323,153.140646,-9494.720077
2024.171481,133.998066,114.855485,-9418.149754
2024.172108,38.285162,114.855485,-9418.149754
2024.172735,38.285162,114.855485,-9475.577496
2024.173362,38.285162,114.855485,-9418.149754
2024.173989,76.570323,114.855485,-9456.434915
2024.174617,38.285162,114.855485,-9437.292334
2024.175244,38.285162,153.140646,-9418.149754
2024.175871,38.285162,153.140646,-9418.149754
2024.176498,38.285162,114.855485,-9418.149754
2024.177126,114.855485,95.712904,-9494.720077
2024.177753,133.998066,114.855485,-9418.149754
2024.178380,95.712904,153.140646,-9533.005238
2024.179007,38.285162,172.283227,-9456.434915
2024.179634,76.570323,153.140646,-9437.292334
2024.180262,133.998066,114.855485,-9360.722011
2024.180889,76.570323,114.855485,-9418.149754
2024.181516,38.285162,114.855485,-9418.149754
2024.182143,114.855485,133.998066,-9360.722011
2024.182771,133.998066,153.140646,-9437.292334
2024.183398,114.855485,95.712904,-9494.720077
2024.184025,76.570323,210.568389,-9418.149754
2024.184652,76.570323,287.138712,-9399.007173
2024.185279,76.570323,172.283227,-9418.149754
2024.185907,153.140646,133.998066,-9399.007173
2024.186534,172.283227,191.425808,-9379.864592
2024.187161,76.570323,114.855485,-9437.292334
2024.187788,76.570323,114.855485,-9437.292334
2024.188416,76.570323,210.568389,-9494.720077
2024.189043,38.285162,153.140646,-9418.149754
2024.189670,95.712904,114.855485,-9475.577496
2024.190297,76.570323,172.283227,-9418.149754
2024.190925,38.285162,114.855485,-9418.149754
2024.191552,133.998066,114.855485,-9418.149754
2024.192179,133.998066,114.855485,-9418.149754
2024.192806,57.427742,133.998066,-9360.722011
2024.193433,76.570323,114.855485,-9437.292334
2024.194061,95.712904,172.283227,-9418.149754
2024.194688,153.140646,133.998066,-9399.007173
2024.195315,153.140646,133.998066,-9475.577496
2024.195942,76.570323,153.140646,-9475.577496
2024.196570,76.570323,172.283227,-9494.720077
2024.197197,95.712904,210.568389,-9533.005238
2024.197824,133.998066,114.855485,-9456.434915
2024.198451,172.283227,114.855485,-9456.434915
2024.199078,133.998066,229.710970,-9418.149754
2024.199706,133.998066,153.140646,-9456.434915
2024.200333,95.712904,95.712904,-9456.434915
2024.200960,95.712904,114.855485,-9418.149754
2024.201587,38.285162,172.283227,-9456.434915
2024.202215,76.570323,172.283227,-9418.149754
2024.202842,38.285162,114.855485,-9494.720077
2024.203469,19.142581,114.855485,-9418.149754
2024.204096,76.570323,114.855485,-9437.292334
2024.204723,153.140646,172.283227,-9399.007173
2024.205351,133.998066,114.855485,-9418.149754
2024.205978,76.570323,153.140646,-9418.149754
2024.206605,95.712904,172.283227,-9437.292334
2024.207232,76.570323,153.140646,-9418.149754
2024.207860,133.998066,114.855485,-9418.149754
2024.208487,38.285162,153.140646,-9456.434915
2024.209114,76.570323,114.855485,-9418.149754
2024.209741,95.712904,153.140646,-9418.149754
2024.210368,76.570323,153.140646,-9418.149754
2024.210996,95.712904,95.712904,-9399.007173
2024.211623,114.855485,133.998066,-9360.722011
2024.212250,76.570323,172.283227,-9437.292334
2024.212877,38.285162,210.568389,-9418.149754
2024.213505,153.140646,210.568389,-9418.149754
2024.214132,76.570323,114.855485,-9418.149754
2024.214759,57.427742,172.283227,-9456.434915
2024.215386,95.712904,153.140646,-9418.149754
2024.216014,76.570323,114.855485,-9456.434915
2024.216641,114.855485,153.140646,-9360.722011
2024.217268,76.570323,114.855485,-9418.149754
2024.217895,38.285162,114.855485,-9418.149754
2024.218522,133.998066,114.855485,-9418.149754
2024.219150,153.140646,191.425808,-9399.007173
2024.219777,38.285162,114.855485,-9437.292334
2024.220404,38.285162,114.855485,-9418.149754
2024.221031,95.712904,95.712904,-9399.007173
2024.221659,95.712904,95.712904,-9399.007173
2024.222286,133.998066,114.855485,-9418.149754
2024.222913,133.998066,172.283227,-9399.007173
2024.223540,76.570323,114.855485,-9475.577496
2024.224167,57.427742,95.712904,-9456.434915
2024.224795,19.142581,95.712904,-9360.722011
2024.225422,95.712904,114.855485,-9437.292334
2024.226049,95.712904,114.855485,-9494.720077
2024.226676,76.570323,191.425808,-9437.292334
2024.227304,76.570323,114.855485,-9456.434915
2024.227931,95.712904,172.283227,-9418.149754
2024.228558,95.712904,229.710970,-9399.007173
2024.229185,114.855485,153.140646,-9360.722011
2024.229812,76.570323,172.283227,-9418.149754
2024.230440,76.570323,114.855485,-9456.434915
2024.231067,95.712904,133.998066,-9360.722011
2024.231694,133.998066,114.855485,-9418.149754
2024.232321,114.855485,153.140646,-9399.007173
2024.232949,95.712904,210.568389,-9456.434915
2024.233577,133.998066,114.855485,-9418.149754
2024.234204,76.570323,114.855485,-9437.292334
2024.234832,133.998066,114.855485,-9418.149754
2024.235459,153.140646,133.998066,-9399.007173
2024.236087,76.570323,153.140646,-9418.149754
2024.236715,76.570323,172.283227,-9494.720077
2024.237342,133.998066,229.710970,-9418.149754
2024.237970,133.998066,172.283227,-9456.434915
2024.238597,95.712904,114.855485,-9418.149754
2024.239225,133.998066,114.855485,-9475.577496
2024.239853,76.570323,172.283227,-9456.434915
2024.240480,133.998066,172.283227,-9418.149754
2024.241108,76.570323,153.140646,-9533.005238
2024.241735,133.998066,172.283227,-9399.007173
2024.242363,57.427742,153.140646,-9418.149754
2024.242991,114.855485,172.283227,-9360.722011
2024.243618,95.712904,114.855485,-9437.292334
2024.244246,76.570323,114.855485,-9418.149754
2024.244873,38.285162,172.283227,-9418.149754
2024.245501,76.570323,114.855485,-9418.149754
2024.246129,76.570323,114.855485,-9418.149754
2024.246756,76.570323,153.140646,-9418.149754
2024.247384,76.570323,114.855485,-9418.149754
2024.248011,76.570323,76.570323,-9322.436850
2024.248639,76.570323,153.140646,-9418.149754
2024.249267,76.570323,114.855485,-9418.149754
2024.249894,95.712904,114.855485,-9418.149754
2024.250522,76.570323,172.283227,-9418.149754
2024.251149,133.998066,153.140646,-9418.149754
2024.251777,133.998066,76.570323,-9379.864592
2024.252405,153.140646,133.998066,-9399.007173
2024.253032,133.998066,133.998066,-9456.434915
2024.253660,133.998066,114.855485,-9418.149754
2024.254287,133.998066,76.570323,-9379.864592
2024.254915,95.712904,114.855485,-9437.292334
2024.255543,95.712904,153.140646,-9456.434915
2024.256170,38.285162,114.855485,-9456.434915
2024.256798,76.570323,114.855485,-9437.292334
2024.257425,133.998066,114.855485,-9494.720077
2024.258053,95.712904,172.283227,-9418.149754
2024.258681,76.570323,114.855485,-9418.149754
2024.259308,76.570323,153.140646,-9418.149754
2024.259936,57.427742,172.283227,-9360.722011
2024.260563,38.285162,172.283227,-9418.149754
2024.261191,95.712904,114.855485,-9437.292334
2024.261819,133.998066,172.283227,-9418.149754
2024.262446,133.998066,133.998066,-9475.577496
2024.263074,95.712904,133.998066,-9360.722011
2024.263701,76.570323,114.855485,-9418.149754
2024.264329,114.855485,153.140646,-9360.722011
2024.264957,76.570323,172.283227,-9418.149754
2024.265584,76.570323,114.855485,-9418.149754
2024.266212,133.998066,114.855485,-9456.434915
2024.266839,133.998066,153.140646,-9418.149754
2024.267467,57.427742,133.998066,-9360.722011
2024.268094,95.712904,95.712904,-9399.007173
2024.268722,210.568389,153.140646,-9456.434915
2024.269350,76.570323,153.140646,-9418.149754
2024.269977,38.285162,114.855485,-9418.149754
2024.270605,133.998066,114.855485,-9456.434915
2024.271232,133.998066,191.425808,-9418.149754
2024.271860,210.568389,133.998066,-9379.864592
2024.272488,95.712904,95.712904,-9399.007173
2024.273115,76.570323,114.855485,-9418.149754
2024.273743,133.998066,153.140646,-9456.434915
2024.274370,114.855485,153.140646,-9379.864592
2024.274998,133.998066,153.140646,-9437.292334
2024.275626,76.570323,114.855485,-9418.149754
2024.276253,38.285162,114.855485,-9418.149754
2024.276881,95.712904,114.855485,-9399.007173
2024.277508,76.570323,95.712904,-9418.149754
2024.278136,0.000000,95.712904,-9399.007173
2024.278764,38.285162,114.855485,-9418.149754
2024.279391,95.712904,95.712904,-9399.007173
2024.280019,133.998066,172.283227,-9418.149754
2024.280646,114.855485,133.998066,-9360.722011
2024.281274,76.570323,114.855485,-9418.149754
2024.281902,133.998066,114.855485,-9418.149754
2024.282529,76.570323,153.140646,-9437.292334
2024.283157,95.712904,172.283227,-9456.434915
2024.283784,133.998066,153.140646,-9418.149754
2024.284412,114.855485,95.712904,-9399.007173
2024.285040,76.570323,191.425808,-9437.292334
2024.285667,76.570323,210.568389,-9418.149754
2024.286295,57.427742,172.283227,-9341.579430
2024.286922,133.998066,191.425808,-9437.292334
2024.287550,133.998066,153.140646,-9456.434915
2024.288178,133.998066,114.855485,-9418.149754
2024.288805,95.712904,172.283227,-9418.149754
2024.289433,76.570323,153.140646,-9475.577496
2024.290060,133.998066,114.855485,-9418.149754
2024.290688,95.712904,114.855485,-9418.149754
2024.291316,95.712904,133.998066,-9360.722011
2024.291943,114.855485,133.998066,-9360.722011
2024.292571,76.570323,153.140646,-9418.149754
2024.293198,57.427742,114.855485,-9379.864592
2024.293826,133.998066,153.140646,-9418.149754
2024.294454,114.855485,133.998066,-9341.579430
2024.295081,114.855485,133.998066,-9360.722011
2024.295709,133.998066,229.710970,-9360.722011
2024.296336,133.998066,114.855485,-9360.722011
2024.296964,133.998066,172.283227,-9437.292334
2024.297592,153.140646,133.998066,-9399.007173
2024.298219,76.570323,114.855485,-9418.149754
2024.298847,95.712904,133.998066,-9418.149754
2024.299474,172.283227,95.712904,-9399.007173
2024.300102,76.570323,114.855485,-9418.149754
2024.300730,133.998066,114.855485,-9418.149754
2024.301357,19.142581,153.140646,-9399.007173
2024.301985,133.998066,114.855485,-9418.149754
2024.302612,133.998066,133.998066,-9399.007173
2024.303240,38.285162,210.568389,-9418.149754
2024.303868,76.570323,114.855485,-9494.720077
2024.304495,133.998066,114.855485,-9418.149754
2024.305123,133.998066,114.855485,-9418.149754
2024.305750,133.998066,76.570323,-9379.864592
2024.306378,76.570323,153.140646,-9418.149754
2024.307006,0.000000,114.855485,-9456.434915
2024.307633,38.285162,114.855485,-9456.434915
2024.308261,76.570323,114.855485,-9437.292334
2024.308888,114.855485,95.712904,-9456.434915
2024.309516,153.140646,133.998066,-9456.434915
2024.310144,133.998066,114.855485,-9456.434915
2024.310771,76.570323,153.140646,-9360.722011
2024.311399,133.998066,133.998066,-9399.007173
2024.312026,76.570323,210.568389,-9418.149754
2024.312654,57.427742,210.568389,-9418.149754
2024.313282,95.712904,114.855485,-9456.434915
2024.313909,38.285162,172.283227,-9437.292334
2024.314537,76.570323,114.855485,-9437.292334
2024.315164,76.570323,114.855485,-9418.149754
2024.315792,133.998066,114.855485,-9418.149754
2024.316420,38.285162,95.712904,-9399.007173
2024.317047,95.712904,114.855485,-9418.149754
2024.317675,133.998066,114.855485,-9456.434915
2024.318302,95.712904,114.855485,-9475.577496
2024.318930,57.427742,95.712904,-9399.007173
2024.319558,38.285162,153.140646,-9418.149754
2024.320185,76.570323,114.855485,-9437.292334
2024.320813,38.285162,114.855485,-9418.149754
2024.321440,38.285162,114.855485,-9437.292334
2024.322068,76.570323,114.855485,-9418.149754
2024.322696,19.142581,153.140646,-9418.149754
2024.323323,-19.142581,114.855485,-9379.864592
2024.323951,133.998066,114.855485,-9437.292334
2024.324578,57.427742,172.283227,-9437.292334
2024.325206,133.998066,210.568389,-9437.292334
2024.325834,153.140646,133.998066,-9399.007173
2024.326461,153.140646,248.853550,-9456.434915
2024.327089,133.998066,153.140646,-9418.149754
2024.327716,133.998066,114.855485,-9437.292334
2024.328344,133.998066,114.855485,-9418.149754
2024.328972,76.570323,172.283227,-9437.292334
2024.329599,133.998066,153.140646,-9456.434915
2024.330227,133.998066,114.855485,-9475.577496
2024.330854,76.570323,114.855485,-9418.149754
2024.331482,95.712904,114.855485,-9418.149754
2024.332110,76.570323,114.855485,-9437.292334
2024.332737,95.712904,153.140646,-9418.149754
2024.333365,95.712904,210.568389,-9418.149754
2024.333992,133.998066,114.855485,-9418.149754
2024.334620,133.998066,114.855485,-9418.149754
2024.335248,76.570323,114.855485,-9456.434915
2024.335875,95.712904,133.998066,-9360.722011
2024.336503,114.855485,95.712904,-9399.007173
2024.337131,76.570323,114.855485,-9456.434915
2024.337758,114.855485,95.712904,-9456.434915
2024.338386,76.570323,114.855485,-9418.149754
2024.339013,76.570323,114.855485,-9456.434915
2024.339641,38.285162,114.855485,-9418.149754
2024.340269,133.998066,153.140646,-9456.434915
2024.340896,76.570323,114.855485,-9418.149754
2024.341524,95.712904,172.283227,-9418.149754
2024.342152,76.570323,114.855485,-9418.149754
2024.342779,76.570323,153.140646,-9418.149754
2024.343407,38.285162,210.568389,-9418.149754
2024.344034,133.998066,229.710970,-9437.292334
2024.344662,95.712904,95.712904,-9456.434915
2024.345290,133.998066,114.855485,-9456.434915
2024.345917,38.285162,114.855485,-9418.149754
2024.346545,38.285162,133.998066,-9399.007173
2024.347173,95.712904,133.998066,-9360.722011
2024.347800,133.998066,114.855485,-9475.577496
2024.348428,133.998066,191.425808,-9475.577496
2024.349055,133.998066,114.855485,-9456.434915
2024.349683,76.570323,114.855485,-9418.149754
2024.350311,133.998066,191.425808,-9456.434915
2024.350938,133.998066,172.283227,-9437.292334
2024.351566,76.570323,114.855485,-9418.149754
2024.352194,57.427742,95.712904,-9399.007173
2024.352821,114.855485,133.998066,-9360.722011
2024.353449,133.998066,210.568389,-9437.292334
2024.354076,76.570323,172.283227,-9418.149754
2024.354704,76.570323,114.855485,-9418.149754
2024.355332,133.998066,153.140646,-9456.434915
2024.355959,133.998066,191.425808,-9418.149754
2024.356587,95.712904,210.568389,-9418.149754
2024.357215,133.998066,133.998066,-9399.007173
2024.357842,133.998066,114.855485,-9437.292334
2024.358470,95.712904,114.855485,-9418.149754
2024.359097,133.998066,191.425808,-9418.149754
2024.359725,153.140646,172.283227,-9456.434915
2024.360353,133.998066,114.855485,-9437.292334
2024.360980,76.570323,114.855485,-9418.149754
2024.361608,133.998066,114.855485,-9475.577496
2024.362236,76.570323,114.855485,-9418.149754
2024.362863,133.998066,153.140646,-9418.149754
2024.363491,76.570323,114.855485,-9418.149754
2024.364118,38.285162,114.855485,-9418.149754
2024.364746,133.998066,114.855485,-9418.149754
2024.365374,95.712904,114.855485,-9418.149754
2024.366001,76.570323,114.855485,-9456.434915
2024.366629,76.570323,210.568389,-9437.292334
2024.367257,133.998066,191.425808,-9418.149754
2024.367884,133.998066,172.283227,-9437.292334
2024.368512,76.570323,114.855485,-9437.292334
2024.369139,38.285162,153.140646,-9437.292334
2024.369767,133.998066,210.568389,-9418.149754
2024.370395,76.570323,210.568389,-9418.149754
2024.371022,133.998066,114.855485,-9456.434915
2024.371650,133.998066,114.855485,-9456.434915
2024.372278,210.568389,248.853550,-9456.434915
2024.372905,133.998066,210.568389,-9418.149754
2024.373533,76.570323,153.140646,-9418.149754
2024.374160,133.998066,114.855485,-9418.149754
2024.374788,133.998066,114.855485,-9418.149754
2024.375416,76.570323,210.568389,-9418.149754
2024.376043,76.570323,153.140646,-9418.149754
2024.376671,133.998066,191.425808,-9418.149754
2024.377299,76.570323,153.140646,-9437.292334
2024.377926,133.998066,114.855485,-9437.292334
2024.378554,57.427742,153.140646,-9475.577496
2024.379181,95.712904,114.855485,-9399.007173
2024.379809,153.140646,133.998066,-9437.292334
2024.380437,133.998066,210.568389,-9418.149754
2024.381064,133.998066,114.855485,-9437.292334
2024.381692,76.570323,114.855485,-9418.149754
2024.382320,38.285162,114.855485,-9418.149754
2024.382947,38.285162,114.855485,-9437.292334
2024.383575,76.570323,153.140646,-9437.292334
2024.384202,38.285162,114.855485,-9456.434915
2024.384830,133.998066,114.855485,-9418.149754
2024.385458,133.998066,114.855485,-9418.149754
2024.386085,95.712904,114.855485,-9399.007173
2024.386713,57.427742,172.283227,-9360.722011
2024.387341,19.142581,114.855485,-9418.149754
2024.387968,76.570323,95.712904,-9399.007173
2024.388596,153.140646,210.568389,-9475.577496
2024.389223,153.140646,210.568389,-9456.434915
2024.389851,38.285162,114.855485,-9418.149754
2024.390479,95.712904,229.710970,-9456.434915
2024.391106,76.570323,153.140646,-9418.149754
2024.391734,153.140646,172.283227,-9399.007173
2024.392362,153.140646,133.998066,-9437.292334
2024.392989,133.998066,229.710970,-9437.292334
2024.393617,133.998066,172.283227,-9437.292334
2024.394244,95.712904,210.568389,-9456.434915
2024.394872,76.570323,114.855485,-9418.149754
2024.395500,114.855485,95.712904,-9456.434915
2024.396127,153.140646,191.425808,-9399.007173
2024.396755,133.998066,172.283227,-9437.292334
2024.397383,76.570323,153.140646,-9418.149754
2024.398010,76.570323,172.283227,-9418.149754
2024.398638,133.998066,153.140646,-9456.434915
2024.399265,76.570323,153.140646,-9418.149754
2024.399893,76.570323,114.855485,-9437.292334
2024.400521,76.570323,114.855485,-9418.149754
2024.401148,114.855485,95.712904,-9379.864592
2024.401776,95.712904,172.283227,-9418.149754
2024.402404,76.570323,114.855485,-9418.149754
2024.403031,76.570323,114.855485,-9456.434915
2024.403659,133.998066,114.855485,-9437.292334
2024.404286,133.998066,153.140646,-9418.149754
2024.404914,76.570323,172.283227,-9456.434915
2024.405542,76.570323,133.998066,-9360.722011
2024.406169,76.570323,210.568389,-9437.292334
2024.406797,133.998066,114.855485,-9418.149754
2024.407425,133.998066,114.855485,-9418.149754
2024.408052,95.712904,114.855485,-9399.007173
2024.408680,133.998066,172.283227,-9418.149754
2024.409307,133.998066,114.855485,-9418.149754
2024.409935,133.998066,172.283227,-9456.434915
2024.410563,133.998066,114.855485,-9418.149754
2024.411190,133.998066,114.855485,-9418.149754
2024.411818,133.998066,114.855485,-9418.149754
2024.412446,38.285162,114.855485,-9418.149754
2024.413073,57.427742,229.710970,-9418.149754
2024.413701,38.285162,114.855485,-9418.149754
2024.414328,95.712904,114.855485,-9494.720077
2024.414956,76.570323,114.855485,-9418.149754
2024.415584,57.427742,114.855485,-9399.007173
2024.416211,76.570323,114.855485,-9360.722011
2024.416839,76.570323,172.283227,-9494.720077
2024.417467,76.570323,172.283227,-9456.434915
2024.418094,76.570323,114.855485,-9475.577496
2024.418722,95.712904,114.855485,-9437.292334
2024.419349,95.712904,114.855485,-9475.577496
2024.419977,114.855485,172.283227,-9456.434915
2024.420605,133.998066,114.855485,-9418.149754
2024.421232,133.998066,114.855485,-9437.292334
2024.421860,76.570323,114.855485,-9475.577496
2024.422488,133.998066,172.283227,-9418.149754
2024.423115,133.998066,114.855485,-9418.149754
2024.423743,76.570323,172.283227,-9456.434915
2024.424370,114.855485,95.712904,-9399.007173
2024.424998,38.285162,114.855485,-9418.149754
2024.425626,76.570323,114.855485,-9418.149754
2024.426253,76.570323,114.855485,-9418.149754
2024.426881,38.285162,114.855485,-9360.722011
2024.427509,76.570323,172.283227,-9418.149754
2024.428136,95.712904,210.568389,-9360.722011
2024.428764,76.570323,114.855485,-9456.434915
2024.429391,153.140646,172.283227,-9399.007173
2024.430019,76.570323,114.855485,-9418.149754
2024.430647,133.998066,172.283227,-9418.149754
2024.431274,133.998066,153.140646,-9418.149754
2024.431902,76.570323,114.855485,-9418.149754
2024.432530,76.570323,153.140646,-9418.149754
2024.433157,95.712904,95.712904,-9399.007173
2024.433785,76.570323,210.568389,-9418.149754
2024.434412,76.570323,114.855485,-9418.149754
2024.435040,133.998066,114.855485,-9437.292334
2024.435668,76.570323,133.998066,-9322.436850
2024.436295,57.427742,133.998066,-9418.149754
2024.436923,76.570323,114.855485,-9418.149754
2024.437551,95.712904,114.855485,-9418.149754
2024.438178,153.140646,172.283227,-9437.292334
2024.438806,133.998066,172.283227,-9437.292334
2024.439433,76.570323,114.855485,-9475.577496
2024.440061,153.140646,133.998066,-9399.007173
2024.440688,133.998066,114.855485,-9456.434915
2024.441316,38.285162,229.710970,-9418.149754
2024.441943,38.285162,114.855485,-9475.577496
2024.442571,133.998066,172.283227,-9456.434915
2024.443198,95.712904,172.283227,-9360.722011
2024.443826,76.570323,153.140646,-9437.292334
2024.444453,95.712904,133.998066,-9418.149754
2024.445081,76.570323,229.710970,-9475.577496
2024.445708,95.712904,172.283227,-9533.005238
2024.446336,38.285162,172.283227,-9418.149754
2024.446963,76.570323,153.140646,-9456.434915
2024.447591,95.712904,114.855485,-9418.149754
2024.448218,76.570323,153.140646,-9418.149754
2024.448845,76.570323,114.855485,-9418.149754
2024.449473,95.712904,114.855485,-9437.292334
2024.450100,153.140646,133.998066,-9399.007173
2024.450728,114.855485,95.712904,-9456.434915
2024.451355,76.570323,172.283227,-9418.149754
2024.451983,172.283227,76.570323,-9456.434915
2024.452610,76.570323,114.855485,-9418.149754
2024.453238,76.570323,114.855485,-9475.577496
2024.453865,133.998066,114.855485,-9418.149754
2024.454493,133.998066,172.283227,-9418.149754
2024.455120,76.570323,114.855485,-9418.149754
2024.455748,95.712904,95.712904,-9399.007173
2024.456375,95.712904,191.425808,-9360.722011
2024.457003,76.570323,114.855485,-9456.434915
2024.457630,38.285162,172.283227,-9418.149754
2024.458258,76.570323,114.855485,-9418.149754
2024.458885,76.570323,210.568389,-9475.577496
2024.459513,95.712904,95.712904,-9437.292334
2024.460140,76.570323,114.855485,-9418.149754
2024.460768,76.570323,153.140646,-9437.292334
2024.461395,95.712904,210.568389,-9418.149754
2024.462023,95.712904,191.425808,-9360.722011
2024.462650,133.998066,172.283227,-9399.007173
2024.463278,133.998066,210.568389,-9418.149754
2024.463905,95.712904,133.998066,-9360.722011
2024.464533,133.998066,210.568389,-9418.149754
2024.465160,153.140646,172.283227,-9399.007173
2024.465788,38.285162,114.855485,-9418.149754
2024.466415,133.998066,114.855485,-9418.149754
2024.467043,95.712904,114.855485,-9418.149754
2024.467670,57.427742,114.855485,-9418.149754
2024.468298,133.998066,114.855485,-9418.149754
2024.468925,76.570323,172.283227,-9418.149754
2024.469553,57.427742,153.140646,-9418.149754
2024.470180,133.998066,210.568389,-9456.434915
2024.470808,133.998066,210.568389,-9437.292334
2024.471435,95.712904,153.140646,-9360.722011
2024.472063,76.570323,153.140646,-9437.292334
2024.472690,38.285162,114.855485,-9418.149754
2024.473318,133.998066,114.855485,-9437.292334
2024.473945,95.712904,114.855485,-9456.434915
2024.474573,38.285162,114.855485,-9418.149754
2024.475200,133.998066,114.855485,-9418.149754
2024.475828,76.570323,114.855485,-9418.149754
2024.476455,38.285162,153.140646,-9418.149754
2024.477083,133.998066,114.855485,-9437.292334
2024.477710,38.285162,153.140646,-9437.292334
2024.478338,95.712904,114.855485,-9437.292334
2024.478965,133.998066,153.140646,-9456.434915
2024.479592,76.570323,172.283227,-9418.149754
2024.480220,76.570323,114.855485,-9475.577496
2024.480847,133.998066,114.855485,-9418.149754
2024.481475,76.570323,153.140646,-9456.434915
2024.482102,76.570323,191.425808,-9418.149754
2024.482730,114.855485,248.853550,-9360.722011
2024.483357,95.712904,210.568389,-9418.149754
2024.483985,76.570323,114.855485,-9418.149754
2024.484612,153.140646,191.425808,-9456.434915
2024.485240,38.285162,114.855485,-9418.149754
2024.485867,76.570323,114.855485,-9475.577496
2024.486495,76.570323,210.568389,-9418.149754
2024.487122,153.140646,133.998066,-9399.007173
2024.487750,76.570323,172.283227,-9418.149754
2024.488377,133.998066,114.855485,-9437.292334
2024.489005,76.570323,114.855485,-9456.434915
2024.489632,76.570323,210.568389,-9418.149754
2024.490260,133.998066,153.140646,-9533.005238
2024.490887,153.140646,172.283227,-9399.007173
2024.491515,76.570323,114.855485,-9418.149754
2024.492142,38.285162,114.855485,-9437.292334
2024.492770,38.285162,153.140646,-9418.149754
2024.493397,76.570323,114.855485,-9418.149754
2024.494025,95.712904,172.283227,-9437.292334
2024.494652,95.712904,95.712904,-9494.720077
2024.495280,76.570323,114.855485,-9418.149754
2024.495907,38.285162,114.855485,-9418.149754
2024.496535,133.998066,114.855485,-9418.149754
2024.497162,133.998066,114.855485,-9418.149754
2024.497790,133.998066,172.283227,-9418.149754
2024.498417,133.998066,133.998066,-9399.007173
2024.499045,76.570323,114.855485,-9418.149754
2024.499672,76.570323,114.855485,-9456.434915
2024.500300,38.285162,114.855485,-9456.434915
2024.500927,133.998066,172.283227,-9418.149754
2024.501555,133.998066,172.283227,-9475.577496
2024.502182,38.285162,172.283227,-9475.577496
2024.502810,153.140646,133.998066,-9456.434915
2024.503437,133.998066,114.855485,-9418.149754
2024.504065,114.855485,133.998066,-9360.722011
2024.504692,76.570323,153.140646,-9418.149754
2024.505320,95.712904,114.855485,-9399.007173
2024.505947,38.285162,153.140646,-9418.149754
2024.506575,76.570323,153.140646,-9418.149754
2024.507202,133.998066,191.425808,-9456.434915
2024.507830,95.712904,95.712904,-9456.434915
2024.508457,76.570323,114.855485,-9437.292334
2024.509085,95.712904,95.712904,-9399.007173
2024.509712,153.140646,172.283227,-9456.434915
2024.510340,133.998066,210.568389,-9418.149754
2024.510967,38.285162,172.283227,-9418.149754
2024.511594,57.427742,153.140646,-9475.577496
2024.512222,95.712904,172.283227,-9360.722011
2024.512849,95.712904,153.140646,-9437.292334
2024.513477,76.570323,153.140646,-9418.149754
2024.514104,38.285162,114.855485,-9418.149754
2024.514732,76.570323,153.140646,-9418.149754
2024.515359,38.285162,153.140646,-9475.577496
2024.515987,95.712904,210.568389,-9437.292334
2024.516614,76.570323,114.855485,-9418.149754
2024.517242,38.285162,172.283227,-9418.149754
2024.517869,133.998066,210.568389,-9418.149754
2024.518497,76.570323,95.712904,-9399.007173
2024.519124,210.568389,133.998066,-9437.292334
2024.519752,76.570323,153.140646,-9418.149754
2024.520379,133.998066,153.140646,-9418.149754
2024.521007,114.855485,153.140646,-9379.864592
2024.521634,133.998066,153.140646,-9456.434915
2024.522262,76.570323,114.855485,-9437.292334
2024.522889,38.285162,229.710970,-9418.149754
2024.523517,95.712904,133.998066,-9322.436850
2024.524144,76.570323,153.140646,-9456.434915
2024.524772,133.998066,210.568389,-9456.434915
2024.525399,76.570323,114.855485,-9418.149754
2024.526027,95.712904,95.712904,-9456.434915
2024.526654,133.998066,153.140646,-9418.149754
2024.527282,133.998066,172.283227,-9437.292334
2024.527909,76.570323,114.855485,-9475.577496
2024.528537,38.285162,153.140646,-9533.005238
2024.529164,38.285162,114.855485,-9418.149754
2024.529792,133.998066,76.570323,-9379.864592
2024.530419,133.998066,153.140646,-9456.434915
2024.531047,133.998066,114.855485,-9437.292334
2024.531674,76.570323,114.855485,-9418.149754
2024.532302,133.998066,114.855485,-9418.149754
2024.532929,95.712904,210.568389,-9418.149754
2024.533557,76.570323,210.568389,-9437.292334
2024.534184,133.998066,114.855485,-9418.149754
2024.534812,172.283227,76.570323,-9418.149754
2024.535439,153.140646,191.425808,-9399.007173
2024.536067,133.998066,114.855485,-9494.720077
2024.536694,133.998066,114.855485,-9418.149754
2024.537322,153.140646,133.998066,-9456.434915
2024.537949,133.998066,133.998066,-9399.007173
2024.538577,133.998066,153.140646,-9456.434915
2024.539204,153.140646,133.998066,-9399.007173
2024.539831,76.570323,114.855485,-9475.577496
2024.540458,133.998066,172.283227,-9418.149754
2024.541085,153.140646,114.855485,-9418.149754
2024.541713,133.998066,114.855485,-9456.434915
2024.542340,38.285162,114.855485,-9418.149754
2024.542967,133.998066,133.998066,-9399.007173
2024.543594,76.570323,153.140646,-9418.149754
2024.544221,95.712904,95.712904,-9437.292334
2024.544849,38.285162,114.855485,-9418.149754
2024.545476,38.285162,114.855485,-9418.149754
2024.546103,133.998066,114.855485,-9418.149754
2024.546730,172.283227,76.570323,-9418.149754
2024.547357,95.712904,95.712904,-9456.434915
2024.547985,153.140646,133.998066,-9456.434915
2024.548612,133.998066,191.425808,-9418.149754
2024.549239,38.285162,114.855485,-9418.149754
2024.549866,38.285162,114.855485,-9418.149754
2024.550494,76.570323,210.568389,-9456.434915
2024.551121,153.140646,133.998066,-9399.007173
2024.551748,95.712904,133.998066,-9360.722011
2024.552375,153.140646,153.140646,-9399.007173
2024.553002,76.570323,210.568389,-9418.149754
2024.553630,38.285162,114.855485,-9418.149754
2024.554257,76.570323,153.140646,-9418.149754
2024.554884,133.998066,229.710970,-9418.149754
2024.555511,76.570323,114.855485,-9437.292334
2024.556138,133.998066,191.425808,-9418.149754
2024.556766,153.140646,133.998066,-9456.434915
2024.557393,133.998066,114.855485,-9437.292334
2024.558020,133.998066,114.855485,-9418.149754
2024.558647,153.140646,133.998066,-9399.007173
2024.559275,133.998066,76.570323,-9379.864592
2024.559902,76.570323,114.855485,-9399.007173
2024.560529,76.570323,114.855485,-9475.577496
2024.561156,76.570323,114.855485,-9418.149754
2024.561783,76.570323,114.855485,-9418.149754
2024.562411,76.570323,114.855485,-9418.149754
2024.563038,38.285162,153.140646,-9418.149754
2024.563665,133.998066,172.283227,-9418.149754
2024.564292,38.285162,229.710970,-9418.149754
2024.564919,76.570323,114.855485,-9418.149754
2024.565547,38.285162,172.283227,-9475.577496
2024.566174,0.000000,133.998066,-9418.149754
2024.566801,38.285162,210.568389,-9418.149754
2024.567428,38.285162,153.140646,-9418.149754
2024.568055,38.285162,153.140646,-9437.292334
2024.568683,133.998066,114.855485,-9418.149754
2024.569310,76.570323,172.283227,-9437.292334
2024.569937,133.998066,210.568389,-9418.149754
2024.570564,133.998066,114.855485,-9437.292334
2024.571192,76.570323,133.998066,-9360.722011
2024.571819,172.283227,133.998066,-9399.007173
2024.572446,172.283227,76.570323,-9418.149754
2024.573073,133.998066,76.570323,-9379.864592
2024.573700,114.855485,133.998066,-9360.722011
2024.574328,38.285162,114.855485,-9456.434915
2024.574955,76.570323,210.568389,-9456.434915
2024.575582,76.570323,114.855485,-9437.292334
2024.576209,76.570323,114.855485,-9456.434915
2024.576836,76.570323,172.283227,-9456.434915
2024.577464,133.998066,114.855485,-9456.434915
2024.578091,133.998066,114.855485,-9437.292334
2024.578718,95.712904,210.568389,-9418.149754
2024.579345,76.570323,172.283227,-9418.149754
2024.579972,95.712904,133.998066,-9360.722011
2024.580600,76.570323,114.855485,-9418.149754
2024.581227,133.998066,172.283227,-9418.149754
2024.581854,133.998066,114.855485,-9418.149754
2024.582481,133.998066,114.855485,-9456.434915
2024.583109,133.998066,114.855485,-9418.149754
2024.583736,133.998066,114.855485,-9456.434915
2024.584363,76.570323,210.568389,-9456.434915
2024.584990,153.140646,114.855485,-9418.149754
2024.585617,248.853550,172.283227,-9399.007173
2024.586245,153.140646,172.283227,-9418.149754
2024.586872,76.570323,191.425808,-9418.149754
2024.587499,19.142581,114.855485,-9418.149754
2024.588126,95.712904,114.855485,-9418.149754
2024.588753,133.998066,114.855485,-9418.149754
2024.589381,133.998066,133.998066,-9494.720077
2024.590008,76.570323,191.425808,-9418.149754
2024.590635,76.570323,114.855485,-9418.149754
2024.591262,95.712904,172.283227,-9418.149754
2024.591889,76.570323,172.283227,-9456.434915
2024.592517,133.998066,172.283227,-9418.149754
2024.593144,133.998066,114.855485,-9475.577496
2024.593771,114.855485,133.998066,-9360.722011
2024.594398,38.285162,153.140646,-9456.434915
2024.595026,38.285162,114.855485,-9418.149754
2024.595653,133.998066,172.283227,-9494.720077
2024.596280,153.140646,172.283227,-9437.292334
2024.596907,153.140646,133.998066,-9399.007173
2024.597534,133.998066,114.855485,-9456.434915
2024.598162,133.998066,114.855485,-9437.292334
2024.598789,114.855485,95.712904,-9456.434915
2024.599416,76.570323,172.283227,-9418.149754
2024.600043,38.285162,172.283227,-9418.149754
2024.600670,153.140646,133.998066,-9399.007173
2024.601298,57.427742,95.712904,-9513.862658
2024.601925,57.427742,172.283227,-9399.007173
2024.602552,76.570323,114.855485,-9418.149754
2024.603179,114.855485,95.712904,-9494.720077
2024.603807,133.998066,172.283227,-9418.149754
2024.604434,114.855485,229.710970,-9399.007173
2024.605061,153.140646,133.998066,-9494.720077
2024.605688,153.140646,114.855485,-9456.434915
2024.606315,76.570323,114.855485,-9456.434915
2024.606943,133.998066,172.283227,-9399.007173
2024.607570,76.570323,153.140646,-9418.149754
2024.608197,133.998066,114.855485,-9418.149754
2024.608824,153.140646,133.998066,-9456.434915
2024.609451,153.140646,133.998066,-9399.007173
2024.610079,133.998066,172.283227,-9418.149754
2024.610706,95.712904,172.283227,-9399.007173
2024.611333,133.998066,191.425808,-9418.149754
2024.611960,133.998066,210.568389,-9475.577496
2024.612587,133.998066,172.283227,-9399.007173
2024.613215,133.998066,114.855485,-9437.292334
2024.613842,76.570323,153.140646,-9437.292334
2024.614469,133.998066,114.855485,-9418.149754
2024.615096,95.712904,153.140646,-9360.722011
2024.615724,38.285162,210.568389,-9418.149754
2024.616351,38.285162,114.855485,-9456.434915
2024.616978,133.998066,114.855485,-9418.149754
2024.617605,114.855485,76.570323,-9418.149754
2024.618232,38.285162,153.140646,-9418.149754
2024.618860,38.285162,153.140646,-9456.434915
2024.619487,133.998066,114.855485,-9456.434915
2024.620114,153.140646,133.998066,-9456.434915
2024.620741,38.285162,114.855485,-9418.149754
2024.621368,133.998066,153.140646,-9418.149754
2024.621996,133.998066,172.283227,-9494.720077
2024.622623,153.140646,133.998066,-9456.434915
2024.623250,133.998066,114.855485,-9437.292334
2024.623877,76.570323,210.568389,-9437.292334
2024.624504,133.998066,153.140646,-9418.149754
2024.625132,133.998066,210.568389,-9437.292334
2024.625759,133.998066,210.568389,-9418.149754
2024.626386,114.855485,153.140646,-9418.149754
2024.627013,38.285162,114.855485,-9418.149754
2024.627641,95.712904,95.712904,-9399.007173
2024.628268,133.998066,114.855485,-9418.149754
2024.628895,95.712904,114.855485,-9418.149754
2024.629522,133.998066,114.855485,-9418.149754
2024.630149,76.570323,114.855485,-9418.149754
2024.630777,38.285162,114.855485,-9418.149754
2024.631404,76.570323,114.855485,-9418.149754
2024.632031,38.285162,153.140646,-9418.149754
2024.632658,114.855485,95.712904,-9399.007173
2024.633285,133.998066,172.283227,-9399.007173
2024.633913,76.570323,114.855485,-9418.149754
2024.634540,133.998066,114.855485,-9418.149754
2024.635167,76.570323,153.140646,-9494.720077
2024.635795,76.570323,172.283227,-9475.577496
2024.636422,76.570323,114.855485,-9418.149754
2024.637049,76.570323,210.568389,-9437.292334
2024.637677,133.998066,172.283227,-9418.149754
2024.638304,153.140646,133.998066,-9399.007173
2024.638931,76.570323,114.855485,-9418.149754
2024.639558,38.285162,210.568389,-9418.149754
2024.640186,57.427742,172.283227,-9418.149754
2024.640813,133.998066,114.855485,-9456.434915
2024.641440,133.998066,114.855485,-9418.149754
2024.642068,133.998066,133.998066,-9456.434915
2024.642695,76.570323,172.283227,-9456.434915
2024.643322,76.570323,191.425808,-9437.292334
2024.643950,76.570323,172.283227,-9418.149754
2024.644577,38.285162,210.568389,-9418.149754
2024.645204,76.570323,114.855485,-9418.149754
2024.645832,76.570323,114.855485,-9456.434915
2024.646459,57.427742,172.283227,-9418.149754
2024.647086,38.285162,210.568389,-9437.292334
2024.647713,133.998066,114.855485,-9418.149754
2024.648341,133.998066,172.283227,-9418.149754
2024.648968,76.570323,114.855485,-9418.149754
2024.649595,133.998066,153.140646,-9456.434915
2024.650223,76.570323,114.855485,-9418.149754
2024.650850,114.855485,133.998066,-9360.722011
2024.651477,133.998066,95.712904,-9418.149754
2024.652105,133.998066,114.855485,-9418.149754
2024.652732,57.427742,172.283227,-9399.007173
2024.653359,38.285162,114.855485,-9418.149754
2024.653987,76.570323,114.855485,-9437.292334
2024.654614,133.998066,114.855485,-9456.434915
2024.655241,172.283227,95.712904,-9399.007173
2024.655868,76.570323,229.710970,-9418.149754
2024.656496,95.712904,210.568389,-9418.149754
2024.657123,133.998066,172.283227,-9456.434915
2024.657750,133.998066,114.855485,-9456.434915
2024.658378,76.570323,114.855485,-9418.149754
2024.659005,19.142581,172.283227,-9399.007173
2024.659632,153.140646,248.853550,-9399.007173
2024.660260,76.570323,114.855485,-9456.434915
2024.660887,95.712904,95.712904,-9399.007173
2024.661514,38.285162,114.855485,-9437.292334
2024.662142,133.998066,114.855485,-9418.149754
2024.662769,76.570323,172.283227,-9437.292334
2024.663396,76.570323,153.140646,-9418.149754
2024.664023,153.140646,172.283227,-9437.292334
2024.664651,76.570323,114.855485,-9475.577496
2024.665278,76.570323,95.712904,-9399.007173
2024.665905,133.998066,153.140646,-9437.292334
2024.666533,76.570323,172.283227,-9418.149754
2024.667160,76.570323,153.140646,-9418.149754
2024.667787,76.570323,153.140646,-9456.434915
2024.668415,133.998066,210.568389,-9418.149754
2024.669042,133.998066,114.855485,-9418.149754
2024.669669,133.998066,153.140646,-9437.292334
2024.670297,95.712904,133.998066,-9360.722011
2024.670924,76.570323,114.855485,-9418.149754
2024.671551,38.285162,114.855485,-9418.149754
2024.672178,76.570323,114.855485,-9418.149754
2024.672806,133.998066,114.855485,-9437.292334
2024.673433,114.855485,191.425808,-9360.722011
2024.674060,76.570323,172.283227,-9418.149754
2024.674688,95.712904,95.712904,-9399.007173
2024.675315,133.998066,114.855485,-9418.149754
2024.675942,114.855485,133.998066,-9360.722011
2024.676570,76.570323,153.140646,-9418.149754
2024.677197,76.570323,114.855485,-9437.292334
2024.677824,95.712904,153.140646,-9418.149754
2024.678452,76.570323,114.855485,-9418.149754
2024.679079,38.285162,114.855485,-9418.149754
2024.679706,76.570323,172.283227,-9418.149754
2024.680333,210.568389,133.998066,-9399.007173
2024.680961,95.712904,172.283227,-9360.722011
2024.681588,76.570323,114.855485,-9418.149754
2024.682215,38.285162,114.855485,-9418.149754
2024.682843,76.570323,114.855485,-9418.149754
2024.683470,114.855485,114.855485,-9379.864592
2024.684097,76.570323,153.140646,-9418.149754
2024.684725,76.570323,114.855485,-9418.149754
2024.685352,133.998066,153.140646,-9360.722011
2024.685979,76.570323,153.140646,-9418.149754
2024.686607,133.998066,172.283227,-9437.292334
2024.687234,133.998066,172.283227,-9418.149754
2024.687861,153.140646,133.998066,-9399.007173
2024.688488,76.570323,191.425808,-9475.577496
2024.689116,95.712904,114.855485,-9418.149754
2024.689743,19.142581,153.140646,-9437.292334
2024.690370,38.285162,153.140646,-9418.149754
2024.690998,76.570323,133.998066,-9360.722011
2024.691625,133.998066,172.283227,-9418.149754
2024.692252,133.998066,172.283227,-9418.149754
2024.692880,133.998066,114.855485,-9437.292334
2024.693507,38.285162,114.855485,-9418.149754
2024.694134,76.570323,133.998066,-9533.005238
2024.694762,114.855485,95.712904,-9399.007173
2024.695389,57.427742,95.712904,-9437.292334
2024.696016,76.570323,114.855485,-9399.007173
2024.696643,133.998066,153.140646,-9418.149754
2024.697271,38.285162,153.140646,-9418.149754
2024.697898,76.570323,114.855485,-9418.149754
2024.698525,38.285162,133.998066,-9379.864592
2024.699153,76.570323,153.140646,-9437.292334
2024.699780,114.855485,133.998066,-9360.722011
2024.700407,114.855485,210.568389,-9360.722011
2024.701035,76.570323,153.140646,-9456.434915
2024.701662,76.570323,172.283227,-9418.149754
2024.702289,57.427742,172.283227,-9418.149754
2024.702917,76.570323,114.855485,-9475.577496
2024.703544,76.570323,114.855485,-9418.149754
2024.704171,95.712904,153.140646,-9418.149754
2024.704798,38.285162,153.140646,-9437.292334
2024.705426,76.570323,153.140646,-9437.292334
2024.706053,95.712904,95.712904,-9475.577496
2024.706680,76.570323,172.283227,-9418.149754
2024.707308,76.570323,114.855485,-9475.577496
2024.707935,76.570323,153.140646,-9418.149754
2024.708562,133.998066,114.855485,-9475.577496
2024.709190,133.998066,114.855485,-9418.149754
2024.709817,76.570323,114.855485,-9456.434915
2024.710444,133.998066,172.283227,-9418.149754
2024.711072,153.140646,153.140646,-9456.434915
2024.711699,133.998066,114.855485,-9418.149754
2024.712326,133.998066,210.568389,-9418.149754
2024.712953,114.855485,133.998066,-9360.722011
2024.713581,76.570323,114.855485,-9494.720077
2024.714208,133.998066,172.283227,-9437.292334
2024.714835,153.140646,210.568389,-9399.007173
2024.715463,76.570323,172.283227,-9456.434915
2024.716090,133.998066,191.425808,-9418.149754
2024.716717,153.140646,114.855485,-9418.149754
2024.717345,76.570323,172.283227,-9418.149754
2024.717972,133.998066,153.140646,-9437.292334
2024.718599,38.285162,153.140646,-9418.149754
2024.719227,38.285162,114.855485,-9437.292334
2024.719854,114.855485,172.283227,-9360.722011
2024.720481,95.712904,114.855485,-9418.149754
2024.721108,38.285162,229.710970,-9418.149754
2024.721736,133.998066,229.710970,-9418.149754
2024.722363,133.998066,114.855485,-9418.149754
2024.722990,76.570323,114.855485,-9418.149754
2024.723618,38.285162,114.855485,-9494.720077
2024.724245,133.998066,172.283227,-9418.149754
2024.724872,95.712904,133.998066,-9475.577496
2024.725500,76.570323,114.855485,-9418.149754
2024.726127,38.285162,153.140646,-9360.722011
2024.726754,38.285162,153.140646,-9418.149754
2024.727382,95.712904,114.855485,-9418.149754
2024.728009,76.570323,172.283227,-9418.149754
2024.728636,95.712904,114.855485,-9418.149754
2024.729263,95.712904,76.570323,-9379.864592
2024.729891,133.998066,114.855485,-9418.149754
2024.730518,76.570323,153.140646,-9418.149754
2024.731145,153.140646,191.425808,-9399.007173
2024.731773,133.998066,114.855485,-9418.149754
2024.732400,133.998066,191.425808,-9418.149754
2024.733027,95.712904,114.855485,-9418.149754
2024.733655,57.427742,95.712904,-9399.007173
2024.734282,114.855485,95.712904,-9456.434915
2024.734909,133.998066,172.283227,-9437.292334
2024.735537,76.570323,114.855485,-9418.149754
2024.736164,57.427742,133.998066,-9475.577496
2024.736791,38.285162,210.568389,-9418.149754
2024.737418,133.998066,210.568389,-9437.292334
2024.738046,133.998066,172.283227,-9456.434915
2024.738673,133.998066,210.568389,-9437.292334
2024.739300,133.998066,172.283227,-9456.434915
2024.739928,76.570323,114.855485,-9437.292334
2024.740555,76.570323,153.140646,-9418.149754
2024.741182,114.855485,95.712904,-9399.007173
2024.741810,133.998066,76.570323,-9379.864592
2024.742437,76.570323,153.140646,-9418.149754
2024.743065,57.427742,172.283227,-9456.434915
2024.743692,133.998066,153.140646,-9475.577496
2024.744319,76.570323,114.855485,-9475.577496
2024.744947,76.570323,172.283227,-9418.149754
2024.745574,76.570323,114.855485,-9418.149754
2024.746201,95.712904,114.855485,-9399.007173
2024.746829,133.998066,114.855485,-9437.292334
2024.747456,76.570323,114.855485,-9418.149754
2024.748083,57.427742,114.855485,-9399.007173
2024.748711,95.712904,172.283227,-9418.149754
2024.749338,95.712904,172.283227,-9360.722011
2024.749966,76.570323,153.140646,-9418.149754
2024.750593,76.570323,114.855485,-9418.149754
2024.751220,76.570323,114.855485,-9418.149754
2024.751848,133.998066,114.855485,-9418.149754
2024.752475,76.570323,114.855485,-9437.292334
2024.753102,95.712904,133.998066,-9360.722011
2024.753730,76.570323,76.570323,-9399.007173
2024.754357,95.712904,95.712904,-9399.007173
2024.754984,76.570323,114.855485,-9418.149754
2024.755612,95.712904,133.998066,-9360.722011
2024.756239,133.998066,114.855485,-9437.292334
2024.756867,95.712904,95.712904,-9399.007173
2024.757494,133.998066,210.568389,-9437.292334
2024.758121,133.998066,114.855485,-9456.434915
2024.758749,133.998066,153.140646,-9437.292334
2024.759376,133.998066,114.855485,-9475.577496
2024.760003,76.570323,114.855485,-9418.149754
2024.760631,95.712904,153.140646,-9456.434915
2024.761258,95.712904,114.855485,-9418.149754
2024.761885,95.712904,153.140646,-9418.149754
2024.762513,95.712904,95.712904,-9437.292334
2024.763140,38.285162,114.855485,-9418.149754
2024.763767,76.570323,114.855485,-9418.149754
2024.764395,133.998066,114.855485,-9456.434915
2024.765022,133.998066,114.855485,-9418.149754
2024.765650,133.998066,153.140646,-9418.149754
2024.766277,133.998066,114.855485,-9418.149754
2024.766904,76.570323,114.855485,-9418.149754
2024.767532,57.427742,95.712904,-9399.007173
2024.768159,38.285162,114.855485,-9418.149754
2024.768786,19.142581,172.283227,-9456.434915
2024.769414,76.570323,114.855485,-9437.292334
2024.770041,95.712904,95.712904,-9437.292334
2024.770668,95.712904,114.855485,-9399.007173
2024.771296,38.285162,153.140646,-9418.149754
2024.771923,76.570323,153.140646,-9456.434915
2024.772551,133.998066,114.855485,-9418.149754
2024.773178,114.855485,133.998066,-9360.722011
2024.773805,114.855485,191.425808,-9418.149754
2024.774433,76.570323,114.855485,-9418.149754
2024.775060,76.570323,114.855485,-9418.149754
2024.775687,76.570323,114.855485,-9418.149754
2024.776315,133.998066,114.855485,-9418.149754
2024.776942,76.570323,114.855485,-9418.149754
2024.777569,153.140646,172.283227,-9456.434915
2024.778197,95.712904,133.998066,-9360.722011
2024.778824,153.140646,133.998066,-9456.434915
2024.779451,76.570323,191.425808,-9494.720077
2024.780079,76.570323,114.855485,-9360.722011
2024.780706,95.712904,133.998066,-9360.722011
2024.781334,133.998066,114.855485,-9437.292334
2024.781961,76.570323,229.710970,-9418.149754
2024.782588,153.140646,133.998066,-9456.434915
2024.783216,133.998066,114.855485,-9437.292334
2024.783843,76.570323,114.855485,-9456.434915
2024.784470,57.427742,114.855485,-9418.149754
2024.785098,38.285162,114.855485,-9418.149754
2024.785725,76.570323,114.855485,-9360.722011
2024.786352,76.570323,172.283227,-9418.149754
2024.786980,57.427742,172.283227,-9418.149754
2024.787607,76.570323,172.283227,-9475.577496
2024.788235,76.570323,172.283227,-9437.292334
2024.788862,133.998066,114.855485,-9456.434915
2024.789489,38.285162,114.855485,-9418.149754
2024.790117,172.283227,172.283227,-9399.007173
2024.790744,133.998066,114.855485,-9418.149754
2024.791371,95.712904,95.712904,-9494.720077
2024.791999,95.712904,95.712904,-9399.007173
2024.792626,76.570323,114.855485,-9418.149754
2024.793253,114.855485,114.855485,-9418.149754
2024.793881,95.712904,172.283227,-9418.149754
2024.794508,76.570323,114.855485,-9418.149754
2024.795135,76.570323,114.855485,-9418.149754
2024.795763,57.427742,114.855485,-9399.007173
2024.796390,76.570323,114.855485,-9437.292334
2024.797018,95.712904,114.855485,-9418.149754
2024.797645,133.998066,114.855485,-9418.149754
2024.798272,57.427742,95.712904,-9456.434915
2024.798900,133.998066,114.855485,-9418.149754
2024.799527,19.142581,114.855485,-9418.149754
2024.800154,133.998066,172.283227,-9437.292334
2024.800782,76.570323,153.140646,-9437.292334
2024.801409,76.570323,114.855485,-9418.149754
2024.802036,95.712904,153.140646,-9418.149754
2024.802664,57.427742,133.998066,-9360.722011
2024.803291,153.140646,133.998066,-9399.007173
2024.803919,133.998066,133.998066,-9399.007173
2024.804546,95.712904,153.140646,-9418.149754
2024.805173,133.998066,114.855485,-9418.149754
2024.805801,133.998066,133.998066,-9437.292334
2024.806428,76.570323,210.568389,-9418.149754
2024.807055,95.712904,191.425808,-9418.149754
2024.807683,38.285162,153.140646,-9418.149754
2024.808310,76.570323,153.140646,-9418.149754
2024.808937,133.998066,172.283227,-9418.149754
2024.809565,76.570323,114.855485,-9456.434915
2024.810192,133.998066,133.998066,-9399.007173
2024.810819,76.570323,153.140646,-9418.149754
2024.811447,76.570323,114.855485,-9418.149754
2024.812074,133.998066,172.283227,-9418.149754
2024.812702,38.285162,114.855485,-9418.149754
2024.813329,76.570323,114.855485,-9437.292334
2024.813956,133.998066,114.855485,-9418.149754
2024.814584,76.570323,114.855485,-9456.434915
2024.815211,133.998066,133.998066,-9399.007173
2024.815838,114.855485,133.998066,-9437.292334
2024.816466,76.570323,95.712904,-9456.434915
2024.817093,38.285162,172.283227,-9418.149754
2024.817720,38.285162,153.140646,-9437.292334
2024.818348,114.855485,95.712904,-9399.007173
2024.818975,153.140646,133.998066,-9399.007173
2024.819603,38.285162,114.855485,-9418.149754
2024.820230,38.285162,114.855485,-9437.292334
2024.820857,114.855485,133.998066,-9437.292334
2024.821485,133.998066,114.855485,-9418.149754
2024.822112,76.570323,114.855485,-9418.149754
2024.822739,95.712904,114.855485,-9437.292334
2024.823367,38.285162,114.855485,-9418.149754
2024.823994,133.998066,114.855485,-9418.149754
2024.824621,133.998066,153.140646,-9379.864592
2024.825249,133.998066,191.425808,-9399.007173
2024.825876,76.570323,114.855485,-9418.149754
2024.826504,133.998066,114.855485,-9456.434915
2024.827131,114.855485,95.712904,-9399.007173
2024.827758,95.712904,114.855485,-9418.149754
2024.828386,76.570323,114.855485,-9437.292334
2024.829013,95.712904,153.140646,-9360.722011
2024.829640,133.998066,114.855485,-9418.149754
2024.830268,133.998066,114.855485,-9418.149754
2024.830895,0.000000,153.140646,-9360.722011
2024.831522,76.570323,210.568389,-9418.149754
2024.832150,133.998066,153.140646,-9437.292334
2024.832777,38.285162,114.855485,-9418.149754
2024.833404,95.712904,114.855485,-9437.292334
2024.834032,133.998066,153.140646,-9360.722011
2024.834659,133.998066,114.855485,-9418.149754
2024.835287,133.998066,114.855485,-9418.149754
2024.835914,76.570323,114.855485,-9437.292334
2024.836541,76.570323,114.855485,-9418.149754
2024.837169,38.285162,210.568389,-9437.292334
2024.837796,38.285162,172.283227,-9418.149754
2024.838423,133.998066,191.425808,-9418.149754
2024.839051,95.712904,133.998066,-9360.722011
2024.839678,76.570323,267.996131,-9379.864592
2024.840305,133.998066,172.283227,-9437.292334
2024.840932,76.570323,114.855485,-9418.149754
2024.841560,114.855485,95.712904,-9399.007173
2024.842187,76.570323,114.855485,-9418.149754
2024.842814,133.998066,114.855485,-9418.149754
2024.843441,133.998066,114.855485,-9475.577496
2024.844069,95.712904,133.998066,-9360.722011
2024.844696,76.570323,153.140646,-9418.149754
2024.845323,153.140646,133.998066,-9399.007173
2024.845950,133.998066,114.855485,-9475.577496
2024.846577,76.570323,172.283227,-9418.149754
2024.847205,133.998066,114.855485,-9437.292334
2024.847832,133.998066,229.710970,-9437.292334
2024.848459,133.998066,114.855485,-9475.577496
2024.849086,76.570323,114.855485,-9456.434915
2024.849713,76.570323,114.855485,-9418.149754
2024.850341,95.712904,191.425808,-9360.722011
2024.850968,76.570323,114.855485,-9418.149754
2024.851595,76.570323,114.855485,-9456.434915
2024.852222,76.570323,114.855485,-9418.149754
2024.852850,153.140646,133.998066,-9494.720077
2024.853477,76.570323,114.855485,-9456.434915
2024.854104,76.570323,172.283227,-9494.720077
2024.854731,76.570323,172.283227,-9456.434915
2024.855358,38.285162,172.283227,-9418.149754
2024.855986,95.712904,133.998066,-9360.722011
2024.856613,76.570323,210.568389,-9418.149754
2024.857240,133.998066,153.140646,-9437.292334
2024.857867,153.140646,133.998066,-9456.434915
2024.858494,210.568389,133.998066,-9456.434915
2024.859122,76.570323,172.283227,-9437.292334
2024.859749,76.570323,153.140646,-9437.292334
2024.860376,95.712904,95.712904,-9494.720077
2024.861003,76.570323,114.855485,-9475.577496
2024.861630,114.855485,133.998066,-9475.577496
2024.862258,133.998066,114.855485,-9418.149754
2024.862885,133.998066,172.283227,-9437.292334
2024.863512,133.998066,172.283227,-9418.149754
2024.864139,95.712904,133.998066,-9360.722011
2024.864767,76.570323,114.855485,-9437.292334
2024.865394,76.570323,114.855485,-9437.292334
2024.866021,76.570323,114.855485,-9456.434915
2024.866648,153.140646,153.140646,-9399.007173
2024.867275,38.285162,172.283227,-9418.149754
2024.867903,76.570323,210.568389,-9418.149754
2024.868530,76.570323,114.855485,-9418.149754
2024.869157,133.998066,172.283227,-9418.149754
2024.869784,133.998066,153.140646,-9418.149754
2024.870411,172.283227,76.570323,-9418.149754
2024.871039,153.140646,172.283227,-9399.007173
2024.871666,133.998066,114.855485,-9418.149754
2024.872293,133.998066,114.855485,-9418.149754
2024.872920,95.712904,95.712904,-9399.007173
2024.873548,114.855485,172.283227,-9322.436850
2024.874175,95.712904,172.283227,-9418.149754
2024.874802,133.998066,114.855485,-9418.149754
2024.875429,38.285162,114.855485,-9418.149754
2024.876056,133.998066,114.855485,-9437.292334
2024.876684,133.998066,114.855485,-9418.149754
2024.877311,76.570323,210.568389,-9418.149754
2024.877938,95.712904,153.140646,-9418.149754
2024.878565,76.570323,114.855485,-9437.292334
2024.879192,76.570323,114.855485,-9437.292334
2024.879820,133.998066,191.425808,-9399.007173
2024.880447,133.998066,210.568389,-9437.292334
2024.881074,38.285162,172.283227,-9418.149754
2024.881701,76.570323,114.855485,-9437.292334
2024.882329,76.570323,210.568389,-9437.292334
2024.882956,133.998066,210.568389,-9437.292334
2024.883583,133.998066,153.140646,-9418.149754
2024.884210,76.570323,153.140646,-9418.149754
2024.884837,95.712904,114.855485,-9418.149754
2024.885465,153.140646,153.140646,-9456.434915
2024.886092,133.998066,172.283227,-9437.292334
2024.886719,76.570323,210.568389,-9418.149754
2024.887346,76.570323,114.855485,-9456.434915
2024.887973,133.998066,114.855485,-9418.149754
2024.888601,76.570323,114.855485,-9437.292334
2024.889228,38.285162,114.855485,-9456.434915
2024.889855,95.712904,95.712904,-9456.434915
2024.890482,76.570323,114.855485,-9418.149754
2024.891110,95.712904,114.855485,-9475.577496
2024.891737,133.998066,114.855485,-9418.149754
2024.892364,76.570323,114.855485,-9475.577496
2024.892991,95.712904,172.283227,-9360.722011
2024.893618,153.140646,153.140646,-9456.434915
2024.894246,133.998066,210.568389,-9418.149754
2024.894873,95.712904,114.855485,-9456.434915
2024.895500,95.712904,95.712904,-9494.720077
2024.896127,133.998066,153.140646,-9418.149754
2024.896754,114.855485,210.568389,-9456.434915
2024.897382,95.712904,95.712904,-9437.292334
2024.898009,133.998066,153.140646,-9475.577496
2024.898636,95.712904,114.855485,-9475.577496
2024.899263,76.570323,210.568389,-9418.149754
2024.899890,133.998066,172.283227,-9399.007173
2024.900518,38.285162,114.855485,-9475.577496
2024.901145,76.570323,114.855485,-9418.149754
2024.901772,95.712904,172.283227,-9418.149754
2024.902399,133.998066,210.568389,-9418.149754
2024.903027,95.712904,248.853550,-9418.149754
2024.903654,76.570323,114.855485,-9418.149754
2024.904281,133.998066,153.140646,-9418.149754
2024.904908,133.998066,114.855485,-9418.149754
2024.905535,95.712904,114.855485,-9399.007173
2024.906163,133.998066,153.140646,-9437.292334
2024.906790,133.998066,114.855485,-9437.292334
2024.907417,133.998066,114.855485,-9418.149754
2024.908044,76.570323,172.283227,-9456.434915
2024.908671,38.285162,210.568389,-9437.292334
2024.909299,76.570323,153.140646,-9437.292334
2024.909926,133.998066,210.568389,-9418.149754
2024.910553,153.140646,191.425808,-9399.007173
2024.911180,95.712904,191.425808,-9360.722011
2024.911808,153.140646,133.998066,-9399.007173
2024.912435,76.570323,153.140646,-9418.149754
2024.913062,76.570323,172.283227,-9418.149754
2024.913689,76.570323,114.855485,-9475.577496
2024.914316,95.712904,114.855485,-9437.292334
2024.914944,76.570323,114.855485,-9418.149754
2024.915571,76.570323,172.283227,-9456.434915
2024.916198,76.570323,114.855485,-9418.149754
2024.916825,95.712904,76.570323,-9379.864592
2024.917452,76.570323,114.855485,-9418.149754
2024.918080,76.570323,153.140646,-9456.434915
2024.918707,95.712904,172.283227,-9456.434915
2024.919334,38.285162,114.855485,-9437.292334
2024.919961,133.998066,114.855485,-9418.149754
2024.920589,76.570323,114.855485,-9437.292334
2024.921216,76.570323,114.855485,-9418.149754
2024.921843,38.285162,172.283227,-9418.149754
2024.922470,76.570323,114.855485,-9418.149754
2024.923097,133.998066,114.855485,-9418.149754
2024.923725,95.712904,114.855485,-9456.434915
2024.924352,114.855485,95.712904,-9399.007173
2024.924979,133.998066,210.568389,-9437.292334
2024.925606,38.285162,172.283227,-9494.720077
2024.926233,133.998066,172.283227,-9418.149754
2024.926861,76.570323,153.140646,-9418.149754
2024.927488,133.998066,114.855485,-9456.434915
2024.928115,76.570323,172.283227,-9475.577496
2024.928742,76.570323,210.568389,-9456.434915
2024.929369,76.570323,114.855485,-9437.292334
2024.929997,114.855485,95.712904,-9456.434915
2024.930624,38.285162,114.855485,-9418.149754
2024.931251,95.712904,114.855485,-9456.434915
2024.931878,133.998066,114.855485,-9418.149754
2024.932506,38.285162,210.568389,-9418.149754
2024.933133,76.570323,172.283227,-9418.149754
2024.933760,76.570323,114.855485,-9456.434915
2024.934387,76.570323,114.855485,-9418.149754
2024.935014,133.998066,210.568389,-9456.434915
2024.935642,133.998066,191.425808,-9399.007173
2024.936269,153.140646,114.855485,-9418.149754
2024.936896,76.570323,114.855485,-9456.434915
2024.937523,133.998066,114.855485,-9418.149754
2024.938150,38.285162,153.140646,-9437.292334
2024.938778,133.998066,114.855485,-9418.149754
2024.939405,76.570323,114.855485,-9437.292334
2024.940032,38.285162,114.855485,-9418.149754
2024.940660,76.570323,153.140646,-9418.149754
2024.941287,133.998066,114.855485,-9437.292334
2024.941915,76.570323,114.855485,-9456.434915
2024.942542,76.570323,172.283227,-9456.434915
2024.943170,76.570323,114.855485,-9418.149754
2024.943797,57.427742,95.712904,-9399.007173
2024.944425,133.998066,114.855485,-9418.149754
2024.945052,76.570323,95.712904,-9456.434915
2024.945680,95.712904,95.712904,-9399.007173
2024.946308,38.285162,210.568389,-9418.149754
2024.946935,133.998066,114.855485,-9437.292334
2024.947563,133.998066,114.855485,-9475.577496
2024.948190,76.570323,153.140646,-9494.720077
2024.948818,76.570323,191.425808,-9456.434915
2024.949445,95.712904,114.855485,-9418.149754
2024.950073,38.285162,172.283227,-9456.434915
2024.950700,133.998066,114.855485,-9418.149754
2024.951328,76.570323,114.855485,-9456.434915
2024.951955,133.998066,114.855485,-9418.149754
2024.952583,38.285162,114.855485,-9418.149754
2024.953210,133.998066,133.998066,-9399.007173
2024.953838,76.570323,95.712904,-9399.007173
2024.954466,76.570323,153.140646,-9418.149754
2024.955093,76.570323,114.855485,-9475.577496
2024.955721,38.285162,210.568389,-9418.149754
2024.956348,133.998066,133.998066,-9399.007173
2024.956976,57.427742,95.712904,-9399.007173
2024.957603,76.570323,114.855485,-9475.577496
2024.958231,76.570323,114.855485,-9418.149754
2024.958858,76.570323,114.855485,-9456.434915
2024.959486,76.570323,114.855485,-9475.577496
2024.960113,133.998066,191.425808,-9456.434915
2024.960741,76.570323,114.855485,-9418.149754
2024.961368,133.998066,114.855485,-9418.149754
2024.961996,133.998066,153.140646,-9418.149754
2024.962624,172.283227,76.570323,-9418.149754
2024.963251,133.998066,76.570323,-9379.864592
2024.963879,153.140646,210.568389,-9399.007173
2024.964506,76.570323,114.855485,-9418.149754
2024.965134,133.998066,114.855485,-9418.149754
2024.965761,133.998066,191.425808,-9418.149754
2024.966389,76.570323,210.568389,-9418.149754
2024.967016,210.568389,153.140646,-9399.007173
2024.967644,95.712904,95.712904,-9399.007173
2024.968271,38.285162,114.855485,-9418.149754
2024.968899,133.998066,114.855485,-9418.149754
2024.969527,95.712904,153.140646,-9360.722011
2024.970154,57.427742,172.283227,-9399.007173
2024.970782,76.570323,133.998066,-9360.722011
2024.971409,95.712904,95.712904,-9456.434915
2024.972037,38.285162,114.855485,-9418.149754
2024.972664,133.998066,114.855485,-9456.434915
2024.973292,133.998066,248.853550,-9399.007173
2024.973919,133.998066,210.568389,-9418.149754
2024.974547,133.998066,229.710970,-9418.149754
2024.975174,38.285162,210.568389,-9418.149754
2024.975802,76.570323,191.425808,-9418.149754
2024.976429,133.998066,153.140646,-9456.434915
2024.977057,76.570323,172.283227,-9418.149754
2024.977685,95.712904,95.712904,-9399.007173
2024.978312,76.570323,114.855485,-9437.292334
2024.978940,57.427742,95.712904,-9379.864592
2024.979567,95.712904,95.712904,-9399.007173
2024.980195,133.998066,114.855485,-9418.149754
2024.980822,133.998066,114.855485,-9418.149754
2024.981450,153.140646,248.853550,-9399.007173
2024.982077,133.998066,210.568389,-9437.292334
2024.982705,133.998066,133.998066,-9437.292334
2024.983332,133.998066,114.855485,-9418.149754
2024.983960,172.283227,76.570323,-9418.149754
2024.984587,76.570323,114.855485,-9418.149754
2024.985215,133.998066,114.855485,-9437.292334
2024.985843,114.855485,133.998066,-9360.722011
2024.986470,76.570323,210.568389,-9456.434915
2024.987098,76.570323,114.855485,-9418.149754
2024.987725,133.998066,114.855485,-9418.149754
2024.988353,133.998066,153.140646,-9437.292334
2024.988980,133.998066,114.855485,-9418.149754
2024.989608,133.998066,133.998066,-9399.007173
2024.990235,133.998066,153.140646,-9475.577496
2024.990863,95.712904,153.140646,-9475.577496
2024.991490,133.998066,133.998066,-9399.007173
2024.992118,133.998066,172.283227,-9475.577496
2024.992746,133.998066,210.568389,-9456.434915
2024.993373,76.570323,114.855485,-9418.149754
2024.994001,76.570323,153.140646,-9418.149754
