#time,accel_x,accel_y,accel_z
624.380644,76.570323,191.425808,-9360.722011
624.381272,76.570323,191.425808,-9437.292334
624.381900,76.570323,172.283227,-9437.292334
624.382528,133.998066,153.140646,-9475.577496
624.383156,95.712904,133.998066,-9360.722011
624.383784,76.570323,114.855485,-9418.149754
624.384412,133.998066,114.855485,-9418.149754
624.385039,114.855485,133.998066,-9360.722011
624.385667,76.570323,172.283227,-9456.434915
624.386295,76.570323,153.140646,-9456.434915
624.386923,76.570323,191.425808,-9418.149754
624.387551,133.998066,153.140646,-9418.149754
624.388179,133.998066,114.855485,-9418.149754
624.388807,95.712904,95.712904,-9399.007173
624.389434,172.283227,172.283227,-9379.864592
624.390062,153.140646,133.998066,-9399.007173
624.390690,133.998066,172.283227,-9475.577496
624.391318,172.283227,114.855485,-9379.864592
624.391946,133.998066,114.855485,-9418.149754
624.392574,153.140646,133.998066,-9437.292334
624.393202,153.140646,172.283227,-9399.007173
624.393829,153.140646,133.998066,-9399.007173
624.394457,57.427742,114.855485,-9418.149754
624.395085,95.712904,95.712904,-9399.007173
624.395713,76.570323,153.140646,-9494.720077
624.396341,95.712904,172.283227,-9360.722011
624.396969,95.712904,114.855485,-9418.149754
624.397597,38.285162,114.855485,-9418.149754
624.398224,133.998066,114.855485,-9418.149754
624.398852,57.427742,153.140646,-9418.149754
624.399480,133.998066,114.855485,-9418.149754
624.400108,76.570323,114.855485,-9418.149754
624.400736,95.712904,114.855485,-9418.149754
624.401364,76.570323,153.140646,-9418.149754
624.401991,38.285162,114.855485,-9418.149754
624.402619,133.998066,114.855485,-9418.149754
624.403247,114.855485,76.570323,-9418.149754
624.403875,133.998066,153.140646,-9418.149754
624.404503,76.570323,191.425808,-9418.149754
624.405131,114.855485,172.283227,-9418.149754
624.405759,76.570323,114.855485,-9418.149754
624.406386,133.998066,114.855485,-9418.149754
624.407014,95.712904,133.998066,-9418.149754
624.407642,76.570323,95.712904,-9399.007173
624.408270,38.285162,210.568389,-9418.149754
624.408898,76.570323,153.140646,-9456.434915
624.409526,133.998066,114.855485,-9418.149754
624.410154,76.570323,114.855485,-9418.149754
624.410781,76.570323,114.855485,-9418.149754
624.411409,114.855485,133.998066,-9360.722011
624.412037,95.712904,133.998066,-9360.722011
624.412665,153.140646,133.998066,-9399.007173
624.413293,76.570323,153.140646,-9418.149754
624.413921,133.998066,114.855485,-9418.149754
624.414549,76.570323,153.140646,-9418.149754
624.415176,133.998066,114.855485,-9437.292334
624.415804,114.855485,153.140646,-9360.722011
624.416432,76.570323,153.140646,-9456.434915
624.417060,133.998066,153.140646,-9418.149754
624.417688,76.570323,210.568389,-9418.149754
624.418316,76.570323,114.855485,-9418.149754
624.418944,38.285162,114.855485,-9418.149754
624.419571,95.712904,114.855485,-9418.149754
624.420199,114.855485,133.998066,-9360.722011
624.420827,57.427742,153.140646,-9418.149754
624.421455,76.570323,114.855485,-9418.149754
624.422083,76.570323,133.998066,-9456.434915
624.422711,133.998066,153.140646,-9418.149754
624.423338,95.712904,172.283227,-9360.722011
624.423966,76.570323,114.855485,-9399.007173
624.424594,114.855485,114.855485,-9379.864592
624.425222,133.998066,114.855485,-9418.149754
624.425850,191.425808,133.998066,-9456.434915
624.426478,133.998066,114.855485,-9418.149754
624.427106,76.570323,172.283227,-9418.149754
624.427733,133.998066,172.283227,-9418.149754
624.428361,76.570323,114.855485,-9456.434915
624.428989,133.998066,114.855485,-9456.434915
624.429617,133.998066,114.855485,-9437.292334
624.430245,76.570323,114.855485,-9418.149754
624.430873,153.140646,133.998066,-9399.007173
624.431501,76.570323,114.855485,-9418.149754
624.432128,133.998066,172.283227,-9418.149754
624.432756,114.855485,133.998066,-9360.722011
624.433384,76.570323,114.855485,-9418.149754
624.434012,76.570323,191.425808,-9418.149754
624.434640,133.998066,172.283227,-9418.149754
624.435268,114.855485,172.283227,-9360.722011
624.435897,153.140646,133.998066,-9456.434915
624.436525,172.283227,76.570323,-9418.149754
624.437153,114.855485,95.712904,-9494.720077
624.437781,76.570323,114.855485,-9418.149754
624.438409,19.142581,114.855485,-9437.292334
624.439037,57.427742,95.712904,-9399.007173
624.439665,76.570323,172.283227,-9418.149754
624.440293,76.570323,153.140646,-9418.149754
624.440921,133.998066,114.855485,-9437.292334
624.441549,38.285162,210.568389,-9418.149754
624.442177,76.570323,114.855485,-9418.149754
624.442805,76.570323,114.855485,-9418.149754
624.443433,38.285162,114.855485,-9418.149754
624.444061,133.998066,114.855485,-9418.149754
624.444689,133.998066,153.140646,-9533.005238
624.445317,153.140646,133.998066,-9494.720077
624.445945,153.140646,153.140646,-9456.434915
624.446573,95.712904,114.855485,-9475.577496
624.447201,38.285162,114.855485,-9418.149754
624.447829,95.712904,114.855485,-9456.434915
624.448457,76.570323,114.855485,-9418.149754
624.449085,57.427742,95.712904,-9399.007173
624.449713,133.998066,172.283227,-9418.149754
624.450342,38.285162,172.283227,-9418.149754
624.450970,76.570323,114.855485,-9418.149754
624.451598,95.712904,95.712904,-9399.007173
624.452226,133.998066,172.283227,-9418.149754
624.452854,133.998066,114.855485,-9418.149754
624.453482,133.998066,153.140646,-9418.149754
624.454110,133.998066,114.855485,-9418.149754
624.454738,153.140646,172.283227,-9399.007173
624.455366,76.570323,153.140646,-9418.149754
624.455994,95.712904,95.712904,-9456.434915
624.456622,76.570323,114.855485,-9456.434915
624.457250,76.570323,172.283227,-9418.149754
624.457878,133.998066,172.283227,-9437.292334
624.458506,133.998066,114.855485,-9456.434915
624.459134,57.427742,133.998066,-9360.722011
624.459762,38.285162,114.855485,-9418.149754
624.460390,133.998066,114.855485,-9418.149754
624.461018,76.570323,153.140646,-9418.149754
624.461646,76.570323,114.855485,-9418.149754
624.462274,76.570323,114.855485,-9437.292334
624.462902,95.712904,172.283227,-9360.722011
624.463530,38.285162,76.570323,-9379.864592
624.464159,57.427742,133.998066,-9360.722011
624.464787,76.570323,114.855485,-9418.149754
624.465415,76.570323,114.855485,-9418.149754
624.466043,133.998066,172.283227,-9418.149754
624.466671,153.140646,172.283227,-9399.007173
624.467299,153.140646,153.140646,-9456.434915
624.467927,133.998066,172.283227,-9437.292334
624.468555,133.998066,153.140646,-9437.292334
624.469183,38.285162,95.712904,-9437.292334
624.469811,95.712904,95.712904,-9399.007173
624.470439,76.570323,114.855485,-9418.149754
624.471067,76.570323,114.855485,-9360.722011
624.471695,76.570323,114.855485,-9437.292334
624.472323,133.998066,114.855485,-9418.149754
624.472951,153.140646,133.998066,-9399.007173
624.473579,76.570323,114.855485,-9475.577496
624.474207,76.570323,114.855485,-9418.149754
624.474835,133.998066,114.855485,-9456.434915
624.475463,76.570323,114.855485,-9418.149754
624.476091,133.998066,133.998066,-9399.007173
624.476719,114.855485,133.998066,-9360.722011
624.477347,133.998066,114.855485,-9418.149754
624.477975,76.570323,114.855485,-9418.149754
624.478604,38.285162,172.283227,-9418.149754
624.479232,114.855485,95.712904,-9399.007173
624.479860,76.570323,153.140646,-9418.149754
624.480488,76.570323,114.855485,-9418.149754
624.481116,95.712904,114.855485,-9418.149754
624.481744,38.285162,114.855485,-9418.149754
624.482372,76.570323,114.855485,-9418.149754
624.483000,133.998066,114.855485,-9418.149754
624.483628,133.998066,76.570323,-9379.864592
624.484256,95.712904,133.998066,-9360.722011
624.484884,95.712904,114.855485,-9399.007173
624.485512,76.570323,172.283227,-9475.577496
624.486140,19.142581,172.283227,-9437.292334
624.486768,133.998066,172.283227,-9418.149754
624.487396,76.570323,114.855485,-9456.434915
624.488024,95.712904,95.712904,-9399.007173
624.488652,114.855485,153.140646,-9418.149754
624.489280,133.998066,210.568389,-9418.149754
624.489908,133.998066,114.855485,-9418.149754
624.490536,114.855485,114.855485,-9379.864592
624.491164,76.570323,114.855485,-9418.149754
624.491792,76.570323,172.283227,-9418.149754
624.492421,76.570323,114.855485,-9475.577496
624.493049,76.570323,114.855485,-9437.292334
624.493677,95.712904,95.712904,-9399.007173
624.494305,57.427742,95.712904,-9399.007173
624.494933,133.998066,172.283227,-9418.149754
624.495561,38.285162,133.998066,-9379.864592
624.496189,95.712904,95.712904,-9379.864592
624.496817,76.570323,133.998066,-9360.722011
624.497445,76.570323,153.140646,-9418.149754
624.498073,114.855485,153.140646,-9379.864592
624.498701,76.570323,114.855485,-9418.149754
624.499329,133.998066,114.855485,-9456.434915
624.499957,95.712904,133.998066,-9360.722011
624.500585,76.570323,95.712904,-9437.292334
624.501213,76.570323,114.855485,-9418.149754
624.501841,133.998066,114.855485,-9456.434915
624.502469,172.283227,76.570323,-9456.434915
624.503097,172.283227,76.570323,-9437.292334
624.503725,76.570323,76.570323,-9379.864592
624.504353,133.998066,114.855485,-9418.149754
624.504981,133.998066,114.855485,-9437.292334
624.505609,95.712904,114.855485,-9456.434915
624.506238,133.998066,114.855485,-9494.720077
624.506866,153.140646,133.998066,-9456.434915
624.507494,76.570323,114.855485,-9437.292334
624.508122,38.285162,114.855485,-9418.149754
624.508750,133.998066,133.998066,-9494.720077
624.509378,133.998066,114.855485,-9437.292334
624.510006,153.140646,133.998066,-9399.007173
624.510634,114.855485,95.712904,-9437.292334
624.511262,76.570323,114.855485,-9418.149754
624.511890,38.285162,153.140646,-9418.149754
624.512518,133.998066,133.998066,-9399.007173
624.513146,133.998066,114.855485,-9437.292334
624.513774,153.140646,153.140646,-9399.007173
624.514402,76.570323,172.283227,-9418.149754
624.515030,95.712904,191.425808,-9360.722011
624.515658,95.712904,95.712904,-9379.864592
624.516286,76.570323,76.570323,-9379.864592
624.516914,76.570323,133.998066,-9360.722011
624.517542,133.998066,114.855485,-9418.149754
624.518170,133.998066,172.283227,-9437.292334
624.518798,76.570323,114.855485,-9418.149754
624.519426,133.998066,114.855485,-9418.149754
624.520054,76.570323,172.283227,-9418.149754
624.520683,76.570323,114.855485,-9418.149754
624.521311,133.998066,114.855485,-9418.149754
624.521939,133.998066,114.855485,-9418.149754
624.522567,114.855485,153.140646,-9360.722011
624.523195,133.998066,114.855485,-9418.149754
624.523823,133.998066,114.855485,-9475.577496
624.524451,76.570323,114.855485,-9418.149754
624.525079,76.570323,114.855485,-9360.722011
624.525707,95.712904,191.425808,-9418.149754
624.526335,114.855485,133.998066,-9418.149754
624.526963,95.712904,95.712904,-9475.577496
624.527591,133.998066,114.855485,-9475.577496
624.528219,76.570323,114.855485,-9418.149754
624.528847,95.712904,133.998066,-9360.722011
624.529475,95.712904,133.998066,-9360.722011
624.530103,133.998066,114.855485,-9418.149754
624.530731,76.570323,153.140646,-9418.149754
624.531359,76.570323,133.998066,-9360.722011
624.531987,76.570323,114.855485,-9418.149754
624.532615,133.998066,114.855485,-9456.434915
624.533243,38.285162,114.855485,-9437.292334
624.533871,133.998066,172.283227,-9456.434915
624.534499,133.998066,114.855485,-9418.149754
624.535127,114.855485,248.853550,-9418.149754
624.535755,38.285162,153.140646,-9456.434915
624.536383,76.570323,210.568389,-9418.149754
624.537011,95.712904,210.568389,-9360.722011
624.537638,76.570323,153.140646,-9418.149754
624.538266,153.140646,133.998066,-9494.720077
624.538894,76.570323,114.855485,-9456.434915
624.539522,133.998066,114.855485,-9437.292334
624.540150,76.570323,114.855485,-9418.149754
624.540778,76.570323,114.855485,-9418.149754
624.541406,38.285162,114.855485,-9360.722011
624.542033,38.285162,114.855485,-9437.292334
624.542661,95.712904,95.712904,-9379.864592
624.543289,57.427742,114.855485,-9418.149754
624.543917,133.998066,172.283227,-9418.149754
624.544545,76.570323,114.855485,-9418.149754
624.545173,95.712904,133.998066,-9418.149754
624.545801,95.712904,172.283227,-9360.722011
624.546428,133.998066,114.855485,-9360.722011
624.547056,38.285162,76.570323,-9379.864592
624.547684,133.998066,172.283227,-9418.149754
624.548312,114.855485,153.140646,-9341.579430
624.548940,114.855485,133.998066,-9360.722011
624.549568,76.570323,114.855485,-9418.149754
624.550196,153.140646,153.140646,-9399.007173
624.550823,76.570323,114.855485,-9418.149754
624.551451,114.855485,95.712904,-9456.434915
624.552079,133.998066,114.855485,-9456.434915
624.552707,133.998066,133.998066,-9399.007173
624.553335,153.140646,133.998066,-9399.007173
624.553963,114.855485,153.140646,-9360.722011
624.554591,76.570323,153.140646,-9418.149754
624.555218,19.142581,172.283227,-9456.434915
624.555846,76.570323,114.855485,-9418.149754
624.556474,172.283227,153.140646,-9399.007173
624.557102,95.712904,95.712904,-9399.007173
624.557730,57.427742,114.855485,-9418.149754
624.558358,76.570323,133.998066,-9418.149754
624.558986,114.855485,95.712904,-9399.007173
624.559613,76.570323,191.425808,-9418.149754
624.560241,133.998066,153.140646,-9399.007173
624.560869,153.140646,191.425808,-9399.007173
624.561497,76.570323,114.855485,-9418.149754
624.562125,76.570323,153.140646,-9437.292334
624.562753,76.570323,114.855485,-9437.292334
624.563381,57.427742,95.712904,-9399.007173
624.564008,114.855485,133.998066,-9360.722011
624.564636,76.570323,95.712904,-9418.149754
624.565264,76.570323,114.855485,-9418.149754
624.565892,95.712904,114.855485,-9418.149754
624.566520,114.855485,153.140646,-9437.292334
624.567148,133.998066,114.855485,-9418.149754
624.567775,95.712904,133.998066,-9360.722011
624.568403,76.570323,153.140646,-9418.149754
624.569031,133.998066,114.855485,-9418.149754
624.569659,153.140646,172.283227,-9399.007173
624.570287,76.570323,153.140646,-9475.577496
624.570915,76.570323,114.855485,-9418.149754
624.571543,76.570323,114.855485,-9418.149754
624.572170,133.998066,153.140646,-9418.149754
624.572798,114.855485,133.998066,-9456.434915
624.573426,133.998066,114.855485,-9418.149754
624.574054,133.998066,114.855485,-9418.149754
624.574682,76.570323,114.855485,-9418.149754
624.575310,133.998066,114.855485,-9360.722011
624.575938,38.285162,114.855485,-9418.149754
624.576565,95.712904,133.998066,-9360.722011
624.577193,114.855485,172.283227,-9341.579430
624.577821,133.998066,210.568389,-9418.149754
624.578449,76.570323,153.140646,-9418.149754
624.579077,133.998066,114.855485,-9360.722011
624.579705,114.855485,133.998066,-9360.722011
624.580333,95.712904,133.998066,-9360.722011
624.580960,57.427742,114.855485,-9494.720077
624.581588,76.570323,114.855485,-9475.577496
624.582216,133.998066,114.855485,-9418.149754
624.582844,95.712904,133.998066,-9360.722011
624.583472,95.712904,114.855485,-9360.722011
624.584100,95.712904,172.283227,-9360.722011
624.584728,38.285162,114.855485,-9418.149754
624.585355,76.570323,114.855485,-9418.149754
624.585983,153.140646,133.998066,-9399.007173
624.586611,153.140646,133.998066,-9456.434915
624.587239,76.570323,172.283227,-9418.149754
624.587867,38.285162,114.855485,-9418.149754
624.588495,76.570323,153.140646,-9418.149754
624.589123,114.855485,133.998066,-9360.722011
624.589750,76.570323,114.855485,-9418.149754
624.590378,76.570323,114.855485,-9418.149754
624.591006,133.998066,114.855485,-9437.292334
624.591634,76.570323,114.855485,-9456.434915
624.592262,153.140646,133.998066,-9379.864592
624.592890,76.570323,114.855485,-9418.149754
624.593518,133.998066,114.855485,-9475.577496
624.594145,133.998066,153.140646,-9418.149754
624.594773,133.998066,114.855485,-9437.292334
624.595401,133.998066,153.140646,-9418.149754
624.596029,133.998066,172.283227,-9418.149754
624.596657,76.570323,114.855485,-9418.149754
624.597285,114.855485,229.710970,-9399.007173
624.597913,95.712904,172.283227,-9360.722011
624.598540,153.140646,114.855485,-9437.292334
624.599168,57.427742,153.140646,-9418.149754
624.599796,133.998066,114.855485,-9456.434915
624.600424,133.998066,114.855485,-9418.149754
624.601052,133.998066,114.855485,-9418.149754
624.601680,133.998066,114.855485,-9418.149754
624.602308,114.855485,133.998066,-9360.722011
624.602935,76.570323,114.855485,-9418.149754
624.603563,38.285162,210.568389,-9456.434915
624.604191,76.570323,114.855485,-9418.149754
624.604819,76.570323,114.855485,-9418.149754
624.605447,114.855485,133.998066,-9360.722011
624.606075,172.283227,76.570323,-9418.149754
624.606703,19.142581,114.855485,-9418.149754
624.607330,38.285162,114.855485,-9418.149754
624.607958,133.998066,114.855485,-9437.292334
624.608586,153.140646,133.998066,-9399.007173
624.609214,76.570323,114.855485,-9418.149754
624.609842,95.712904,133.998066,-9341.579430
624.610470,76.570323,191.425808,-9418.149754
624.611098,114.855485,191.425808,-9360.722011
624.611725,133.998066,114.855485,-9418.149754
624.612353,153.140646,172.283227,-9399.007173
624.612981,153.140646,153.140646,-9399.007173
624.613609,95.712904,114.855485,-9418.149754
624.614237,38.285162,191.425808,-9418.149754
624.614865,76.570323,172.283227,-9418.149754
624.615493,133.998066,172.283227,-9418.149754
624.616120,76.570323,114.855485,-9341.579430
624.616748,95.712904,248.853550,-9360.722011
624.617376,76.570323,114.855485,-9418.149754
624.618004,38.285162,114.855485,-9475.577496
624.618632,76.570323,172.283227,-9418.149754
624.619260,133.998066,133.998066,-9399.007173
624.619888,38.285162,114.855485,-9418.149754
624.620515,95.712904,153.140646,-9360.722011
624.621143,38.285162,114.855485,-9418.149754
624.621771,133.998066,114.855485,-9418.149754
624.622399,133.998066,153.140646,-9418.149754
624.623027,95.712904,95.712904,-9399.007173
624.623655,133.998066,114.855485,-9418.149754
624.624283,114.855485,114.855485,-9379.864592
624.624910,95.712904,95.712904,-9399.007173
624.625538,95.712904,172.283227,-9360.722011
624.626166,133.998066,114.855485,-9418.149754
624.626794,133.998066,114.855485,-9418.149754
624.627422,133.998066,114.855485,-9437.292334
624.628050,19.142581,114.855485,-9418.149754
624.628678,95.712904,95.712904,-9399.007173
624.629305,95.712904,114.855485,-9456.434915
624.629933,76.570323,114.855485,-9418.149754
624.630561,95.712904,114.855485,-9418.149754
624.631189,57.427742,114.855485,-9437.292334
624.631817,38.285162,172.283227,-9437.292334
624.632445,133.998066,114.855485,-9418.149754
624.633073,38.285162,114.855485,-9437.292334
624.633700,153.140646,153.140646,-9418.149754
624.634328,133.998066,114.855485,-9418.149754
624.634956,153.140646,133.998066,-9399.007173
624.635584,95.712904,95.712904,-9418.149754
624.636211,95.712904,95.712904,-9437.292334
624.636839,133.998066,114.855485,-9456.434915
624.637467,133.998066,114.855485,-9418.149754
624.638095,95.712904,133.998066,-9360.722011
624.638722,76.570323,76.570323,-9379.864592
624.639350,76.570323,210.568389,-9456.434915
624.639978,76.570323,114.855485,-9418.149754
624.640606,133.998066,133.998066,-9399.007173
624.641233,76.570323,172.283227,-9418.149754
624.641861,38.285162,114.855485,-9418.149754
624.642489,76.570323,114.855485,-9418.149754
624.643117,38.285162,114.855485,-9418.149754
624.643744,38.285162,114.855485,-9418.149754
624.644372,95.712904,133.998066,-9360.722011
624.645000,95.712904,95.712904,-9399.007173
624.645628,133.998066,210.568389,-9399.007173
624.646255,133.998066,114.855485,-9418.149754
624.646883,133.998066,210.568389,-9418.149754
624.647511,133.998066,114.855485,-9360.722011
624.648139,76.570323,114.855485,-9437.292334
624.648766,114.855485,95.712904,-9456.434915
624.649394,76.570323,114.855485,-9437.292334
624.650022,133.998066,133.998066,-9456.434915
624.650650,172.283227,153.140646,-9379.864592
624.651277,76.570323,114.855485,-9418.149754
624.651905,95.712904,95.712904,-9399.007173
624.652533,76.570323,153.140646,-9418.149754
624.653161,133.998066,153.140646,-9418.149754
624.653788,38.285162,172.283227,-9418.149754
624.654416,76.570323,114.855485,-9418.149754
624.655044,76.570323,76.570323,-9379.864592
624.655672,153.140646,133.998066,-9399.007173
624.656299,153.140646,133.998066,-9399.007173
624.656927,76.570323,114.855485,-9418.149754
624.657555,133.998066,95.712904,-9360.722011
624.658183,76.570323,114.855485,-9475.577496
624.658810,38.285162,114.855485,-9418.149754
624.659438,191.425808,133.998066,-9399.007173
624.660066,133.998066,172.283227,-9418.149754
624.660694,38.285162,172.283227,-9437.292334
624.661321,76.570323,114.855485,-9418.149754
624.661949,133.998066,114.855485,-9418.149754
624.662577,153.140646,133.998066,-9399.007173
624.663205,133.998066,114.855485,-9418.149754
624.663832,153.140646,133.998066,-9399.007173
624.664460,133.998066,114.855485,-9456.434915
624.665088,38.285162,114.855485,-9418.149754
624.665716,38.285162,114.855485,-9418.149754
624.666343,114.855485,114.855485,-9379.864592
624.666971,153.140646,114.855485,-9418.149754
624.667599,153.140646,114.855485,-9360.722011
624.668227,153.140646,172.283227,-9399.007173
624.668854,133.998066,114.855485,-9418.149754
624.669482,133.998066,153.140646,-9418.149754
624.670110,76.570323,153.140646,-9418.149754
624.670738,133.998066,114.855485,-9418.149754
624.671365,133.998066,114.855485,-9418.149754
624.671993,133.998066,114.855485,-9456.434915
624.672621,95.712904,95.712904,-9399.007173
624.673249,95.712904,153.140646,-9360.722011
624.673876,133.998066,114.855485,-9418.149754
624.674504,95.712904,95.712904,-9399.007173
624.675132,95.712904,133.998066,-9418.149754
624.675760,38.285162,153.140646,-9418.149754
624.676387,114.855485,114.855485,-9379.864592
624.677015,76.570323,114.855485,-9418.149754
624.677643,95.712904,95.712904,-9399.007173
624.678271,133.998066,153.140646,-9456.434915
624.678898,153.140646,133.998066,-9399.007173
624.679526,133.998066,114.855485,-9418.149754
624.680154,133.998066,114.855485,-9418.149754
624.680782,133.998066,153.140646,-9418.149754
624.681409,38.285162,114.855485,-9456.434915
624.682037,114.855485,95.712904,-9399.007173
624.682665,38.285162,153.140646,-9437.292334
624.683293,95.712904,95.712904,-9399.007173
624.683920,133.998066,133.998066,-9399.007173
624.684548,38.285162,114.855485,-9437.292334
624.685176,172.283227,76.570323,-9418.149754
624.685804,76.570323,114.855485,-9418.149754
624.686431,76.570323,153.140646,-9437.292334
624.687059,133.998066,114.855485,-9456.434915
624.687687,76.570323,114.855485,-9418.149754
624.688315,38.285162,114.855485,-9418.149754
624.688942,133.998066,172.283227,-9399.007173
624.689570,133.998066,114.855485,-9437.292334
624.690198,76.570323,114.855485,-9418.149754
624.690826,76.570323,114.855485,-9418.149754
624.691453,38.285162,114.855485,-9456.434915
624.692081,133.998066,210.568389,-9456.434915
624.692709,76.570323,114.855485,-9418.149754
624.693337,133.998066,114.855485,-9418.149754
624.693964,153.140646,95.712904,-9418.149754
624.694592,153.140646,153.140646,-9399.007173
624.695220,133.998066,114.855485,-9418.149754
624.695848,76.570323,114.855485,-9418.149754
624.696475,76.570323,114.855485,-9418.149754
624.697103,76.570323,114.855485,-9418.149754
624.697731,153.140646,153.140646,-9494.720077
624.698359,76.570323,114.855485,-9418.149754
624.698986,38.285162,114.855485,-9418.149754
624.699614,133.998066,114.855485,-9418.149754
624.700242,95.712904,153.140646,-9418.149754
624.700870,0.000000,95.712904,-9399.007173
624.701497,133.998066,114.855485,-9418.149754
624.702125,114.855485,95.712904,-9399.007173
624.702753,76.570323,172.283227,-9418.149754
624.703381,76.570323,114.855485,-9360.722011
624.704008,114.855485,114.855485,-9379.864592
624.704636,57.427742,114.855485,-9418.149754
624.705264,95.712904,95.712904,-9399.007173
624.705892,76.570323,114.855485,-9418.149754
624.706519,153.140646,133.998066,-9379.864592
624.707147,133.998066,229.710970,-9399.007173
624.707775,133.998066,153.140646,-9418.149754
624.708403,210.568389,172.283227,-9399.007173
624.709030,133.998066,172.283227,-9418.149754
624.709658,133.998066,114.855485,-9418.149754
624.710286,57.427742,95.712904,-9399.007173
624.710914,133.998066,76.570323,-9379.864592
624.711541,133.998066,114.855485,-9418.149754
624.712169,38.285162,114.855485,-9418.149754
624.712797,95.712904,114.855485,-9418.149754
624.713425,76.570323,114.855485,-9437.292334
624.714052,38.285162,114.855485,-9418.149754
624.714680,38.285162,114.855485,-9418.149754
624.715308,38.285162,114.855485,-9437.292334
624.715936,95.712904,153.140646,-9418.149754
624.716563,153.140646,153.140646,-9456.434915
624.717191,76.570323,114.855485,-9418.149754
624.717819,95.712904,153.140646,-9418.149754
624.718447,76.570323,114.855485,-9418.149754
624.719074,95.712904,95.712904,-9399.007173
624.719702,38.285162,114.855485,-9418.149754
624.720330,133.998066,114.855485,-9418.149754
624.720958,114.855485,95.712904,-9494.720077
624.721585,76.570323,114.855485,-9437.292334
624.722213,38.285162,114.855485,-9418.149754
624.722841,114.855485,95.712904,-9399.007173
624.723469,95.712904,95.712904,-9399.007173
624.724096,172.283227,114.855485,-9399.007173
624.724724,133.998066,133.998066,-9399.007173
624.725352,133.998066,114.855485,-9418.149754
624.725980,114.855485,95.712904,-9456.434915
624.726607,153.140646,133.998066,-9399.007173
624.727235,19.142581,114.855485,-9418.149754
624.727863,133.998066,114.855485,-9418.149754
624.728491,210.568389,133.998066,-9399.007173
624.729118,153.140646,133.998066,-9399.007173
624.729746,95.712904,191.425808,-9360.722011
624.730374,38.285162,114.855485,-9418.149754
624.731002,114.855485,95.712904,-9399.007173
624.731629,153.140646,172.283227,-9399.007173
624.732257,95.712904,114.855485,-9399.007173
624.732885,38.285162,114.855485,-9418.149754
624.733513,76.570323,114.855485,-9437.292334
624.734140,114.855485,133.998066,-9360.722011
624.734768,76.570323,114.855485,-9418.149754
624.735396,95.712904,114.855485,-9418.149754
624.736024,114.855485,133.998066,-9360.722011
624.736651,76.570323,172.283227,-9418.149754
624.737279,95.712904,133.998066,-9360.722011
624.737907,76.570323,114.855485,-9456.434915
624.738535,172.283227,114.855485,-9379.864592
624.739162,133.998066,114.855485,-9418.149754
624.739790,114.855485,114.855485,-9379.864592
624.740417,191.425808,172.283227,-9379.864592
624.741044,95.712904,95.712904,-9456.434915
624.741671,95.712904,114.855485,-9418.149754
624.742299,133.998066,153.140646,-9418.149754
624.742926,95.712904,172.283227,-9399.007173
624.743553,76.570323,153.140646,-9418.149754
624.744181,95.712904,95.712904,-9399.007173
624.744808,133.998066,153.140646,-9418.149754
624.745435,76.570323,114.855485,-9418.149754
624.746062,95.712904,95.712904,-9399.007173
624.746690,153.140646,95.712904,-9360.722011
624.747317,76.570323,114.855485,-9418.149754
624.747944,133.998066,191.425808,-9418.149754
624.748572,133.998066,172.283227,-9418.149754
624.749199,133.998066,172.283227,-9418.149754
624.749826,76.570323,210.568389,-9418.149754
624.750453,38.285162,114.855485,-9418.149754
624.751081,133.998066,153.140646,-9456.434915
624.751708,114.855485,133.998066,-9360.722011
624.752335,76.570323,114.855485,-9475.577496
624.752963,76.570323,114.855485,-9418.149754
624.753590,38.285162,172.283227,-9418.149754
624.754217,38.285162,172.283227,-9418.149754
624.754844,38.285162,114.855485,-9437.292334
624.755472,76.570323,114.855485,-9418.149754
624.756099,76.570323,172.283227,-9418.149754
624.756726,38.285162,153.140646,-9418.149754
624.757353,76.570323,114.855485,-9418.149754
624.757981,38.285162,76.570323,-9379.864592
624.758608,76.570323,114.855485,-9418.149754
624.759235,76.570323,153.140646,-9418.149754
624.759863,38.285162,210.568389,-9418.149754
624.760490,57.427742,172.283227,-9360.722011
624.761117,57.427742,153.140646,-9360.722011
624.761744,172.283227,210.568389,-9379.864592
624.762372,76.570323,114.855485,-9418.149754
624.762999,76.570323,153.140646,-9418.149754
624.763626,76.570323,172.283227,-9437.292334
624.764254,95.712904,95.712904,-9494.720077
624.764881,133.998066,114.855485,-9418.149754
624.765508,76.570323,114.855485,-9418.149754
624.766135,76.570323,114.855485,-9418.149754
624.766763,133.998066,114.855485,-9418.149754
624.767390,38.285162,114.855485,-9418.149754
624.768017,133.998066,114.855485,-9437.292334
624.768645,133.998066,114.855485,-9437.292334
624.769272,76.570323,114.855485,-9418.149754
624.769899,38.285162,114.855485,-9456.434915
624.770526,76.570323,153.140646,-9418.149754
624.771154,114.855485,172.283227,-9360.722011
624.771781,133.998066,114.855485,-9418.149754
624.772408,133.998066,114.855485,-9456.434915
624.773036,95.712904,95.712904,-9399.007173
624.773663,114.855485,172.283227,-9360.722011
624.774290,95.712904,133.998066,-9360.722011
624.774917,76.570323,153.140646,-9360.722011
624.775545,76.570323,114.855485,-9418.149754
624.776172,95.712904,95.712904,-9399.007173
624.776799,76.570323,114.855485,-9418.149754
624.777426,114.855485,114.855485,-9379.864592
624.778054,76.570323,153.140646,-9418.149754
624.778681,19.142581,172.283227,-9379.864592
624.779308,76.570323,76.570323,-9322.436850
624.779936,57.427742,153.140646,-9418.149754
624.780563,38.285162,172.283227,-9418.149754
624.781190,76.570323,114.855485,-9418.149754
624.781817,133.998066,210.568389,-9399.007173
624.782445,76.570323,114.855485,-9475.577496
624.783072,76.570323,114.855485,-9456.434915
624.783699,172.283227,95.712904,-9399.007173
624.784327,114.855485,95.712904,-9399.007173
624.784954,76.570323,172.283227,-9418.149754
624.785581,38.285162,153.140646,-9437.292334
624.786208,76.570323,114.855485,-9418.149754
624.786836,57.427742,114.855485,-9399.007173
624.787463,153.140646,133.998066,-9399.007173
624.788090,133.998066,133.998066,-9399.007173
624.788718,95.712904,95.712904,-9456.434915
624.789345,95.712904,114.855485,-9437.292334
624.789972,38.285162,191.425808,-9456.434915
624.790599,133.998066,172.283227,-9418.149754
624.791227,133.998066,153.140646,-9399.007173
624.791854,76.570323,172.283227,-9418.149754
624.792481,133.998066,210.568389,-9418.149754
624.793108,76.570323,210.568389,-9418.149754
624.793736,133.998066,114.855485,-9418.149754
624.794363,95.712904,133.998066,-9360.722011
624.794990,114.855485,114.855485,-9379.864592
624.795618,76.570323,114.855485,-9418.149754
624.796245,133.998066,114.855485,-9456.434915
624.796872,38.285162,114.855485,-9418.149754
624.797499,153.140646,114.855485,-9456.434915
624.798127,133.998066,114.855485,-9437.292334
624.798754,133.998066,114.855485,-9418.149754
624.799381,57.427742,133.998066,-9341.579430
624.800009,114.855485,114.855485,-9379.864592
624.800636,95.712904,133.998066,-9360.722011
624.801263,76.570323,172.283227,-9418.149754
624.801890,76.570323,114.855485,-9418.149754
624.802518,133.998066,172.283227,-9418.149754
624.803145,76.570323,153.140646,-9418.149754
624.803772,38.285162,114.855485,-9437.292334
624.804400,133.998066,114.855485,-9418.149754
624.805027,76.570323,114.855485,-9418.149754
624.805654,76.570323,114.855485,-9418.149754
624.806281,76.570323,153.140646,-9418.149754
624.806909,38.285162,114.855485,-9418.149754
624.807536,76.570323,114.855485,-9418.149754
624.808163,57.427742,114.855485,-9418.149754
624.808791,38.285162,172.283227,-9418.149754
624.809418,133.998066,114.855485,-9418.149754
624.810045,133.998066,114.855485,-9418.149754
624.810672,95.712904,114.855485,-9418.149754
624.811300,133.998066,114.855485,-9418.149754
624.811927,76.570323,172.283227,-9418.149754
624.812554,133.998066,114.855485,-9418.149754
624.813181,76.570323,114.855485,-9360.722011
624.813809,153.140646,133.998066,-9399.007173
624.814436,133.998066,114.855485,-9437.292334
624.815063,114.855485,114.855485,-9418.149754
624.815691,153.140646,191.425808,-9399.007173
624.816318,133.998066,210.568389,-9418.149754
624.816945,172.283227,153.140646,-9379.864592
624.817572,76.570323,153.140646,-9418.149754
624.818200,153.140646,114.855485,-9418.149754
624.818827,153.140646,114.855485,-9360.722011
624.819454,133.998066,114.855485,-9418.149754
624.820082,133.998066,114.855485,-9418.149754
624.820709,153.140646,133.998066,-9399.007173
624.821336,76.570323,172.283227,-9418.149754
624.821963,76.570323,172.283227,-9418.149754
624.822591,133.998066,114.855485,-9456.434915
624.823218,76.570323,153.140646,-9456.434915
624.823845,133.998066,133.998066,-9399.007173
624.824473,76.570323,114.855485,-9418.149754
624.825100,57.427742,95.712904,-9399.007173
624.825727,38.285162,114.855485,-9456.434915
624.826354,133.998066,114.855485,-9418.149754
624.826982,57.427742,153.140646,-9418.149754
624.827609,95.712904,153.140646,-9360.722011
624.828236,76.570323,76.570323,-9341.579430
624.828864,133.998066,114.855485,-9418.149754
624.829491,95.712904,172.283227,-9437.292334
624.830118,153.140646,133.998066,-9437.292334
624.830745,133.998066,153.140646,-9418.149754
624.831373,19.142581,114.855485,-9418.149754
624.832000,133.998066,114.855485,-9418.149754
624.832627,76.570323,210.568389,-9418.149754
624.833254,76.570323,114.855485,-9418.149754
624.833882,133.998066,153.140646,-9418.149754
624.834509,95.712904,114.855485,-9418.149754
624.835136,76.570323,114.855485,-9418.149754
624.835764,114.855485,172.283227,-9360.722011
624.836391,133.998066,114.855485,-9418.149754
624.837018,133.998066,114.855485,-9418.149754
624.837645,76.570323,191.425808,-9418.149754
624.838273,133.998066,153.140646,-9418.149754
624.838900,76.570323,172.283227,-9418.149754
624.839527,153.140646,133.998066,-9437.292334
624.840155,76.570323,114.855485,-9418.149754
624.840782,76.570323,210.568389,-9418.149754
624.841409,76.570323,114.855485,-9456.434915
624.842036,153.140646,133.998066,-9399.007173
624.842664,114.855485,95.712904,-9399.007173
624.843291,76.570323,114.855485,-9437.292334
624.843918,114.855485,133.998066,-9341.579430
624.844545,57.427742,95.712904,-9399.007173
624.845173,133.998066,114.855485,-9418.149754
624.845800,133.998066,133.998066,-9399.007173
624.846427,76.570323,114.855485,-9437.292334
624.847054,133.998066,172.283227,-9418.149754
624.847682,76.570323,114.855485,-9418.149754
624.848309,76.570323,153.140646,-9418.149754
624.848936,133.998066,114.855485,-9418.149754
624.849564,95.712904,95.712904,-9456.434915
624.850191,133.998066,172.283227,-9418.149754
624.850818,76.570323,114.855485,-9475.577496
624.851445,95.712904,114.855485,-9418.149754
624.852073,133.998066,114.855485,-9418.149754
624.852700,76.570323,114.855485,-9418.149754
624.853327,38.285162,114.855485,-9418.149754
624.853954,95.712904,133.998066,-9360.722011
624.854582,76.570323,76.570323,-9379.864592
624.855209,76.570323,114.855485,-9418.149754
624.855836,38.285162,114.855485,-9418.149754
624.856463,133.998066,114.855485,-9418.149754
624.857091,114.855485,133.998066,-9360.722011
624.857718,57.427742,95.712904,-9456.434915
624.858345,95.712904,95.712904,-9399.007173
624.858972,76.570323,114.855485,-9418.149754
624.859600,133.998066,114.855485,-9418.149754
624.860227,95.712904,114.855485,-9418.149754
624.860854,76.570323,95.712904,-9456.434915
624.861482,38.285162,114.855485,-9437.292334
624.862109,76.570323,114.855485,-9418.149754
624.862736,38.285162,210.568389,-9418.149754
624.863363,133.998066,191.425808,-9418.149754
624.863991,114.855485,133.998066,-9360.722011
624.864618,153.140646,133.998066,-9399.007173
624.865245,95.712904,95.712904,-9399.007173
624.865872,114.855485,133.998066,-9360.722011
624.866500,57.427742,133.998066,-9360.722011
624.867127,133.998066,114.855485,-9418.149754
624.867754,133.998066,114.855485,-9437.292334
624.868381,133.998066,153.140646,-9437.292334
624.869009,133.998066,114.855485,-9437.292334
624.869636,95.712904,114.855485,-9418.149754
624.870263,133.998066,114.855485,-9418.149754
624.870890,114.855485,133.998066,-9360.722011
624.871518,133.998066,191.425808,-9456.434915
624.872145,133.998066,133.998066,-9399.007173
624.872772,38.285162,114.855485,-9418.149754
624.873400,153.140646,133.998066,-9399.007173
624.874027,76.570323,114.855485,-9418.149754
624.874654,133.998066,114.855485,-9418.149754
624.875281,76.570323,114.855485,-9418.149754
624.875909,76.570323,210.568389,-9418.149754
624.876536,133.998066,133.998066,-9494.720077
624.877163,76.570323,153.140646,-9456.434915
624.877790,95.712904,114.855485,-9418.149754
624.878418,210.568389,133.998066,-9399.007173
624.879045,172.283227,76.570323,-9418.149754
624.879672,133.998066,114.855485,-9418.149754
624.880299,76.570323,114.855485,-9475.577496
624.880927,95.712904,95.712904,-9399.007173
624.881554,76.570323,153.140646,-9418.149754
624.882181,38.285162,153.140646,-9418.149754
624.882808,133.998066,114.855485,-9418.149754
624.883436,95.712904,133.998066,-9418.149754
624.884063,153.140646,133.998066,-9399.007173
624.884690,114.855485,76.570323,-9475.577496
624.885318,57.427742,95.712904,-9437.292334
624.885945,133.998066,191.425808,-9418.149754
624.886572,133.998066,114.855485,-9418.149754
624.887199,133.998066,114.855485,-9360.722011
624.887827,114.855485,95.712904,-9399.007173
624.888454,95.712904,95.712904,-9437.292334
624.889081,114.855485,95.712904,-9399.007173
624.889708,114.855485,95.712904,-9494.720077
624.890336,57.427742,114.855485,-9399.007173
624.890963,76.570323,114.855485,-9418.149754
624.891590,133.998066,114.855485,-9418.149754
624.892217,133.998066,153.140646,-9418.149754
624.892845,76.570323,172.283227,-9418.149754
624.893472,76.570323,114.855485,-9418.149754
624.894099,57.427742,95.712904,-9399.007173
624.894726,153.140646,172.283227,-9456.434915
624.895354,114.855485,95.712904,-9399.007173
624.895981,76.570323,172.283227,-9418.149754
624.896608,38.285162,210.568389,-9437.292334
624.897236,133.998066,172.283227,-9475.577496
624.897863,76.570323,172.283227,-9418.149754
624.898490,95.712904,191.425808,-9418.149754
624.899117,95.712904,95.712904,-9399.007173
624.899745,76.570323,114.855485,-9418.149754
624.900372,133.998066,114.855485,-9418.149754
624.900999,153.140646,172.283227,-9399.007173
624.901626,172.283227,76.570323,-9456.434915
624.902254,76.570323,114.855485,-9418.149754
624.902881,133.998066,114.855485,-9418.149754
624.903508,114.855485,133.998066,-9341.579430
624.904135,153.140646,191.425808,-9399.007173
624.904763,114.855485,95.712904,-9399.007173
624.905390,114.855485,133.998066,-9360.722011
624.906017,76.570323,133.998066,-9399.007173
624.906644,172.283227,114.855485,-9379.864592
624.907272,133.998066,114.855485,-9360.722011
624.907899,57.427742,95.712904,-9399.007173
624.908526,95.712904,114.855485,-9399.007173
624.909154,76.570323,114.855485,-9418.149754
624.909781,114.855485,95.712904,-9399.007173
624.910408,114.855485,95.712904,-9399.007173
624.911035,133.998066,210.568389,-9418.149754
624.911663,76.570323,114.855485,-9456.434915
624.912290,38.285162,172.283227,-9418.149754
624.912917,133.998066,153.140646,-9475.577496
624.913544,95.712904,172.283227,-9437.292334
624.914172,153.140646,172.283227,-9456.434915
624.914799,76.570323,114.855485,-9418.149754
624.915426,76.570323,172.283227,-9418.149754
624.916053,38.285162,114.855485,-9437.292334
624.916681,153.140646,133.998066,-9399.007173
624.917308,133.998066,153.140646,-9437.292334
624.917935,95.712904,114.855485,-9399.007173
624.918562,114.855485,133.998066,-9360.722011
624.919190,76.570323,153.140646,-9494.720077
624.919817,76.570323,229.710970,-9494.720077
624.920444,95.712904,172.283227,-9456.434915
624.921072,95.712904,210.568389,-9437.292334
624.921699,76.570323,114.855485,-9418.149754
624.922326,76.570323,114.855485,-9418.149754
624.922953,76.570323,172.283227,-9418.149754
624.923581,95.712904,172.283227,-9360.722011
624.924208,114.855485,133.998066,-9360.722011
624.924835,172.283227,76.570323,-9418.149754
624.925462,133.998066,114.855485,-9418.149754
624.926090,76.570323,114.855485,-9418.149754
624.926717,38.285162,153.140646,-9418.149754
624.927344,95.712904,114.855485,-9418.149754
624.927971,38.285162,172.283227,-9437.292334
624.928599,133.998066,172.283227,-9418.149754
624.929226,76.570323,114.855485,-9418.149754
624.929853,76.570323,114.855485,-9418.149754
624.930480,133.998066,114.855485,-9418.149754
624.931108,133.998066,172.283227,-9418.149754
624.931735,133.998066,153.140646,-9418.149754
624.932362,153.140646,191.425808,-9399.007173
624.932990,38.285162,210.568389,-9418.149754
624.933617,38.285162,172.283227,-9418.149754
624.934244,76.570323,153.140646,-9360.722011
624.934871,76.570323,172.283227,-9418.149754
624.935499,133.998066,76.570323,-9399.007173
624.936126,114.855485,95.712904,-9399.007173
624.936753,38.285162,114.855485,-9418.149754
624.937380,133.998066,114.855485,-9418.149754
624.938008,133.998066,172.283227,-9399.007173
624.938635,76.570323,133.998066,-9360.722011
624.939262,133.998066,114.855485,-9418.149754
624.939889,133.998066,114.855485,-9418.149754
624.940517,133.998066,114.855485,-9418.149754
624.941144,76.570323,114.855485,-9418.149754
624.941771,95.712904,95.712904,-9399.007173
624.942398,114.855485,95.712904,-9399.007173
624.943025,133.998066,133.998066,-9399.007173
624.943652,95.712904,133.998066,-9360.722011
624.944279,76.570323,172.283227,-9418.149754
624.944906,76.570323,114.855485,-9437.292334
624.945533,133.998066,114.855485,-9360.722011
624.946161,76.570323,191.425808,-9418.149754
624.946788,19.142581,133.998066,-9456.434915
624.947415,76.570323,114.855485,-9418.149754
624.948042,133.998066,114.855485,-9418.149754
624.948669,133.998066,114.855485,-9418.149754
624.949296,133.998066,114.855485,-9418.149754
624.949923,38.285162,114.855485,-9418.149754
624.950550,76.570323,153.140646,-9418.149754
624.951178,133.998066,76.570323,-9379.864592
624.951805,76.570323,172.283227,-9418.149754
624.952432,76.570323,114.855485,-9456.434915
624.953059,133.998066,114.855485,-9456.434915
624.953686,172.283227,114.855485,-9379.864592
624.954313,114.855485,133.998066,-9418.149754
624.954940,76.570323,114.855485,-9418.149754
624.955567,38.285162,153.140646,-9418.149754
624.956195,76.570323,76.570323,-9379.864592
624.956822,76.570323,114.855485,-9437.292334
624.957449,38.285162,114.855485,-9437.292334
624.958076,133.998066,191.425808,-9418.149754
624.958703,133.998066,210.568389,-9418.149754
624.959330,76.570323,114.855485,-9437.292334
624.959957,133.998066,153.140646,-9418.149754
624.960584,76.570323,172.283227,-9360.722011
624.961211,76.570323,114.855485,-9418.149754
624.961839,133.998066,153.140646,-9418.149754
624.962466,153.140646,172.283227,-9399.007173
624.963093,95.712904,133.998066,-9418.149754
624.963720,114.855485,95.712904,-9399.007173
624.964347,76.570323,114.855485,-9418.149754
624.964974,76.570323,172.283227,-9437.292334
624.965601,133.998066,172.283227,-9418.149754
624.966228,153.140646,133.998066,-9399.007173
624.966856,133.998066,153.140646,-9418.149754
624.967483,76.570323,172.283227,-9418.149754
624.968110,133.998066,172.283227,-9418.149754
624.968737,153.140646,153.140646,-9399.007173
624.969364,38.285162,153.140646,-9418.149754
624.969991,76.570323,114.855485,-9418.149754
624.970618,172.283227,153.140646,-9379.864592
624.971245,95.712904,114.855485,-9418.149754
624.971873,76.570323,153.140646,-9418.149754
624.972500,57.427742,133.998066,-9360.722011
624.973127,76.570323,114.855485,-9418.149754
624.973754,76.570323,114.855485,-9418.149754
624.974381,153.140646,153.140646,-9379.864592
624.975008,133.998066,114.855485,-9360.722011
624.975635,95.712904,133.998066,-9360.722011
624.976262,95.712904,133.998066,-9360.722011
624.976889,114.855485,95.712904,-9399.007173
624.977517,172.283227,76.570323,-9418.149754
624.978144,133.998066,172.283227,-9418.149754
624.978771,95.712904,95.712904,-9399.007173
624.979398,76.570323,114.855485,-9418.149754
624.980025,133.998066,133.998066,-9399.007173
624.980652,133.998066,210.568389,-9418.149754
624.981279,133.998066,172.283227,-9475.577496
624.981906,133.998066,153.140646,-9418.149754
624.982534,76.570323,114.855485,-9494.720077
624.983161,133.998066,172.283227,-9418.149754
624.983788,76.570323,172.283227,-9475.577496
624.984415,76.570323,153.140646,-9418.149754
624.985042,38.285162,153.140646,-9418.149754
624.985669,57.427742,133.998066,-9360.722011
624.986296,153.140646,133.998066,-9399.007173
624.986923,133.998066,172.283227,-9418.149754
624.987551,95.712904,114.855485,-9437.292334
624.988178,133.998066,114.855485,-9418.149754
624.988805,114.855485,95.712904,-9399.007173
624.989432,38.285162,114.855485,-9437.292334
624.990059,114.855485,114.855485,-9399.007173
624.990686,133.998066,114.855485,-9418.149754
624.991313,76.570323,114.855485,-9418.149754
624.991940,133.998066,114.855485,-9418.149754
624.992567,153.140646,133.998066,-9399.007173
624.993195,114.855485,114.855485,-9379.864592
624.993822,95.712904,95.712904,-9399.007173
624.994449,95.712904,172.283227,-9418.149754
624.995076,133.998066,114.855485,-9360.722011
624.995703,76.570323,114.855485,-9437.292334
624.996330,76.570323,114.855485,-9533.005238
624.996957,133.998066,114.855485,-9418.149754
624.997584,153.140646,191.425808,-9399.007173
624.998212,76.570323,153.140646,-9418.149754
624.998839,76.570323,153.140646,-9418.149754
624.999466,133.998066,153.140646,-9437.292334
625.000093,76.570323,114.855485,-9418.149754
625.000720,76.570323,114.855485,-9418.149754
625.001347,133.998066,114.855485,-9418.149754
625.001974,153.140646,133.998066,-9456.434915
625.002601,76.570323,114.855485,-9456.434915
625.003228,76.570323,114.855485,-9418.149754
625.003856,76.570323,114.855485,-9437.292334
625.004483,133.998066,172.283227,-9418.149754
625.005110,76.570323,114.855485,-9418.149754
625.005737,76.570323,114.855485,-9418.149754
625.006364,76.570323,153.140646,-9418.149754
625.006991,133.998066,153.140646,-9399.007173
625.007618,95.712904,133.998066,-9360.722011
625.008245,76.570323,153.140646,-9379.864592
625.008873,76.570323,153.140646,-9418.149754
625.009500,76.570323,76.570323,-9399.007173
625.010127,114.855485,76.570323,-9418.149754
625.010754,133.998066,114.855485,-9418.149754
625.011381,76.570323,172.283227,-9418.149754
625.012008,76.570323,114.855485,-9418.149754
625.012635,95.712904,95.712904,-9399.007173
625.013262,76.570323,172.283227,-9360.722011
625.013890,95.712904,114.855485,-9456.434915
625.014517,38.285162,153.140646,-9418.149754
625.015144,114.855485,95.712904,-9399.007173
625.015771,114.855485,95.712904,-9399.007173
625.016398,153.140646,133.998066,-9399.007173
625.017025,114.855485,153.140646,-9360.722011
625.017652,76.570323,153.140646,-9418.149754
625.018279,76.570323,114.855485,-9418.149754
625.018906,38.285162,114.855485,-9418.149754
625.019534,95.712904,95.712904,-9399.007173
625.020161,133.998066,133.998066,-9399.007173
625.020788,153.140646,133.998066,-9399.007173
625.021415,133.998066,114.855485,-9418.149754
625.022042,153.140646,133.998066,-9399.007173
625.022669,133.998066,133.998066,-9456.434915
625.023296,76.570323,153.140646,-9418.149754
625.023923,114.855485,95.712904,-9399.007173
625.024551,57.427742,95.712904,-9456.434915
625.025178,38.285162,114.855485,-9418.149754
625.025805,76.570323,114.855485,-9437.292334
625.026432,76.570323,114.855485,-9418.149754
625.027059,57.427742,95.712904,-9399.007173
625.027686,133.998066,114.855485,-9418.149754
625.028313,95.712904,114.855485,-9437.292334
625.028940,153.140646,133.998066,-9399.007173
625.029568,133.998066,114.855485,-9418.149754
625.030195,114.855485,133.998066,-9360.722011
625.030822,133.998066,114.855485,-9437.292334
625.031449,76.570323,172.283227,-9456.434915
625.032076,95.712904,153.140646,-9360.722011
625.032703,76.570323,114.855485,-9418.149754
625.033330,114.855485,114.855485,-9437.292334
625.033957,114.855485,133.998066,-9360.722011
625.034584,114.855485,133.998066,-9360.722011
625.035212,172.283227,114.855485,-9379.864592
625.035839,76.570323,114.855485,-9418.149754
625.036466,133.998066,114.855485,-9418.149754
625.037093,57.427742,95.712904,-9399.007173
625.037720,153.140646,133.998066,-9399.007173
625.038347,133.998066,114.855485,-9418.149754
625.038974,153.140646,172.283227,-9418.149754
625.039601,76.570323,114.855485,-9418.149754
625.040229,153.140646,210.568389,-9456.434915
625.040856,57.427742,191.425808,-9418.149754
625.041483,114.855485,133.998066,-9360.722011
625.042110,133.998066,114.855485,-9418.149754
625.042737,133.998066,114.855485,-9418.149754
625.043364,133.998066,114.855485,-9437.292334
625.043992,95.712904,114.855485,-9418.149754
625.044619,133.998066,114.855485,-9475.577496
625.045246,153.140646,153.140646,-9437.292334
625.045873,133.998066,210.568389,-9418.149754
625.046500,95.712904,114.855485,-9475.577496
625.047127,76.570323,114.855485,-9418.149754
625.047755,57.427742,95.712904,-9399.007173
625.048382,76.570323,153.140646,-9418.149754
625.049009,95.712904,114.855485,-9418.149754
625.049636,114.855485,95.712904,-9494.720077
625.050263,95.712904,95.712904,-9399.007173
625.050890,153.140646,133.998066,-9456.434915
625.051518,76.570323,114.855485,-9437.292334
625.052145,76.570323,114.855485,-9437.292334
625.052772,76.570323,114.855485,-9418.149754
625.053399,153.140646,133.998066,-9399.007173
625.054026,133.998066,153.140646,-9456.434915
625.054653,38.285162,114.855485,-9437.292334
625.055281,57.427742,172.283227,-9360.722011
625.055908,114.855485,114.855485,-9379.864592
625.056535,133.998066,172.283227,-9418.149754
625.057162,76.570323,114.855485,-9418.149754
625.057789,57.427742,95.712904,-9399.007173
625.058416,133.998066,114.855485,-9418.149754
625.059043,133.998066,114.855485,-9437.292334
625.059671,133.998066,114.855485,-9456.434915
625.060298,76.570323,114.855485,-9360.722011
625.060925,76.570323,114.855485,-9494.720077
625.061552,95.712904,95.712904,-9399.007173
625.062179,38.285162,172.283227,-9437.292334
625.062806,133.998066,153.140646,-9418.149754
625.063434,76.570323,153.140646,-9418.149754
625.064061,38.285162,172.283227,-9418.149754
625.064688,95.712904,153.140646,-9418.149754
625.065315,133.998066,114.855485,-9418.149754
625.065942,133.998066,153.140646,-9418.149754
625.066569,133.998066,114.855485,-9475.577496
625.067197,38.285162,114.855485,-9475.577496
625.067824,76.570323,114.855485,-9418.149754
625.068451,76.570323,153.140646,-9418.149754
625.069078,76.570323,114.855485,-9360.722011
625.069705,38.285162,114.855485,-9418.149754
625.070332,76.570323,76.570323,-9379.864592
625.070960,133.998066,114.855485,-9418.149754
625.071587,95.712904,133.998066,-9360.722011
625.072214,76.570323,172.283227,-9418.149754
625.072841,133.998066,210.568389,-9418.149754
625.073468,133.998066,114.855485,-9418.149754
625.074095,133.998066,153.140646,-9437.292334
625.074723,57.427742,172.283227,-9456.434915
625.075350,133.998066,133.998066,-9399.007173
625.075977,76.570323,114.855485,-9533.005238
625.076604,38.285162,153.140646,-9437.292334
625.077231,76.570323,114.855485,-9418.149754
625.077858,114.855485,95.712904,-9399.007173
625.078486,133.998066,114.855485,-9418.149754
625.079113,95.712904,95.712904,-9494.720077
625.079740,95.712904,95.712904,-9399.007173
625.080367,133.998066,114.855485,-9418.149754
625.080994,114.855485,95.712904,-9399.007173
625.081621,95.712904,95.712904,-9399.007173
625.082249,76.570323,114.855485,-9418.149754
625.082876,57.427742,114.855485,-9456.434915
625.083503,95.712904,114.855485,-9418.149754
625.084130,133.998066,114.855485,-9418.149754
625.084757,114.855485,95.712904,-9399.007173
625.085384,153.140646,133.998066,-9399.007173
625.086012,76.570323,114.855485,-9360.722011
625.086639,95.712904,114.855485,-9418.149754
625.087266,95.712904,114.855485,-9399.007173
625.087893,133.998066,133.998066,-9399.007173
625.088520,95.712904,133.998066,-9418.149754
625.089147,114.855485,133.998066,-9360.722011
625.089775,133.998066,114.855485,-9418.149754
625.090402,38.285162,95.712904,-9399.007173
625.091029,76.570323,114.855485,-9360.722011
625.091656,76.570323,210.568389,-9437.292334
625.092283,114.855485,133.998066,-9360.722011
625.092910,76.570323,172.283227,-9418.149754
625.093538,133.998066,114.855485,-9418.149754
625.094165,114.855485,76.570323,-9418.149754
625.094792,133.998066,133.998066,-9399.007173
625.095419,95.712904,95.712904,-9399.007173
625.096046,76.570323,114.855485,-9360.722011
625.096673,95.712904,114.855485,-9437.292334
625.097301,38.285162,153.140646,-9418.149754
625.097928,133.998066,114.855485,-9418.149754
625.098555,57.427742,153.140646,-9360.722011
625.099182,133.998066,114.855485,-9437.292334
625.099809,133.998066,153.140646,-9437.292334
625.100436,133.998066,133.998066,-9399.007173
625.101064,133.998066,114.855485,-9418.149754
625.101691,38.285162,114.855485,-9418.149754
625.102318,57.427742,114.855485,-9399.007173
625.102945,95.712904,95.712904,-9399.007173
625.103572,76.570323,114.855485,-9456.434915
625.104199,133.998066,114.855485,-9418.149754
625.104826,76.570323,191.425808,-9418.149754
625.105454,76.570323,172.283227,-9399.007173
625.106081,95.712904,210.568389,-9399.007173
625.106708,38.285162,114.855485,-9418.149754
625.107335,76.570323,114.855485,-9418.149754
625.107962,133.998066,172.283227,-9456.434915
625.108589,133.998066,133.998066,-9399.007173
625.109217,114.855485,133.998066,-9418.149754
625.109844,114.855485,114.855485,-9437.292334
625.110471,76.570323,114.855485,-9456.434915
625.111098,76.570323,114.855485,-9418.149754
625.111725,95.712904,153.140646,-9418.149754
625.112352,38.285162,153.140646,-9418.149754
625.112980,76.570323,114.855485,-9418.149754
625.113607,114.855485,133.998066,-9360.722011
625.114234,133.998066,172.283227,-9418.149754
625.114861,95.712904,172.283227,-9437.292334
625.115488,153.140646,133.998066,-9399.007173
625.116115,38.285162,95.712904,-9399.007173
625.116743,114.855485,133.998066,-9360.722011
625.117370,133.998066,114.855485,-9418.149754
625.117997,172.283227,76.570323,-9456.434915
625.118624,133.998066,172.283227,-9437.292334
625.119251,133.998066,95.712904,-9418.149754
625.119878,95.712904,95.712904,-9399.007173
625.120506,76.570323,114.855485,-9456.434915
625.121133,133.998066,114.855485,-9418.149754
625.121760,133.998066,95.712904,-9418.149754
625.122387,114.855485,95.712904,-9399.007173
625.123014,133.998066,210.568389,-9418.149754
625.123641,76.570323,114.855485,-9418.149754
625.124269,133.998066,114.855485,-9418.149754
625.124896,76.570323,114.855485,-9418.149754
625.125523,133.998066,114.855485,-9456.434915
625.126150,133.998066,114.855485,-9475.577496
625.126777,38.285162,114.855485,-9418.149754
625.127404,153.140646,133.998066,-9399.007173
625.128032,133.998066,133.998066,-9399.007173
625.128659,172.283227,114.855485,-9379.864592
625.129286,76.570323,114.855485,-9418.149754
625.129913,95.712904,95.712904,-9379.864592
625.130540,114.855485,95.712904,-9437.292334
625.131167,95.712904,95.712904,-9399.007173
625.131795,95.712904,95.712904,-9399.007173
625.132422,38.285162,229.710970,-9456.434915
625.133049,76.570323,172.283227,-9456.434915
625.133676,133.998066,114.855485,-9418.149754
625.134303,95.712904,114.855485,-9418.149754
625.134930,76.570323,153.140646,-9360.722011
625.135558,95.712904,133.998066,-9360.722011
625.136185,114.855485,133.998066,-9360.722011
625.136812,153.140646,191.425808,-9399.007173
625.137439,95.712904,95.712904,-9456.434915
625.138066,133.998066,114.855485,-9437.292334
625.138693,133.998066,191.425808,-9437.292334
625.139321,133.998066,133.998066,-9399.007173
625.139948,76.570323,114.855485,-9418.149754
625.140575,95.712904,95.712904,-9399.007173
625.141203,133.998066,114.855485,-9533.005238
625.141830,76.570323,210.568389,-9418.149754
625.142458,38.285162,172.283227,-9437.292334
625.143086,38.285162,210.568389,-9456.434915
625.143714,38.285162,172.283227,-9456.434915
625.144341,133.998066,153.140646,-9437.292334
625.144969,38.285162,114.855485,-9494.720077
625.145597,76.570323,114.855485,-9456.434915
625.146224,57.427742,133.998066,-9360.722011
625.146852,38.285162,114.855485,-9418.149754
625.147480,76.570323,114.855485,-9437.292334
625.148108,133.998066,114.855485,-9437.292334
625.148735,76.570323,95.712904,-9399.007173
625.149363,76.570323,114.855485,-9418.149754
625.149991,172.283227,153.140646,-9418.149754
625.150619,76.570323,114.855485,-9418.149754
625.151246,76.570323,114.855485,-9456.434915
625.151874,153.140646,133.998066,-9399.007173
625.152502,133.998066,153.140646,-9418.149754
625.153130,133.998066,153.140646,-9418.149754
625.153757,95.712904,133.998066,-9322.436850
625.154385,114.855485,133.998066,-9360.722011
625.155013,153.140646,133.998066,-9399.007173
625.155641,133.998066,153.140646,-9360.722011
625.156268,133.998066,153.140646,-9418.149754
625.156896,114.855485,114.855485,-9379.864592
625.157524,76.570323,114.855485,-9418.149754
625.158151,153.140646,133.998066,-9494.720077
625.158779,38.285162,114.855485,-9418.149754
625.159407,38.285162,114.855485,-9456.434915
625.160035,133.998066,114.855485,-9418.149754
625.160662,38.285162,114.855485,-9418.149754
625.161290,76.570323,210.568389,-9418.149754
625.161918,153.140646,172.283227,-9399.007173
625.162546,114.855485,133.998066,-9360.722011
625.163173,76.570323,153.140646,-9418.149754
625.163801,210.568389,133.998066,-9379.864592
625.164429,133.998066,76.570323,-9379.864592
625.165057,133.998066,114.855485,-9418.149754
625.165684,76.570323,114.855485,-9418.149754
625.166312,133.998066,153.140646,-9418.149754
625.166940,153.140646,133.998066,-9399.007173
625.167568,76.570323,114.855485,-9418.149754
625.168195,133.998066,114.855485,-9456.434915
625.168823,133.998066,114.855485,-9418.149754
625.169451,76.570323,114.855485,-9399.007173
625.170078,76.570323,153.140646,-9418.149754
625.170706,76.570323,114.855485,-9418.149754
625.171334,57.427742,133.998066,-9360.722011
625.171962,38.285162,172.283227,-9418.149754
625.172589,133.998066,172.283227,-9437.292334
625.173217,76.570323,114.855485,-9475.577496
625.173845,133.998066,114.855485,-9437.292334
625.174473,76.570323,114.855485,-9418.149754
625.175100,153.140646,172.283227,-9399.007173
625.175728,76.570323,114.855485,-9399.007173
625.176356,133.998066,153.140646,-9418.149754
625.176984,95.712904,95.712904,-9399.007173
625.177611,38.285162,114.855485,-9418.149754
625.178239,38.285162,114.855485,-9418.149754
625.178867,38.285162,114.855485,-9418.149754
625.179495,133.998066,114.855485,-9418.149754
625.180122,133.998066,114.855485,-9418.149754
625.180750,95.712904,172.283227,-9418.149754
625.181378,133.998066,172.283227,-9360.722011
625.182005,133.998066,172.283227,-9418.149754
625.182633,114.855485,172.283227,-9360.722011
625.183261,133.998066,114.855485,-9418.149754
625.183889,95.712904,95.712904,-9399.007173
625.184516,76.570323,153.140646,-9418.149754
625.185144,133.998066,114.855485,-9418.149754
625.185772,76.570323,114.855485,-9475.577496
625.186400,57.427742,114.855485,-9437.292334
625.187027,133.998066,114.855485,-9418.149754
625.187655,133.998066,114.855485,-9418.149754
625.188283,95.712904,95.712904,-9494.720077
625.188911,133.998066,114.855485,-9418.149754
625.189538,172.283227,76.570323,-9418.149754
625.190166,153.140646,133.998066,-9399.007173
625.190794,114.855485,95.712904,-9399.007173
625.191422,38.285162,114.855485,-9456.434915
625.192049,0.000000,114.855485,-9399.007173
625.192677,76.570323,114.855485,-9475.577496
625.193305,133.998066,114.855485,-9533.005238
625.193932,133.998066,114.855485,-9418.149754
625.194560,76.570323,114.855485,-9418.149754
625.195188,95.712904,153.140646,-9418.149754
625.195816,95.712904,95.712904,-9399.007173
625.196443,133.998066,153.140646,-9418.149754
625.197071,133.998066,114.855485,-9418.149754
625.197699,133.998066,114.855485,-9418.149754
625.198327,19.142581,114.855485,-9418.149754
625.198954,133.998066,114.855485,-9418.149754
625.199582,76.570323,114.855485,-9456.434915
625.200210,95.712904,153.140646,-9360.722011
625.200838,114.855485,133.998066,-9360.722011
625.201465,76.570323,210.568389,-9418.149754
625.202093,95.712904,133.998066,-9360.722011
625.202721,76.570323,114.855485,-9418.149754
625.203349,76.570323,114.855485,-9418.149754
625.203976,95.712904,114.855485,-9418.149754
625.204604,172.283227,114.855485,-9379.864592
625.205232,76.570323,114.855485,-9418.149754
625.205859,114.855485,114.855485,-9379.864592
625.206487,114.855485,95.712904,-9399.007173
625.207115,76.570323,114.855485,-9418.149754
625.207743,133.998066,114.855485,-9418.149754
625.208370,133.998066,114.855485,-9437.292334
625.208998,95.712904,95.712904,-9399.007173
625.209626,95.712904,114.855485,-9418.149754
625.210254,76.570323,114.855485,-9418.149754
625.210881,38.285162,172.283227,-9475.577496
625.211509,133.998066,172.283227,-9437.292334
625.212137,76.570323,210.568389,-9418.149754
625.212765,114.855485,133.998066,-9360.722011
625.213392,133.998066,133.998066,-9399.007173
625.214020,95.712904,133.998066,-9360.722011
625.214648,114.855485,114.855485,-9399.007173
625.215276,76.570323,172.283227,-9418.149754
625.215903,19.142581,114.855485,-9418.149754
625.216531,38.285162,114.855485,-9418.149754
625.217159,57.427742,114.855485,-9456.434915
625.217786,76.570323,133.998066,-9418.149754
625.218414,76.570323,114.855485,-9437.292334
625.219042,133.998066,114.855485,-9418.149754
625.219670,114.855485,114.855485,-9399.007173
625.220297,76.570323,114.855485,-9418.149754
625.220925,133.998066,114.855485,-9418.149754
625.221553,114.855485,95.712904,-9399.007173
625.222181,133.998066,133.998066,-9399.007173
625.222808,76.570323,172.283227,-9418.149754
625.223436,95.712904,95.712904,-9399.007173
625.224064,133.998066,114.855485,-9437.292334
625.224692,153.140646,153.140646,-9399.007173
625.225319,133.998066,114.855485,-9418.149754
625.225947,76.570323,133.998066,-9360.722011
625.226575,38.285162,114.855485,-9494.720077
625.227203,76.570323,114.855485,-9456.434915
625.227830,76.570323,114.855485,-9418.149754
625.228458,95.712904,114.855485,-9418.149754
625.229086,38.285162,172.283227,-9456.434915
625.229713,114.855485,133.998066,-9360.722011
625.230341,133.998066,133.998066,-9399.007173
625.230969,133.998066,114.855485,-9418.149754
625.231597,133.998066,76.570323,-9399.007173
625.232224,133.998066,133.998066,-9399.007173
625.232852,95.712904,172.283227,-9418.149754
625.233480,95.712904,133.998066,-9418.149754
625.234108,133.998066,153.140646,-9418.149754
625.234735,133.998066,114.855485,-9437.292334
625.235363,153.140646,133.998066,-9399.007173
625.235991,38.285162,114.855485,-9418.149754
625.236619,76.570323,114.855485,-9418.149754
625.237246,38.285162,114.855485,-9475.577496
625.237874,76.570323,114.855485,-9418.149754
625.238502,57.427742,95.712904,-9399.007173
625.239130,76.570323,172.283227,-9418.149754
625.239757,133.998066,172.283227,-9418.149754
625.240385,57.427742,172.283227,-9360.722011
625.241013,133.998066,114.855485,-9418.149754
625.241641,172.283227,114.855485,-9379.864592
625.242268,133.998066,114.855485,-9418.149754
625.242896,153.140646,153.140646,-9437.292334
625.243524,153.140646,133.998066,-9399.007173
625.244152,114.855485,95.712904,-9456.434915
625.244780,133.998066,114.855485,-9456.434915
625.245407,133.998066,133.998066,-9437.292334
625.246035,76.570323,114.855485,-9456.434915
625.246663,133.998066,210.568389,-9437.292334
625.247291,95.712904,114.855485,-9437.292334
625.247918,38.285162,114.855485,-9418.149754
625.248546,76.570323,95.712904,-9399.007173
625.249174,76.570323,114.855485,-9418.149754
625.249802,76.570323,114.855485,-9418.149754
625.250430,95.712904,133.998066,-9360.722011
625.251057,114.855485,95.712904,-9437.292334
625.251685,76.570323,114.855485,-9418.149754
625.252313,76.570323,114.855485,-9437.292334
625.252941,133.998066,114.855485,-9418.149754
625.253569,76.570323,114.855485,-9418.149754
625.254196,133.998066,191.425808,-9399.007173
625.254824,133.998066,114.855485,-9418.149754
625.255452,76.570323,210.568389,-9418.149754
625.256080,38.285162,114.855485,-9418.149754
625.256708,133.998066,114.855485,-9437.292334
625.257335,133.998066,114.855485,-9418.149754
625.257963,133.998066,133.998066,-9399.007173
625.258591,153.140646,172.283227,-9399.007173
625.259219,133.998066,114.855485,-9456.434915
625.259847,76.570323,114.855485,-9437.292334
625.260474,95.712904,133.998066,-9341.579430
625.261102,133.998066,114.855485,-9456.434915
625.261730,76.570323,95.712904,-9399.007173
625.262358,153.140646,114.855485,-9418.149754
625.262986,114.855485,95.712904,-9399.007173
625.263613,76.570323,114.855485,-9418.149754
625.264241,114.855485,133.998066,-9360.722011
625.264869,76.570323,191.425808,-9418.149754
625.265497,76.570323,114.855485,-9437.292334
625.266125,38.285162,172.283227,-9418.149754
625.266752,76.570323,172.283227,-9418.149754
625.267380,95.712904,95.712904,-9456.434915
625.268008,95.712904,95.712904,-9399.007173
625.268636,38.285162,114.855485,-9418.149754
625.269264,76.570323,114.855485,-9418.149754
625.269891,38.285162,210.568389,-9418.149754
625.270519,38.285162,114.855485,-9456.434915
625.271147,76.570323,114.855485,-9418.149754
625.271775,133.998066,114.855485,-9418.149754
625.272403,133.998066,114.855485,-9418.149754
625.273030,114.855485,95.712904,-9399.007173
625.273658,133.998066,153.140646,-9418.149754
625.274286,133.998066,153.140646,-9437.292334
625.274914,133.998066,114.855485,-9418.149754
625.275541,76.570323,114.855485,-9418.149754
625.276169,133.998066,172.283227,-9418.149754
625.276797,114.855485,153.140646,-9360.722011
625.277425,57.427742,153.140646,-9360.722011
625.278053,76.570323,114.855485,-9418.149754
625.278680,114.855485,191.425808,-9360.722011
625.279308,76.570323,114.855485,-9418.149754
625.279936,133.998066,114.855485,-9456.434915
625.280564,95.712904,133.998066,-9475.577496
625.281192,76.570323,210.568389,-9437.292334
625.281819,38.285162,210.568389,-9418.149754
625.282447,133.998066,133.998066,-9399.007173
625.283075,153.140646,153.140646,-9399.007173
625.283703,76.570323,114.855485,-9418.149754
625.284331,38.285162,76.570323,-9379.864592
625.284958,95.712904,114.855485,-9418.149754
625.285586,57.427742,95.712904,-9399.007173
625.286214,133.998066,76.570323,-9379.864592
625.286842,133.998066,114.855485,-9418.149754
625.287470,19.142581,191.425808,-9418.149754
625.288097,133.998066,76.570323,-9399.007173
625.288725,76.570323,114.855485,-9418.149754
625.289353,114.855485,95.712904,-9399.007173
625.289981,95.712904,114.855485,-9418.149754
625.290609,76.570323,229.710970,-9418.149754
625.291236,76.570323,153.140646,-9418.149754
625.291864,76.570323,114.855485,-9418.149754
625.292492,38.285162,114.855485,-9418.149754
625.293120,38.285162,114.855485,-9456.434915
625.293748,133.998066,133.998066,-9456.434915
625.294375,114.855485,95.712904,-9456.434915
625.295003,153.140646,172.283227,-9399.007173
625.295631,38.285162,114.855485,-9418.149754
625.296259,76.570323,114.855485,-9418.149754
625.296887,133.998066,210.568389,-9418.149754
625.297514,210.568389,133.998066,-9399.007173
625.298142,76.570323,114.855485,-9418.149754
625.298770,76.570323,210.568389,-9494.720077
625.299398,153.140646,172.283227,-9456.434915
625.300025,153.140646,210.568389,-9399.007173
625.300653,133.998066,114.855485,-9418.149754
625.301281,95.712904,114.855485,-9418.149754
625.301909,76.570323,95.712904,-9456.434915
625.302537,38.285162,114.855485,-9437.292334
625.303164,95.712904,133.998066,-9360.722011
625.303792,95.712904,114.855485,-9418.149754
625.304420,133.998066,114.855485,-9418.149754
625.305048,57.427742,114.855485,-9418.149754
625.305676,114.855485,210.568389,-9360.722011
625.306303,153.140646,133.998066,-9399.007173
625.306931,133.998066,172.283227,-9418.149754
625.307559,76.570323,114.855485,-9418.149754
625.308187,38.285162,114.855485,-9418.149754
625.308815,133.998066,114.855485,-9456.434915
625.309442,133.998066,114.855485,-9418.149754
625.310070,133.998066,172.283227,-9437.292334
625.310698,133.998066,114.855485,-9418.149754
625.311326,76.570323,153.140646,-9418.149754
625.311954,133.998066,153.140646,-9437.292334
625.312581,95.712904,95.712904,-9399.007173
625.313209,133.998066,114.855485,-9418.149754
625.313837,95.712904,95.712904,-9399.007173
625.314465,76.570323,114.855485,-9418.149754
625.315093,95.712904,191.425808,-9360.722011
625.315720,76.570323,172.283227,-9418.149754
625.316348,133.998066,153.140646,-9418.149754
625.316976,95.712904,114.855485,-9418.149754
625.317604,133.998066,114.855485,-9418.149754
625.318232,133.998066,172.283227,-9418.149754
625.318859,133.998066,210.568389,-9418.149754
625.319487,95.712904,95.712904,-9399.007173
625.320115,57.427742,114.855485,-9418.149754
625.320743,95.712904,153.140646,-9418.149754
625.321371,76.570323,114.855485,-9418.149754
625.321998,76.570323,114.855485,-9418.149754
625.322626,114.855485,76.570323,-9418.149754
625.323254,76.570323,95.712904,-9399.007173
625.323882,95.712904,133.998066,-9360.722011
625.324510,95.712904,95.712904,-9399.007173
625.325137,133.998066,172.283227,-9418.149754
625.325765,133.998066,153.140646,-9399.007173
625.326393,153.140646,172.283227,-9399.007173
625.327021,38.285162,210.568389,-9418.149754
625.327648,76.570323,153.140646,-9360.722011
625.328276,114.855485,95.712904,-9399.007173
625.328904,76.570323,114.855485,-9418.149754
625.329532,38.285162,114.855485,-9456.434915
625.330160,114.855485,95.712904,-9399.007173
625.330787,76.570323,114.855485,-9418.149754
625.331415,76.570323,153.140646,-9418.149754
625.332043,76.570323,172.283227,-9418.149754
625.332671,133.998066,153.140646,-9418.149754
625.333299,76.570323,114.855485,-9418.149754
625.333926,57.427742,114.855485,-9418.149754
625.334554,114.855485,95.712904,-9399.007173
625.335182,133.998066,191.425808,-9399.007173
625.335810,76.570323,153.140646,-9418.149754
625.336438,76.570323,114.855485,-9418.149754
625.337065,95.712904,133.998066,-9360.722011
625.337693,133.998066,133.998066,-9399.007173
625.338321,133.998066,114.855485,-9418.149754
625.338949,153.140646,133.998066,-9456.434915
625.339577,153.140646,95.712904,-9360.722011
625.340204,153.140646,133.998066,-9399.007173
625.340832,76.570323,114.855485,-9418.149754
625.341460,57.427742,153.140646,-9418.149754
625.342087,133.998066,153.140646,-9418.149754
625.342715,76.570323,114.855485,-9418.149754
625.343342,114.855485,95.712904,-9399.007173
625.343970,133.998066,114.855485,-9456.434915
625.344597,114.855485,95.712904,-9437.292334
625.345225,38.285162,114.855485,-9418.149754
625.345852,133.998066,114.855485,-9437.292334
625.346480,133.998066,114.855485,-9456.434915
625.347107,95.712904,114.855485,-9418.149754
625.347735,76.570323,114.855485,-9418.149754
625.348362,76.570323,114.855485,-9418.149754
625.348990,95.712904,172.283227,-9341.579430
625.349617,38.285162,114.855485,-9418.149754
625.350245,76.570323,114.855485,-9437.292334
625.350872,95.712904,114.855485,-9456.434915
625.351499,153.140646,153.140646,-9399.007173
625.352127,153.140646,153.140646,-9456.434915
625.352754,133.998066,114.855485,-9456.434915
625.353382,133.998066,114.855485,-9418.149754
625.354009,133.998066,210.568389,-9418.149754
625.354637,95.712904,153.140646,-9418.149754
625.355264,95.712904,172.283227,-9418.149754
625.355892,76.570323,114.855485,-9418.149754
625.356519,38.285162,114.855485,-9418.149754
625.357147,95.712904,114.855485,-9418.149754
625.357774,210.568389,191.425808,-9437.292334
625.358402,76.570323,114.855485,-9418.149754
625.359029,133.998066,153.140646,-9456.434915
625.359657,95.712904,95.712904,-9456.434915
625.360284,76.570323,76.570323,-9379.864592
625.360911,153.140646,133.998066,-9399.007173
625.361539,133.998066,133.998066,-9399.007173
625.362166,76.570323,114.855485,-9418.149754
625.362794,76.570323,114.855485,-9418.149754
625.363421,133.998066,114.855485,-9418.149754
625.364049,133.998066,114.855485,-9418.149754
625.364676,95.712904,114.855485,-9418.149754
625.365304,76.570323,114.855485,-9418.149754
625.365931,76.570323,172.283227,-9360.722011
625.366559,133.998066,114.855485,-9418.149754
625.367186,114.855485,153.140646,-9360.722011
625.367814,114.855485,133.998066,-9418.149754
625.368441,76.570323,114.855485,-9418.149754
625.369069,76.570323,114.855485,-9456.434915
625.369696,76.570323,114.855485,-9418.149754
625.370323,76.570323,114.855485,-9437.292334
625.370951,38.285162,229.710970,-9437.292334
625.371578,133.998066,114.855485,-9475.577496
625.372206,38.285162,114.855485,-9418.149754
625.372833,76.570323,114.855485,-9437.292334
625.373461,95.712904,95.712904,-9399.007173
625.374088,153.140646,133.998066,-9399.007173
625.374716,133.998066,114.855485,-9418.149754
625.375343,114.855485,133.998066,-9360.722011
625.375971,133.998066,114.855485,-9418.149754
625.376598,57.427742,133.998066,-9360.722011
625.377226,95.712904,95.712904,-9399.007173
625.377853,133.998066,153.140646,-9437.292334
625.378481,38.285162,114.855485,-9437.292334
625.379108,19.142581,133.998066,-9437.292334
625.379736,76.570323,114.855485,-9418.149754
625.380363,38.285162,172.283227,-9418.149754
625.380990,76.570323,172.283227,-9418.149754
625.381618,76.570323,114.855485,-9418.149754
625.382245,114.855485,172.283227,-9399.007173
625.382873,133.998066,114.855485,-9418.149754
625.383500,133.998066,114.855485,-9475.577496
625.384128,153.140646,133.998066,-9456.434915
625.384755,133.998066,114.855485,-9418.149754
625.385383,133.998066,114.855485,-9418.149754
625.386010,153.140646,133.998066,-9399.007173
625.386638,133.998066,133.998066,-9399.007173
625.387265,133.998066,114.855485,-9456.434915
625.387893,38.285162,153.140646,-9418.149754
625.388520,133.998066,153.140646,-9418.149754
625.389148,38.285162,114.855485,-9418.149754
625.389775,114.855485,95.712904,-9399.007173
625.390402,95.712904,133.998066,-9360.722011
625.391030,76.570323,114.855485,-9418.149754
625.391657,38.285162,153.140646,-9418.149754
625.392285,38.285162,114.855485,-9418.149754
625.392912,133.998066,153.140646,-9399.007173
625.393540,133.998066,114.855485,-9360.722011
625.394167,38.285162,114.855485,-9418.149754
625.394795,95.712904,133.998066,-9360.722011
625.395422,38.285162,114.855485,-9418.149754
625.396050,38.285162,114.855485,-9456.434915
625.396677,38.285162,114.855485,-9418.149754
625.397305,114.855485,95.712904,-9399.007173
625.397932,133.998066,172.283227,-9418.149754
625.398560,133.998066,133.998066,-9399.007173
625.399187,76.570323,114.855485,-9437.292334
625.399814,76.570323,114.855485,-9456.434915
625.400442,133.998066,172.283227,-9437.292334
625.401069,76.570323,114.855485,-9418.149754
625.401697,153.140646,133.998066,-9399.007173
625.402324,133.998066,153.140646,-9418.149754
625.402952,95.712904,95.712904,-9399.007173
625.403579,76.570323,114.855485,-9360.722011
625.404207,57.427742,114.855485,-9437.292334
625.404834,133.998066,114.855485,-9418.149754
625.405462,76.570323,114.855485,-9418.149754
625.406089,133.998066,114.855485,-9418.149754
625.406717,76.570323,229.710970,-9418.149754
625.407344,133.998066,210.568389,-9418.149754
625.407972,38.285162,114.855485,-9437.292334
625.408599,76.570323,114.855485,-9437.292334
625.409226,76.570323,114.855485,-9418.149754
625.409854,76.570323,153.140646,-9418.149754
625.410481,38.285162,210.568389,-9418.149754
625.411109,76.570323,153.140646,-9456.434915
625.411736,133.998066,114.855485,-9456.434915
625.412364,95.712904,114.855485,-9418.149754
625.412991,95.712904,114.855485,-9418.149754
625.413619,133.998066,153.140646,-9418.149754
625.414246,95.712904,153.140646,-9360.722011
625.414874,114.855485,172.283227,-9360.722011
625.415501,133.998066,210.568389,-9418.149754
625.416129,76.570323,172.283227,-9418.149754
625.416756,153.140646,172.283227,-9399.007173
625.417384,133.998066,114.855485,-9418.149754
625.418011,76.570323,114.855485,-9418.149754
625.418639,133.998066,172.283227,-9399.007173
625.419266,114.855485,95.712904,-9437.292334
625.419893,133.998066,114.855485,-9418.149754
625.420521,114.855485,76.570323,-9418.149754
625.421148,133.998066,114.855485,-9475.577496
625.421776,38.285162,114.855485,-9456.434915
625.422403,133.998066,172.283227,-9418.149754
625.423031,133.998066,114.855485,-9399.007173
625.423658,76.570323,114.855485,-9456.434915
625.424286,172.283227,114.855485,-9379.864592
625.424913,76.570323,153.140646,-9418.149754
625.425541,76.570323,114.855485,-9418.149754
625.426168,153.140646,153.140646,-9399.007173
625.426796,133.998066,133.998066,-9399.007173
625.427423,133.998066,114.855485,-9456.434915
625.428051,76.570323,114.855485,-9437.292334
625.428678,76.570323,114.855485,-9456.434915
625.429305,76.570323,172.283227,-9418.149754
625.429933,95.712904,114.855485,-9475.577496
625.430560,76.570323,153.140646,-9418.149754
625.431188,76.570323,172.283227,-9418.149754
625.431815,76.570323,114.855485,-9418.149754
625.432443,76.570323,172.283227,-9418.149754
625.433070,76.570323,114.855485,-9418.149754
625.433698,133.998066,133.998066,-9399.007173
625.434325,38.285162,114.855485,-9418.149754
625.434953,57.427742,114.855485,-9418.149754
625.435580,76.570323,114.855485,-9418.149754
625.436208,133.998066,114.855485,-9418.149754
625.436835,38.285162,114.855485,-9418.149754
625.437463,38.285162,153.140646,-9418.149754
625.438090,133.998066,191.425808,-9437.292334
625.438717,76.570323,114.855485,-9418.149754
625.439345,95.712904,95.712904,-9399.007173
625.439972,76.570323,114.855485,-9418.149754
625.440600,76.570323,114.855485,-9437.292334
625.441227,38.285162,172.283227,-9418.149754
625.441855,38.285162,153.140646,-9418.149754
625.442482,57.427742,95.712904,-9399.007173
625.443110,133.998066,114.855485,-9437.292334
625.443737,133.998066,133.998066,-9456.434915
625.444365,76.570323,114.855485,-9418.149754
625.444992,76.570323,153.140646,-9418.149754
625.445620,133.998066,114.855485,-9418.149754
625.446247,38.285162,95.712904,-9399.007173
625.446874,38.285162,114.855485,-9437.292334
625.447502,133.998066,172.283227,-9418.149754
625.448129,114.855485,95.712904,-9399.007173
625.448757,76.570323,114.855485,-9418.149754
625.449384,76.570323,114.855485,-9418.149754
625.450012,76.570323,114.855485,-9418.149754
625.450639,95.712904,95.712904,-9399.007173
625.451267,76.570323,172.283227,-9418.149754
625.451894,133.998066,210.568389,-9437.292334
625.452522,38.285162,114.855485,-9437.292334
625.453149,95.712904,133.998066,-9360.722011
625.453777,133.998066,114.855485,-9418.149754
625.454404,76.570323,114.855485,-9418.149754
625.455031,95.712904,76.570323,-9379.864592
625.455659,133.998066,172.283227,-9494.720077
625.456286,133.998066,133.998066,-9399.007173
625.456914,76.570323,172.283227,-9456.434915
625.457541,76.570323,114.855485,-9418.149754
625.458169,95.712904,210.568389,-9456.434915
625.458796,153.140646,114.855485,-9456.434915
625.459424,153.140646,153.140646,-9399.007173
625.460051,76.570323,114.855485,-9418.149754
625.460679,95.712904,133.998066,-9360.722011
625.461306,76.570323,114.855485,-9418.149754
625.461933,95.712904,95.712904,-9399.007173
625.462561,38.285162,114.855485,-9418.149754
625.463188,76.570323,114.855485,-9418.149754
625.463816,76.570323,133.998066,-9360.722011
625.464443,114.855485,95.712904,-9399.007173
625.465071,76.570323,114.855485,-9418.149754
625.465698,133.998066,114.855485,-9418.149754
625.466326,76.570323,114.855485,-9456.434915
625.466953,38.285162,114.855485,-9418.149754
625.467581,133.998066,114.855485,-9418.149754
625.468208,133.998066,191.425808,-9437.292334
625.468836,76.570323,114.855485,-9475.577496
625.469463,133.998066,114.855485,-9418.149754
625.470090,114.855485,133.998066,-9360.722011
625.470718,114.855485,95.712904,-9437.292334
625.471345,153.140646,133.998066,-9437.292334
625.471973,133.998066,114.855485,-9418.149754
625.472600,114.855485,95.712904,-9399.007173
625.473228,133.998066,114.855485,-9418.149754
625.473855,76.570323,114.855485,-9418.149754
625.474483,153.140646,114.855485,-9494.720077
625.475110,133.998066,133.998066,-9494.720077
625.475738,133.998066,114.855485,-9437.292334
625.476365,76.570323,114.855485,-9437.292334
625.476993,57.427742,133.998066,-9360.722011
625.477620,95.712904,95.712904,-9399.007173
625.478247,133.998066,114.855485,-9418.149754
625.478875,133.998066,114.855485,-9418.149754
625.479502,133.998066,114.855485,-9360.722011
625.480130,114.855485,153.140646,-9360.722011
625.480757,133.998066,153.140646,-9399.007173
625.481385,133.998066,210.568389,-9418.149754
625.482012,76.570323,153.140646,-9456.434915
625.482640,95.712904,172.283227,-9360.722011
625.483267,95.712904,114.855485,-9418.149754
625.483895,133.998066,114.855485,-9418.149754
625.484522,76.570323,153.140646,-9456.434915
625.485149,133.998066,191.425808,-9437.292334
625.485777,133.998066,210.568389,-9418.149754
625.486404,133.998066,153.140646,-9418.149754
625.487032,76.570323,153.140646,-9360.722011
625.487659,210.568389,133.998066,-9399.007173
625.488287,76.570323,114.855485,-9418.149754
625.488914,133.998066,172.283227,-9418.149754
625.489542,76.570323,114.855485,-9418.149754
625.490169,76.570323,114.855485,-9418.149754
625.490797,76.570323,172.283227,-9437.292334
625.491424,76.570323,210.568389,-9418.149754
625.492052,76.570323,172.283227,-9418.149754
625.492679,133.998066,114.855485,-9437.292334
625.493306,76.570323,95.712904,-9437.292334
625.493934,114.855485,133.998066,-9360.722011
625.494561,76.570323,172.283227,-9418.149754
625.495189,133.998066,153.140646,-9418.149754
625.495816,95.712904,114.855485,-9437.292334
625.496444,76.570323,210.568389,-9418.149754
625.497071,38.285162,172.283227,-9360.722011
625.497699,76.570323,210.568389,-9418.149754
625.498326,76.570323,114.855485,-9418.149754
625.498954,95.712904,133.998066,-9360.722011
625.499581,38.285162,114.855485,-9418.149754
625.500208,76.570323,95.712904,-9399.007173
625.500836,95.712904,133.998066,-9341.579430
625.501463,133.998066,210.568389,-9360.722011
625.502091,76.570323,172.283227,-9418.149754
625.502718,133.998066,114.855485,-9418.149754
625.503346,133.998066,114.855485,-9418.149754
625.503973,95.712904,95.712904,-9399.007173
625.504601,133.998066,114.855485,-9418.149754
625.505228,76.570323,114.855485,-9418.149754
625.505856,38.285162,114.855485,-9437.292334
625.506483,95.712904,133.998066,-9341.579430
625.507111,38.285162,114.855485,-9418.149754
625.507738,153.140646,133.998066,-9399.007173
625.508365,153.140646,133.998066,-9399.007173
625.508993,76.570323,114.855485,-9437.292334
625.509620,57.427742,172.283227,-9360.722011
625.510248,76.570323,172.283227,-9418.149754
625.510875,76.570323,191.425808,-9418.149754
625.511503,76.570323,114.855485,-9418.149754
625.512130,76.570323,114.855485,-9418.149754
625.512758,38.285162,114.855485,-9437.292334
625.513385,38.285162,114.855485,-9456.434915
625.514013,133.998066,114.855485,-9418.149754
625.514640,172.283227,38.285162,-9418.149754
625.515267,76.570323,133.998066,-9379.864592
625.515895,172.283227,114.855485,-9379.864592
625.516522,76.570323,114.855485,-9418.149754
625.517150,95.712904,133.998066,-9360.722011
625.517777,76.570323,172.283227,-9418.149754
625.518405,76.570323,153.140646,-9418.149754
625.519032,76.570323,114.855485,-9418.149754
625.519660,38.285162,114.855485,-9418.149754
625.520287,133.998066,114.855485,-9418.149754
625.520915,57.427742,153.140646,-9418.149754
625.521542,133.998066,114.855485,-9418.149754
625.522170,76.570323,172.283227,-9418.149754
625.522797,38.285162,114.855485,-9418.149754
625.523424,38.285162,114.855485,-9360.722011
625.524052,114.855485,95.712904,-9399.007173
625.524679,57.427742,153.140646,-9360.722011
625.525307,133.998066,153.140646,-9418.149754
625.525934,76.570323,114.855485,-9418.149754
625.526562,153.140646,95.712904,-9360.722011
625.527189,76.570323,114.855485,-9418.149754
625.527817,114.855485,76.570323,-9418.149754
625.528444,95.712904,95.712904,-9456.434915
625.529072,95.712904,114.855485,-9437.292334
625.529699,172.283227,114.855485,-9379.864592
625.530327,133.998066,114.855485,-9494.720077
625.530954,95.712904,153.140646,-9437.292334
625.531581,133.998066,114.855485,-9418.149754
625.532209,95.712904,114.855485,-9456.434915
625.532836,114.855485,133.998066,-9341.579430
625.533464,153.140646,114.855485,-9322.436850
625.534091,76.570323,76.570323,-9379.864592
625.534719,95.712904,153.140646,-9437.292334
625.535346,95.712904,191.425808,-9360.722011
625.535974,76.570323,172.283227,-9418.149754
625.536601,38.285162,114.855485,-9418.149754
625.537229,76.570323,114.855485,-9418.149754
625.537856,133.998066,114.855485,-9418.149754
625.538483,76.570323,114.855485,-9418.149754
625.539111,133.998066,133.998066,-9399.007173
625.539738,95.712904,114.855485,-9418.149754
625.540366,76.570323,114.855485,-9418.149754
625.540993,38.285162,172.283227,-9418.149754
625.541621,76.570323,210.568389,-9437.292334
625.542248,133.998066,210.568389,-9418.149754
625.542876,133.998066,210.568389,-9456.434915
625.543504,114.855485,133.998066,-9360.722011
625.544131,76.570323,114.855485,-9418.149754
625.544759,76.570323,95.712904,-9399.007173
625.545387,76.570323,114.855485,-9418.149754
625.546014,95.712904,95.712904,-9399.007173
625.546642,114.855485,95.712904,-9379.864592
625.547270,133.998066,172.283227,-9418.149754
625.547898,133.998066,114.855485,-9418.149754
625.548525,114.855485,153.140646,-9418.149754
625.549153,133.998066,172.283227,-9418.149754
625.549781,76.570323,172.283227,-9418.149754
625.550408,133.998066,172.283227,-9418.149754
625.551036,133.998066,114.855485,-9494.720077
625.551664,133.998066,114.855485,-9418.149754
625.552291,133.998066,114.855485,-9418.149754
625.552919,210.568389,76.570323,-9418.149754
625.553547,76.570323,114.855485,-9418.149754
625.554175,133.998066,114.855485,-9418.149754
625.554802,95.712904,95.712904,-9399.007173
625.555430,38.285162,114.855485,-9418.149754
625.556058,114.855485,95.712904,-9399.007173
625.556685,38.285162,114.855485,-9418.149754
625.557313,153.140646,133.998066,-9399.007173
625.557941,133.998066,114.855485,-9418.149754
625.558568,95.712904,133.998066,-9360.722011
625.559196,153.140646,114.855485,-9437.292334
625.559824,133.998066,114.855485,-9418.149754
625.560452,76.570323,114.855485,-9418.149754
625.561079,76.570323,210.568389,-9418.149754
625.561707,133.998066,114.855485,-9418.149754
625.562335,153.140646,133.998066,-9399.007173
625.562962,38.285162,114.855485,-9418.149754
625.563590,114.855485,133.998066,-9360.722011
625.564218,76.570323,114.855485,-9456.434915
625.564845,95.712904,114.855485,-9418.149754
625.565473,114.855485,133.998066,-9418.149754
625.566101,76.570323,210.568389,-9437.292334
625.566729,133.998066,114.855485,-9456.434915
625.567356,133.998066,210.568389,-9437.292334
625.567984,133.998066,153.140646,-9418.149754
625.568612,114.855485,95.712904,-9437.292334
625.569239,133.998066,114.855485,-9418.149754
625.569867,95.712904,95.712904,-9399.007173
625.570495,76.570323,114.855485,-9418.149754
625.571122,76.570323,114.855485,-9437.292334
625.571750,114.855485,95.712904,-9399.007173
625.572378,114.855485,153.140646,-9360.722011
625.573006,76.570323,153.140646,-9418.149754
625.573633,133.998066,114.855485,-9437.292334
625.574261,76.570323,114.855485,-9418.149754
625.574889,38.285162,114.855485,-9418.149754
625.575516,153.140646,114.855485,-9456.434915
625.576144,95.712904,153.140646,-9360.722011
625.576772,133.998066,172.283227,-9418.149754
625.577399,76.570323,114.855485,-9456.434915
625.578027,95.712904,153.140646,-9418.149754
625.578655,133.998066,114.855485,-9418.149754
625.579282,191.425808,114.855485,-9379.864592
625.579910,191.425808,133.998066,-9418.149754
625.580538,57.427742,114.855485,-9418.149754
625.581166,133.998066,114.855485,-9418.149754
625.581793,114.855485,133.998066,-9360.722011
625.582421,76.570323,133.998066,-9360.722011
625.583049,133.998066,114.855485,-9418.149754
625.583676,153.140646,114.855485,-9360.722011
625.584304,153.140646,133.998066,-9399.007173
625.584932,114.855485,95.712904,-9399.007173
625.585559,133.998066,133.998066,-9379.864592
625.586187,133.998066,191.425808,-9418.149754
625.586815,76.570323,95.712904,-9399.007173
625.587443,95.712904,95.712904,-9399.007173
625.588070,95.712904,95.712904,-9399.007173
625.588698,95.712904,114.855485,-9418.149754
625.589326,114.855485,133.998066,-9360.722011
625.589953,38.285162,114.855485,-9418.149754
625.590581,76.570323,114.855485,-9437.292334
625.591209,57.427742,172.283227,-9399.007173
625.591836,38.285162,172.283227,-9418.149754
625.592464,133.998066,114.855485,-9456.434915
625.593092,57.427742,133.998066,-9360.722011
625.593720,38.285162,172.283227,-9418.149754
625.594347,133.998066,172.283227,-9418.149754
625.594975,133.998066,114.855485,-9418.149754
625.595603,133.998066,114.855485,-9418.149754
625.596230,133.998066,153.140646,-9418.149754
625.596858,114.855485,114.855485,-9399.007173
625.597486,153.140646,172.283227,-9399.007173
625.598113,133.998066,153.140646,-9418.149754
625.598741,133.998066,133.998066,-9399.007173
625.599369,153.140646,133.998066,-9399.007173
625.599997,153.140646,133.998066,-9399.007173
625.600624,76.570323,114.855485,-9418.149754
625.601252,133.998066,114.855485,-9437.292334
625.601880,133.998066,153.140646,-9456.434915
625.602507,133.998066,114.855485,-9456.434915
625.603135,76.570323,114.855485,-9418.149754
625.603763,153.140646,133.998066,-9456.434915
625.604390,95.712904,153.140646,-9360.722011
625.605018,76.570323,153.140646,-9456.434915
625.605646,172.283227,210.568389,-9360.722011
625.606274,76.570323,153.140646,-9418.149754
625.606901,76.570323,153.140646,-9418.149754
625.607529,76.570323,153.140646,-9418.149754
625.608157,133.998066,114.855485,-9418.149754
625.608784,57.427742,95.712904,-9399.007173
625.609412,57.427742,133.998066,-9360.722011
625.610040,57.427742,153.140646,-9360.722011
625.610667,76.570323,229.710970,-9418.149754
625.611295,95.712904,191.425808,-9360.722011
625.611923,133.998066,172.283227,-9399.007173
625.612551,133.998066,114.855485,-9456.434915
625.613178,76.570323,153.140646,-9456.434915
625.613806,95.712904,172.283227,-9418.149754
625.614434,38.285162,114.855485,-9418.149754
625.615061,76.570323,114.855485,-9418.149754
625.615689,153.140646,133.998066,-9399.007173
625.616317,76.570323,114.855485,-9418.149754
625.616944,57.427742,153.140646,-9360.722011
625.617572,95.712904,95.712904,-9399.007173
625.618200,76.570323,114.855485,-9418.149754
625.618828,76.570323,114.855485,-9456.434915
625.619455,133.998066,114.855485,-9437.292334
625.620083,76.570323,114.855485,-9418.149754
625.620711,76.570323,114.855485,-9475.577496
625.621338,114.855485,133.998066,-9360.722011
625.621966,38.285162,114.855485,-9418.149754
625.622594,133.998066,114.855485,-9418.149754
625.623221,76.570323,153.140646,-9418.149754
625.623849,95.712904,114.855485,-9456.434915
625.624477,133.998066,114.855485,-9437.292334
625.625105,133.998066,114.855485,-9418.149754
625.625732,133.998066,114.855485,-9418.149754
625.626360,153.140646,133.998066,-9399.007173
625.626988,114.855485,95.712904,-9399.007173
625.627615,114.855485,95.712904,-9456.434915
625.628243,133.998066,153.140646,-9418.149754
625.628871,95.712904,133.998066,-9360.722011
625.629498,153.140646,133.998066,-9399.007173
625.630126,76.570323,153.140646,-9418.149754
625.630754,95.712904,133.998066,-9360.722011
625.631382,76.570323,114.855485,-9456.434915
625.632009,153.140646,191.425808,-9437.292334
625.632637,133.998066,153.140646,-9418.149754
625.633265,133.998066,114.855485,-9418.149754
625.633892,38.285162,172.283227,-9437.292334
625.634520,57.427742,210.568389,-9399.007173
625.635148,76.570323,114.855485,-9418.149754
625.635775,76.570323,114.855485,-9475.577496
625.636403,133.998066,114.855485,-9456.434915
625.637031,76.570323,153.140646,-9456.434915
625.637658,76.570323,76.570323,-9379.864592
625.638286,114.855485,95.712904,-9399.007173
625.638914,114.855485,133.998066,-9341.579430
625.639542,133.998066,114.855485,-9418.149754
625.640169,38.285162,153.140646,-9418.149754
625.640797,76.570323,153.140646,-9360.722011
625.641425,76.570323,172.283227,-9418.149754
625.642052,76.570323,153.140646,-9418.149754
625.642680,133.998066,114.855485,-9456.434915
625.643308,38.285162,114.855485,-9533.005238
625.643935,133.998066,172.283227,-9418.149754
625.644563,133.998066,153.140646,-9437.292334
625.645190,76.570323,114.855485,-9418.149754
625.645818,114.855485,95.712904,-9437.292334
625.646446,38.285162,114.855485,-9418.149754
625.647073,95.712904,114.855485,-9399.007173
625.647701,114.855485,95.712904,-9379.864592
625.648328,57.427742,95.712904,-9399.007173
625.648956,114.855485,95.712904,-9399.007173
625.649583,133.998066,133.998066,-9399.007173
625.650211,133.998066,153.140646,-9399.007173
625.650839,95.712904,133.998066,-9360.722011
625.651466,76.570323,114.855485,-9399.007173
625.652094,38.285162,172.283227,-9418.149754
625.652721,114.855485,133.998066,-9360.722011
625.653349,153.140646,133.998066,-9399.007173
625.653976,76.570323,153.140646,-9418.149754
625.654604,95.712904,172.283227,-9322.436850
625.655232,76.570323,114.855485,-9418.149754
625.655859,114.855485,95.712904,-9399.007173
625.656487,133.998066,114.855485,-9456.434915
625.657114,133.998066,153.140646,-9418.149754
625.657742,133.998066,153.140646,-9418.149754
625.658369,38.285162,172.283227,-9418.149754
625.658997,133.998066,114.855485,-9418.149754
625.659625,153.140646,133.998066,-9399.007173
625.660252,38.285162,114.855485,-9494.720077
625.660880,133.998066,133.998066,-9399.007173
625.661507,76.570323,153.140646,-9418.149754
625.662135,57.427742,114.855485,-9437.292334
625.662763,76.570323,153.140646,-9418.149754
625.663390,133.998066,114.855485,-9418.149754
625.664018,133.998066,114.855485,-9418.149754
625.664645,133.998066,114.855485,-9418.149754
625.665273,38.285162,114.855485,-9418.149754
625.665900,95.712904,114.855485,-9418.149754
625.666528,38.285162,191.425808,-9418.149754
625.667156,133.998066,133.998066,-9399.007173
625.667783,76.570323,172.283227,-9418.149754
625.668411,76.570323,114.855485,-9418.149754
625.669038,114.855485,172.283227,-9360.722011
625.669666,114.855485,153.140646,-9360.722011
625.670293,133.998066,172.283227,-9418.149754
625.670921,38.285162,153.140646,-9418.149754
625.671549,76.570323,114.855485,-9418.149754
625.672176,133.998066,114.855485,-9456.434915
625.672804,95.712904,172.283227,-9437.292334
625.673431,76.570323,172.283227,-9418.149754
625.674059,57.427742,114.855485,-9418.149754
625.674686,95.712904,191.425808,-9418.149754
625.675314,38.285162,210.568389,-9418.149754
625.675942,57.427742,153.140646,-9418.149754
625.676569,95.712904,95.712904,-9399.007173
625.677197,95.712904,95.712904,-9475.577496
625.677824,133.998066,114.855485,-9418.149754
625.678452,133.998066,153.140646,-9418.149754
625.679079,76.570323,114.855485,-9418.149754
625.679707,76.570323,153.140646,-9418.149754
625.680335,38.285162,153.140646,-9418.149754
625.680962,76.570323,153.140646,-9494.720077
625.681590,38.285162,114.855485,-9456.434915
625.682217,76.570323,153.140646,-9418.149754
625.682845,76.570323,153.140646,-9418.149754
625.683472,76.570323,172.283227,-9418.149754
625.684100,95.712904,114.855485,-9437.292334
625.684728,133.998066,210.568389,-9418.149754
625.685355,76.570323,114.855485,-9418.149754
625.685983,95.712904,114.855485,-9418.149754
625.686610,76.570323,114.855485,-9418.149754
625.687238,114.855485,95.712904,-9399.007173
625.687866,76.570323,114.855485,-9418.149754
625.688493,76.570323,153.140646,-9418.149754
625.689121,114.855485,95.712904,-9399.007173
625.689748,133.998066,114.855485,-9456.434915
625.690376,133.998066,172.283227,-9418.149754
625.691003,57.427742,133.998066,-9322.436850
625.691631,76.570323,114.855485,-9418.149754
625.692259,95.712904,191.425808,-9360.722011
625.692886,95.712904,95.712904,-9399.007173
625.693514,133.998066,114.855485,-9418.149754
625.694141,57.427742,95.712904,-9399.007173
625.694769,76.570323,210.568389,-9418.149754
625.695396,57.427742,95.712904,-9437.292334
625.696024,133.998066,114.855485,-9418.149754
625.696652,133.998066,133.998066,-9399.007173
625.697279,114.855485,95.712904,-9399.007173
625.697907,76.570323,114.855485,-9437.292334
625.698534,95.712904,133.998066,-9360.722011
625.699162,133.998066,133.998066,-9399.007173
625.699789,114.855485,114.855485,-9399.007173
625.700417,133.998066,153.140646,-9418.149754
625.701045,76.570323,114.855485,-9418.149754
625.701672,133.998066,114.855485,-9475.577496
625.702300,133.998066,172.283227,-9418.149754
625.702927,57.427742,133.998066,-9360.722011
625.703555,133.998066,114.855485,-9418.149754
625.704182,133.998066,114.855485,-9437.292334
625.704810,76.570323,172.283227,-9418.149754
625.705438,57.427742,210.568389,-9475.577496
625.706065,57.427742,95.712904,-9456.434915
625.706693,95.712904,95.712904,-9456.434915
625.707320,114.855485,95.712904,-9399.007173
625.707948,76.570323,114.855485,-9418.149754
625.708576,133.998066,114.855485,-9418.149754
625.709203,95.712904,133.998066,-9360.722011
625.709831,57.427742,153.140646,-9418.149754
625.710458,95.712904,133.998066,-9360.722011
625.711086,95.712904,133.998066,-9360.722011
625.711713,76.570323,114.855485,-9437.292334
625.712341,95.712904,210.568389,-9418.149754
625.712969,57.427742,210.568389,-9418.149754
625.713596,76.570323,172.283227,-9360.722011
625.714224,76.570323,153.140646,-9418.149754
625.714851,133.998066,172.283227,-9437.292334
625.715479,76.570323,172.283227,-9456.434915
625.716106,38.285162,210.568389,-9418.149754
625.716734,95.712904,114.855485,-9418.149754
625.717362,114.855485,95.712904,-9399.007173
625.717989,133.998066,172.283227,-9418.149754
625.718617,133.998066,153.140646,-9418.149754
625.719244,133.998066,153.140646,-9418.149754
625.719872,76.570323,210.568389,-9418.149754
625.720499,133.998066,114.855485,-9418.149754
625.721127,133.998066,114.855485,-9418.149754
625.721755,19.142581,114.855485,-9418.149754
625.722382,76.570323,153.140646,-9418.149754
625.723010,133.998066,114.855485,-9437.292334
625.723637,76.570323,76.570323,-9322.436850
625.724265,133.998066,114.855485,-9437.292334
625.724892,133.998066,114.855485,-9418.149754
625.725520,133.998066,133.998066,-9437.292334
625.726148,76.570323,114.855485,-9418.149754
625.726775,153.140646,114.855485,-9418.149754
625.727403,76.570323,172.283227,-9437.292334
625.728030,76.570323,114.855485,-9456.434915
625.728658,133.998066,114.855485,-9418.149754
625.729286,133.998066,114.855485,-9418.149754
625.729913,133.998066,133.998066,-9399.007173
625.730541,19.142581,114.855485,-9418.149754
625.731168,76.570323,172.283227,-9418.149754
625.731796,76.570323,153.140646,-9418.149754
625.732423,95.712904,153.140646,-9418.149754
625.733051,38.285162,95.712904,-9399.007173
625.733679,133.998066,114.855485,-9418.149754
625.734306,133.998066,133.998066,-9399.007173
625.734934,76.570323,153.140646,-9418.149754
625.735561,95.712904,153.140646,-9360.722011
625.736189,172.283227,114.855485,-9379.864592
625.736816,133.998066,153.140646,-9418.149754
625.737444,133.998066,114.855485,-9437.292334
625.738072,76.570323,114.855485,-9418.149754
625.738699,114.855485,133.998066,-9360.722011
625.739327,76.570323,114.855485,-9456.434915
625.739954,133.998066,114.855485,-9418.149754
625.740582,38.285162,114.855485,-9418.149754
625.741209,76.570323,191.425808,-9418.149754
625.741837,133.998066,172.283227,-9360.722011
625.742465,76.570323,172.283227,-9418.149754
625.743092,57.427742,95.712904,-9494.720077
625.743720,133.998066,114.855485,-9437.292334
625.744347,95.712904,95.712904,-9456.434915
625.744975,38.285162,114.855485,-9437.292334
625.745602,76.570323,114.855485,-9456.434915
625.746230,76.570323,114.855485,-9418.149754
625.746858,114.855485,133.998066,-9360.722011
625.747485,95.712904,114.855485,-9418.149754
625.748113,153.140646,172.283227,-9399.007173
625.748740,133.998066,133.998066,-9399.007173
625.749368,76.570323,172.283227,-9418.149754
625.749996,172.283227,172.283227,-9399.007173
625.750623,133.998066,153.140646,-9437.292334
625.751251,153.140646,133.998066,-9379.864592
625.751878,57.427742,133.998066,-9360.722011
625.752506,153.140646,133.998066,-9399.007173
625.753133,114.855485,172.283227,-9379.864592
625.753761,38.285162,153.140646,-9456.434915
625.754389,76.570323,114.855485,-9437.292334
625.755016,153.140646,229.710970,-9437.292334
625.755644,133.998066,153.140646,-9456.434915
625.756271,76.570323,114.855485,-9418.149754
625.756899,76.570323,114.855485,-9475.577496
625.757527,95.712904,38.285162,-9399.007173
625.758154,153.140646,76.570323,-9399.007173
625.758782,76.570323,114.855485,-9418.149754
625.759409,76.570323,210.568389,-9418.149754
625.760037,76.570323,153.140646,-9418.149754
625.760664,95.712904,114.855485,-9418.149754
625.761292,57.427742,172.283227,-9418.149754
625.761920,114.855485,133.998066,-9360.722011
625.762547,95.712904,153.140646,-9360.722011
625.763175,76.570323,153.140646,-9437.292334
625.763802,133.998066,114.855485,-9418.149754
625.764430,114.855485,95.712904,-9399.007173
625.765057,153.140646,133.998066,-9456.434915
625.765685,76.570323,153.140646,-9437.292334
625.766313,38.285162,114.855485,-9418.149754
625.766940,133.998066,114.855485,-9418.149754
625.767568,76.570323,114.855485,-9360.722011
625.768195,133.998066,114.855485,-9360.722011
625.768823,95.712904,114.855485,-9418.149754
625.769451,38.285162,114.855485,-9418.149754
625.770078,133.998066,133.998066,-9399.007173
625.770706,38.285162,76.570323,-9379.864592
625.771333,76.570323,114.855485,-9418.149754
625.771961,76.570323,114.855485,-9418.149754
625.772588,95.712904,133.998066,-9360.722011
625.773216,76.570323,172.283227,-9494.720077
625.773844,76.570323,114.855485,-9475.577496
625.774471,76.570323,114.855485,-9418.149754
625.775099,95.712904,95.712904,-9399.007173
625.775726,133.998066,114.855485,-9437.292334
625.776354,133.998066,114.855485,-9418.149754
625.776981,133.998066,153.140646,-9437.292334
625.777609,76.570323,114.855485,-9418.149754
625.778237,133.998066,153.140646,-9418.149754
625.778864,76.570323,114.855485,-9418.149754
625.779492,95.712904,95.712904,-9399.007173
625.780119,95.712904,95.712904,-9399.007173
625.780747,114.855485,114.855485,-9399.007173
625.781375,76.570323,114.855485,-9418.149754
625.782002,133.998066,210.568389,-9418.149754
625.782630,172.283227,172.283227,-9379.864592
625.783257,172.283227,76.570323,-9456.434915
625.783885,38.285162,114.855485,-9418.149754
625.784512,133.998066,133.998066,-9456.434915
625.785140,133.998066,114.855485,-9418.149754
625.785768,76.570323,172.283227,-9418.149754
625.786395,38.285162,114.855485,-9418.149754
625.787023,133.998066,172.283227,-9418.149754
625.787650,133.998066,114.855485,-9418.149754
625.788278,76.570323,114.855485,-9494.720077
625.788905,76.570323,114.855485,-9418.149754
625.789533,57.427742,114.855485,-9437.292334
625.790161,76.570323,114.855485,-9418.149754
625.790788,76.570323,153.140646,-9437.292334
625.791416,76.570323,229.710970,-9418.149754
625.792043,38.285162,114.855485,-9418.149754
625.792671,133.998066,114.855485,-9418.149754
625.793299,76.570323,114.855485,-9418.149754
625.793926,95.712904,95.712904,-9399.007173
625.794554,38.285162,114.855485,-9418.149754
625.795181,95.712904,133.998066,-9360.722011
625.795809,133.998066,172.283227,-9418.149754
625.796436,153.140646,191.425808,-9399.007173
625.797064,133.998066,114.855485,-9437.292334
625.797692,38.285162,114.855485,-9494.720077
625.798319,38.285162,114.855485,-9418.149754
625.798947,38.285162,114.855485,-9418.149754
625.799574,95.712904,172.283227,-9418.149754
625.800202,114.855485,95.712904,-9399.007173
625.800830,76.570323,114.855485,-9418.149754
625.801457,95.712904,114.855485,-9437.292334
625.802085,57.427742,95.712904,-9399.007173
625.802712,95.712904,95.712904,-9399.007173
625.803340,133.998066,153.140646,-9418.149754
625.803967,57.427742,133.998066,-9360.722011
625.804595,38.285162,114.855485,-9418.149754
625.805223,38.285162,114.855485,-9418.149754
625.805850,133.998066,114.855485,-9418.149754
625.806478,133.998066,114.855485,-9418.149754
625.807105,38.285162,153.140646,-9418.149754
625.807733,133.998066,114.855485,-9437.292334
625.808360,76.570323,114.855485,-9418.149754
625.808988,76.570323,95.712904,-9399.007173
625.809616,172.283227,76.570323,-9418.149754
625.810243,76.570323,114.855485,-9456.434915
625.810871,38.285162,114.855485,-9437.292334
625.811498,76.570323,153.140646,-9418.149754
625.812126,114.855485,76.570323,-9418.149754
625.812754,76.570323,114.855485,-9418.149754
625.813381,172.283227,133.998066,-9494.720077
625.814009,38.285162,172.283227,-9456.434915
625.814636,133.998066,172.283227,-9418.149754
625.815264,133.998066,210.568389,-9456.434915
625.815891,114.855485,172.283227,-9399.007173
625.816519,133.998066,114.855485,-9437.292334
625.817147,114.855485,133.998066,-9360.722011
625.817774,114.855485,191.425808,-9360.722011
625.818402,133.998066,114.855485,-9418.149754
625.819029,133.998066,114.855485,-9437.292334
625.819657,76.570323,172.283227,-9456.434915
625.820284,133.998066,172.283227,-9418.149754
625.820912,133.998066,114.855485,-9418.149754
625.821540,133.998066,191.425808,-9399.007173
625.822167,38.285162,172.283227,-9437.292334
625.822795,76.570323,172.283227,-9437.292334
625.823422,95.712904,114.855485,-9437.292334
625.824050,38.285162,76.570323,-9379.864592
625.824678,38.285162,114.855485,-9418.149754
625.825305,153.140646,133.998066,-9437.292334
625.825933,133.998066,114.855485,-9418.149754
625.826560,76.570323,114.855485,-9418.149754
625.827188,76.570323,114.855485,-9437.292334
625.827815,133.998066,114.855485,-9456.434915
625.828443,133.998066,133.998066,-9399.007173
625.829071,95.712904,229.710970,-9437.292334
625.829698,133.998066,133.998066,-9399.007173
625.830326,114.855485,191.425808,-9360.722011
625.830953,76.570323,114.855485,-9418.149754
625.831581,133.998066,114.855485,-9418.149754
625.832208,95.712904,172.283227,-9456.434915
625.832836,153.140646,153.140646,-9399.007173
625.833464,76.570323,114.855485,-9418.149754
625.834091,76.570323,95.712904,-9399.007173
625.834719,133.998066,114.855485,-9418.149754
625.835346,57.427742,95.712904,-9399.007173
625.835974,133.998066,114.855485,-9418.149754
625.836602,133.998066,114.855485,-9418.149754
625.837229,95.712904,133.998066,-9360.722011
625.837857,133.998066,114.855485,-9418.149754
625.838484,114.855485,95.712904,-9399.007173
625.839112,38.285162,114.855485,-9418.149754
625.839739,133.998066,114.855485,-9437.292334
625.840367,76.570323,172.283227,-9360.722011
625.840995,114.855485,95.712904,-9399.007173
625.841622,133.998066,114.855485,-9418.149754
625.842250,153.140646,133.998066,-9399.007173
625.842877,133.998066,114.855485,-9418.149754
625.843505,133.998066,172.283227,-9418.149754
625.844132,38.285162,114.855485,-9456.434915
625.844760,95.712904,133.998066,-9360.722011
625.845387,133.998066,114.855485,-9418.149754
625.846014,76.570323,172.283227,-9418.149754
625.846642,76.570323,153.140646,-9456.434915
625.847269,76.570323,153.140646,-9418.149754
625.847897,95.712904,114.855485,-9456.434915
625.848524,76.570323,114.855485,-9399.007173
625.849151,76.570323,114.855485,-9437.292334
625.849779,76.570323,114.855485,-9437.292334
625.850406,133.998066,153.140646,-9418.149754
625.851033,153.140646,191.425808,-9399.007173
625.851661,76.570323,114.855485,-9418.149754
625.852288,76.570323,114.855485,-9418.149754
625.852916,95.712904,133.998066,-9360.722011
625.853543,114.855485,172.283227,-9360.722011
625.854170,133.998066,114.855485,-9437.292334
625.854798,114.855485,133.998066,-9360.722011
625.855425,114.855485,76.570323,-9418.149754
625.856053,95.712904,153.140646,-9418.149754
625.856680,38.285162,114.855485,-9494.720077
625.857307,133.998066,114.855485,-9418.149754
625.857935,95.712904,153.140646,-9360.722011
625.858562,133.998066,153.140646,-9418.149754
625.859189,76.570323,172.283227,-9418.149754
625.859817,153.140646,114.855485,-9418.149754
625.860444,153.140646,133.998066,-9437.292334
625.861072,76.570323,114.855485,-9418.149754
625.861699,133.998066,114.855485,-9456.434915
625.862326,133.998066,153.140646,-9437.292334
625.862954,114.855485,133.998066,-9360.722011
625.863581,172.283227,114.855485,-9379.864592
625.864208,57.427742,153.140646,-9360.722011
625.864836,133.998066,114.855485,-9418.149754
625.865463,76.570323,153.140646,-9418.149754
625.866091,95.712904,95.712904,-9399.007173
625.866718,76.570323,210.568389,-9418.149754
625.867345,76.570323,229.710970,-9475.577496
625.867973,133.998066,210.568389,-9418.149754
625.868600,114.855485,95.712904,-9399.007173
625.869227,133.998066,114.855485,-9418.149754
625.869855,133.998066,172.283227,-9418.149754
625.870482,76.570323,114.855485,-9456.434915
625.871110,76.570323,172.283227,-9437.292334
625.871737,114.855485,95.712904,-9399.007173
625.872364,95.712904,133.998066,-9360.722011
625.872992,76.570323,114.855485,-9418.149754
625.873619,76.570323,114.855485,-9418.149754
625.874247,76.570323,114.855485,-9418.149754
625.874874,38.285162,114.855485,-9475.577496
625.875501,153.140646,133.998066,-9399.007173
625.876129,76.570323,153.140646,-9456.434915
625.876756,133.998066,153.140646,-9418.149754
625.877383,95.712904,172.283227,-9418.149754
625.878011,153.140646,172.283227,-9399.007173
625.878638,133.998066,133.998066,-9399.007173
625.879266,76.570323,114.855485,-9418.149754
625.879893,172.283227,114.855485,-9379.864592
625.880520,133.998066,172.283227,-9418.149754
625.881148,57.427742,172.283227,-9360.722011
625.881775,95.712904,114.855485,-9399.007173
625.882402,76.570323,114.855485,-9437.292334
625.883030,38.285162,114.855485,-9418.149754
625.883657,133.998066,114.855485,-9418.149754
625.884285,57.427742,191.425808,-9437.292334
625.884912,76.570323,114.855485,-9418.149754
625.885539,38.285162,114.855485,-9456.434915
625.886167,114.855485,153.140646,-9360.722011
625.886794,38.285162,114.855485,-9437.292334
625.887421,57.427742,133.998066,-9360.722011
625.888049,76.570323,114.855485,-9418.149754
625.888676,76.570323,133.998066,-9360.722011
625.889304,95.712904,114.855485,-9418.149754
625.889931,76.570323,114.855485,-9418.149754
625.890558,76.570323,114.855485,-9494.720077
625.891186,38.285162,114.855485,-9418.149754
625.891813,76.570323,114.855485,-9418.149754
625.892441,76.570323,172.283227,-9418.149754
625.893068,95.712904,172.283227,-9418.149754
625.893695,76.570323,153.140646,-9475.577496
625.894323,95.712904,114.855485,-9418.149754
625.894950,57.427742,153.140646,-9341.579430
625.895577,95.712904,114.855485,-9418.149754
625.896205,133.998066,114.855485,-9418.149754
625.896832,133.998066,133.998066,-9399.007173
625.897460,76.570323,172.283227,-9418.149754
625.898087,76.570323,114.855485,-9418.149754
625.898714,76.570323,153.140646,-9379.864592
625.899342,57.427742,114.855485,-9399.007173
625.899969,114.855485,133.998066,-9360.722011
625.900596,133.998066,172.283227,-9418.149754
625.901224,133.998066,172.283227,-9418.149754
625.901851,76.570323,210.568389,-9418.149754
625.902479,133.998066,114.855485,-9418.149754
625.903106,133.998066,153.140646,-9456.434915
625.903733,133.998066,114.855485,-9418.149754
625.904361,76.570323,153.140646,-9475.577496
625.904988,57.427742,114.855485,-9418.149754
625.905616,38.285162,210.568389,-9418.149754
625.906243,76.570323,210.568389,-9437.292334
625.906870,95.712904,172.283227,-9360.722011
625.907498,38.285162,153.140646,-9418.149754
625.908125,133.998066,114.855485,-9418.149754
625.908752,38.285162,114.855485,-9418.149754
625.909380,114.855485,133.998066,-9418.149754
625.910007,57.427742,133.998066,-9418.149754
625.910635,95.712904,95.712904,-9379.864592
625.911262,76.570323,114.855485,-9418.149754
625.911889,133.998066,76.570323,-9379.864592
625.912517,76.570323,153.140646,-9418.149754
625.913144,114.855485,95.712904,-9399.007173
625.913771,19.142581,172.283227,-9418.149754
625.914399,95.712904,210.568389,-9456.434915
625.915026,114.855485,153.140646,-9360.722011
625.915654,133.998066,114.855485,-9418.149754
625.916281,133.998066,114.855485,-9418.149754
625.916908,153.140646,172.283227,-9399.007173
625.917536,0.000000,133.998066,-9341.579430
625.918163,76.570323,114.855485,-9418.149754
625.918790,153.140646,133.998066,-9399.007173
625.919418,133.998066,172.283227,-9399.007173
625.920045,95.712904,114.855485,-9418.149754
625.920673,76.570323,114.855485,-9418.149754
625.921300,95.712904,95.712904,-9399.007173
625.921927,133.998066,133.998066,-9399.007173
625.922555,133.998066,133.998066,-9379.864592
625.923182,38.285162,76.570323,-9322.436850
625.923810,133.998066,114.855485,-9418.149754
625.924437,95.712904,95.712904,-9399.007173
625.925064,114.855485,95.712904,-9456.434915
625.925692,133.998066,114.855485,-9456.434915
625.926319,133.998066,133.998066,-9456.434915
625.926946,76.570323,153.140646,-9418.149754
625.927574,153.140646,133.998066,-9399.007173
625.928201,76.570323,172.283227,-9418.149754
625.928829,76.570323,210.568389,-9418.149754
625.929456,133.998066,153.140646,-9437.292334
625.930083,76.570323,172.283227,-9418.149754
625.930711,95.712904,133.998066,-9360.722011
625.931338,76.570323,172.283227,-9418.149754
625.931965,76.570323,172.283227,-9418.149754
625.932593,133.998066,133.998066,-9399.007173
625.933220,95.712904,114.855485,-9437.292334
625.933848,76.570323,114.855485,-9418.149754
625.934475,38.285162,114.855485,-9418.149754
625.935102,38.285162,114.855485,-9418.149754
625.935730,114.855485,133.998066,-9360.722011
625.936357,76.570323,172.283227,-9418.149754
625.936984,133.998066,114.855485,-9418.149754
625.937612,133.998066,114.855485,-9418.149754
625.938239,76.570323,114.855485,-9418.149754
625.938867,114.855485,133.998066,-9360.722011
625.939494,133.998066,172.283227,-9437.292334
625.940121,114.855485,95.712904,-9456.434915
625.940749,76.570323,114.855485,-9494.720077
625.941376,133.998066,114.855485,-9418.149754
625.942004,153.140646,133.998066,-9494.720077
625.942631,153.140646,153.140646,-9399.007173
625.943258,114.855485,95.712904,-9456.434915
625.943886,133.998066,114.855485,-9418.149754
625.944513,76.570323,114.855485,-9418.149754
625.945141,38.285162,153.140646,-9418.149754
625.945768,76.570323,210.568389,-9418.149754
625.946396,114.855485,95.712904,-9456.434915
625.947023,172.283227,133.998066,-9418.149754
625.947651,95.712904,133.998066,-9360.722011
625.948278,95.712904,114.855485,-9418.149754
625.948906,38.285162,114.855485,-9418.149754
625.949533,114.855485,95.712904,-9399.007173
625.950161,38.285162,114.855485,-9418.149754
625.950788,133.998066,114.855485,-9475.577496
625.951416,133.998066,172.283227,-9418.149754
625.952044,153.140646,172.283227,-9399.007173
625.952671,76.570323,95.712904,-9399.007173
625.953299,38.285162,114.855485,-9437.292334
625.953926,133.998066,114.855485,-9475.577496
625.954554,133.998066,114.855485,-9360.722011
625.955181,38.285162,153.140646,-9418.149754
625.955809,76.570323,153.140646,-9360.722011
625.956436,57.427742,133.998066,-9360.722011
625.957064,57.427742,153.140646,-9418.149754
625.957691,76.570323,114.855485,-9418.149754
625.958319,172.283227,133.998066,-9418.149754
625.958946,133.998066,172.283227,-9418.149754
625.959574,76.570323,172.283227,-9418.149754
625.960201,114.855485,95.712904,-9399.007173
625.960829,76.570323,76.570323,-9379.864592
625.961456,38.285162,153.140646,-9418.149754
625.962084,76.570323,153.140646,-9418.149754
625.962712,38.285162,114.855485,-9418.149754
625.963339,133.998066,114.855485,-9418.149754
625.963967,114.855485,172.283227,-9360.722011
625.964594,95.712904,133.998066,-9360.722011
625.965222,38.285162,114.855485,-9418.149754
625.965849,114.855485,133.998066,-9360.722011
625.966477,133.998066,172.283227,-9418.149754
625.967104,95.712904,95.712904,-9399.007173
625.967732,95.712904,95.712904,-9399.007173
625.968359,133.998066,114.855485,-9418.149754
625.968987,57.427742,133.998066,-9418.149754
625.969614,133.998066,114.855485,-9418.149754
625.970242,76.570323,114.855485,-9418.149754
625.970869,76.570323,76.570323,-9379.864592
625.971497,114.855485,95.712904,-9399.007173
625.972125,38.285162,95.712904,-9399.007173
625.972752,114.855485,95.712904,-9437.292334
625.973380,95.712904,57.427742,-9399.007173
625.974007,95.712904,38.285162,-9456.434915
625.974635,133.998066,114.855485,-9456.434915
625.975262,76.570323,114.855485,-9418.149754
625.975890,153.140646,95.712904,-9360.722011
625.976517,133.998066,210.568389,-9418.149754
625.977145,133.998066,153.140646,-9418.149754
625.977772,57.427742,95.712904,-9456.434915
625.978400,76.570323,114.855485,-9418.149754
625.979027,76.570323,210.568389,-9418.149754
625.979655,95.712904,191.425808,-9418.149754
625.980282,133.998066,191.425808,-9399.007173
625.980910,76.570323,114.855485,-9418.149754
625.981537,38.285162,172.283227,-9418.149754
625.982165,133.998066,114.855485,-9437.292334
625.982793,133.998066,133.998066,-9456.434915
625.983420,133.998066,133.998066,-9399.007173
625.984048,133.998066,114.855485,-9418.149754
625.984675,133.998066,114.855485,-9418.149754
625.985303,153.140646,133.998066,-9494.720077
625.985930,76.570323,210.568389,-9418.149754
625.986558,133.998066,114.855485,-9418.149754
625.987185,153.140646,133.998066,-9399.007173
625.987813,57.427742,95.712904,-9399.007173
625.988440,95.712904,95.712904,-9437.292334
625.989068,95.712904,95.712904,-9399.007173
625.989695,153.140646,114.855485,-9418.149754
625.990323,153.140646,153.140646,-9494.720077
625.990950,133.998066,153.140646,-9456.434915
625.991578,133.998066,114.855485,-9475.577496
625.992205,38.285162,76.570323,-9322.436850
625.992833,172.283227,95.712904,-9399.007173
625.993461,95.712904,172.283227,-9360.722011
625.994088,38.285162,114.855485,-9475.577496
625.994716,38.285162,114.855485,-9418.149754
625.995343,133.998066,153.140646,-9418.149754
625.995971,133.998066,172.283227,-9456.434915
625.996598,76.570323,76.570323,-9399.007173
625.997226,38.285162,210.568389,-9418.149754
625.997853,76.570323,153.140646,-9418.149754
625.998481,95.712904,114.855485,-9418.149754
625.999108,153.140646,191.425808,-9456.434915
625.999736,76.570323,114.855485,-9418.149754
626.000363,133.998066,210.568389,-9437.292334
626.000991,38.285162,210.568389,-9418.149754
626.001618,133.998066,210.568389,-9418.149754
626.002246,133.998066,114.855485,-9418.149754
626.002873,133.998066,153.140646,-9418.149754
626.003501,76.570323,114.855485,-9418.149754
626.004129,57.427742,172.283227,-9360.722011
626.004756,76.570323,172.283227,-9418.149754
626.005384,133.998066,153.140646,-9418.149754
626.006011,76.570323,114.855485,-9418.149754
626.006639,76.570323,172.283227,-9418.149754
626.007266,95.712904,172.283227,-9418.149754
626.007894,133.998066,114.855485,-9418.149754
626.008521,210.568389,95.712904,-9360.722011
626.009149,133.998066,114.855485,-9418.149754
626.009776,133.998066,114.855485,-9418.149754
626.010404,133.998066,210.568389,-9475.577496
626.011031,76.570323,172.283227,-9418.149754
626.011659,76.570323,114.855485,-9418.149754
626.012286,114.855485,76.570323,-9418.149754
626.012914,76.570323,114.855485,-9418.149754
626.013541,133.998066,191.425808,-9418.149754
626.014169,133.998066,210.568389,-9360.722011
626.014797,114.855485,153.140646,-9360.722011
626.015424,76.570323,114.855485,-9456.434915
626.016052,95.712904,114.855485,-9418.149754
626.016679,76.570323,114.855485,-9418.149754
626.017307,76.570323,172.283227,-9418.149754
626.017934,133.998066,210.568389,-9418.149754
626.018562,133.998066,172.283227,-9399.007173
626.019189,133.998066,114.855485,-9418.149754
626.019817,95.712904,95.712904,-9399.007173
626.020444,76.570323,114.855485,-9437.292334
626.021072,76.570323,229.710970,-9437.292334
626.021699,38.285162,114.855485,-9437.292334
626.022327,133.998066,153.140646,-9418.149754
626.022954,114.855485,133.998066,-9341.579430
626.023582,95.712904,76.570323,-9418.149754
626.024209,114.855485,172.283227,-9360.722011
626.024837,76.570323,153.140646,-9475.577496
626.025465,133.998066,210.568389,-9418.149754
626.026092,38.285162,114.855485,-9437.292334
626.026720,95.712904,133.998066,-9360.722011
626.027347,133.998066,114.855485,-9418.149754
626.027975,133.998066,133.998066,-9399.007173
626.028602,76.570323,153.140646,-9418.149754
626.029230,76.570323,114.855485,-9418.149754
626.029857,95.712904,172.283227,-9418.149754
626.030485,133.998066,114.855485,-9418.149754
626.031112,76.570323,172.283227,-9437.292334
626.031740,133.998066,114.855485,-9418.149754
626.032367,114.855485,95.712904,-9494.720077
626.032995,95.712904,95.712904,-9379.864592
626.033622,95.712904,95.712904,-9399.007173
626.034250,38.285162,114.855485,-9418.149754
626.034877,133.998066,114.855485,-9456.434915
626.035505,133.998066,114.855485,-9418.149754
626.036133,114.855485,95.712904,-9379.864592
626.036760,133.998066,76.570323,-9379.864592
626.037388,95.712904,133.998066,-9360.722011
626.038015,76.570323,114.855485,-9437.292334
626.038643,133.998066,114.855485,-9418.149754
626.039270,95.712904,114.855485,-9437.292334
626.039898,114.855485,95.712904,-9399.007173
626.040525,76.570323,114.855485,-9456.434915
