#time,accel_x,accel_y,accel_z
488.229828,114.855485,153.140646,-9245.866526
488.230455,57.427742,172.283227,-9303.294269
488.231083,57.427742,248.853550,-9360.722011
488.231710,0.000000,287.138712,-9475.577496
488.232337,-19.142581,267.996131,-9437.292334
488.232965,57.427742,172.283227,-9552.147819
488.233592,76.570323,114.855485,-9475.577496
488.234219,210.568389,95.712904,-9552.147819
488.234847,153.140646,76.570323,-9494.720077
488.235474,191.425808,76.570323,-9418.149754
488.236101,172.283227,57.427742,-9360.722011
488.236728,133.998066,76.570323,-9322.436850
488.237356,76.570323,114.855485,-9418.149754
488.237983,57.427742,133.998066,-9360.722011
488.238610,76.570323,229.710970,-9437.292334
488.239238,-57.427742,248.853550,-9494.720077
488.239865,57.427742,172.283227,-9552.147819
488.240492,133.998066,114.855485,-9533.005238
488.241120,153.140646,133.998066,-9494.720077
488.241747,172.283227,95.712904,-9494.720077
488.242374,153.140646,133.998066,-9399.007173
488.243002,229.710970,76.570323,-9418.149754
488.243629,229.710970,114.855485,-9322.436850
488.244256,114.855485,133.998066,-9245.866526
488.244884,57.427742,153.140646,-9341.579430
488.245511,57.427742,191.425808,-9360.722011
488.246138,38.285162,287.138712,-9456.434915
488.246766,57.427742,248.853550,-9533.005238
488.247393,76.570323,229.710970,-9533.005238
488.248020,95.712904,191.425808,-9552.147819
488.248647,172.283227,153.140646,-9513.862658
488.249275,172.283227,95.712904,-9437.292334
488.249902,172.283227,38.285162,-9399.007173
488.250529,191.425808,57.427742,-9418.149754
488.251157,210.568389,95.712904,-9303.294269
488.251784,133.998066,76.570323,-9322.436850
488.252411,76.570323,76.570323,-9379.864592
488.253039,76.570323,172.283227,-9418.149754
488.253666,-38.285162,210.568389,-9399.007173
488.254293,38.285162,191.425808,-9533.005238
488.254921,38.285162,210.568389,-9533.005238
488.255548,114.855485,229.710970,-9494.720077
488.256175,133.998066,172.283227,-9475.577496
488.256803,153.140646,133.998066,-9437.292334
488.257430,229.710970,76.570323,-9360.722011
488.258057,153.140646,95.712904,-9341.579430
488.258684,95.712904,133.998066,-9303.294269
488.259312,38.285162,133.998066,-9322.436850
488.259939,95.712904,191.425808,-9360.722011
488.260566,95.712904,172.283227,-9418.149754
488.261194,38.285162,229.710970,-9533.005238
488.261821,38.285162,229.710970,-9494.720077
488.262448,57.427742,248.853550,-9552.147819
488.263076,95.712904,133.998066,-9552.147819
488.263703,133.998066,76.570323,-9571.290400
488.264330,114.855485,95.712904,-9437.292334
488.264958,229.710970,76.570323,-9360.722011
488.265585,133.998066,76.570323,-9303.294269
488.266212,133.998066,76.570323,-9322.436850
488.266840,57.427742,133.998066,-9284.151688
488.267467,0.000000,210.568389,-9360.722011
488.268094,57.427742,210.568389,-9494.720077
488.268722,0.000000,267.996131,-9475.577496
488.269349,38.285162,229.710970,-9533.005238
488.269976,57.427742,172.283227,-9590.432981
488.270603,95.712904,172.283227,-9456.434915
488.271231,133.998066,133.998066,-9437.292334
488.271858,191.425808,38.285162,-9360.722011
488.272485,191.425808,114.855485,-9303.294269
488.273113,191.425808,76.570323,-9226.723946
488.273740,133.998066,76.570323,-9265.009107
488.274367,114.855485,133.998066,-9303.294269
488.274995,57.427742,191.425808,-9341.579430
488.275622,38.285162,267.996131,-9399.007173
488.276249,76.570323,229.710970,-9494.720077
488.276877,95.712904,191.425808,-9552.147819
488.277504,76.570323,153.140646,-9647.860723
488.278131,76.570323,76.570323,-9571.290400
488.278759,95.712904,57.427742,-9513.862658
488.279386,191.425808,57.427742,-9456.434915
488.280013,172.283227,76.570323,-9360.722011
488.280641,210.568389,95.712904,-9322.436850
488.281268,76.570323,76.570323,-9303.294269
488.281895,95.712904,133.998066,-9322.436850
488.282522,38.285162,210.568389,-9341.579430
488.283150,19.142581,229.710970,-9418.149754
488.283777,-38.285162,191.425808,-9494.720077
488.284405,19.142581,229.710970,-9533.005238
488.285032,114.855485,191.425808,-9533.005238
488.285659,153.140646,133.998066,-9456.434915
488.286287,172.283227,76.570323,-9418.149754
488.286914,191.425808,114.855485,-9379.864592
488.287541,210.568389,95.712904,-9303.294269
488.288169,191.425808,114.855485,-9265.009107
488.288796,114.855485,210.568389,-9303.294269
488.289423,114.855485,172.283227,-9360.722011
488.290051,19.142581,191.425808,-9418.149754
488.290678,-19.142581,287.138712,-9513.862658
488.291306,19.142581,229.710970,-9533.005238
488.291933,0.000000,210.568389,-9571.290400
488.292560,95.712904,133.998066,-9552.147819
488.293188,133.998066,172.283227,-9513.862658
488.293815,114.855485,95.712904,-9437.292334
488.294442,153.140646,133.998066,-9399.007173
488.295070,172.283227,114.855485,-9379.864592
488.295697,210.568389,95.712904,-9284.151688
488.296325,133.998066,76.570323,-9265.009107
488.296952,114.855485,153.140646,-9360.722011
488.297579,38.285162,210.568389,-9437.292334
488.298207,19.142581,325.423874,-9571.290400
488.298834,57.427742,287.138712,-9494.720077
488.299461,133.998066,210.568389,-9475.577496
488.300089,95.712904,210.568389,-9475.577496
488.300716,191.425808,76.570323,-9418.149754
488.301343,210.568389,76.570323,-9399.007173
488.301971,153.140646,95.712904,-9341.579430
488.302598,210.568389,114.855485,-9265.009107
488.303226,153.140646,114.855485,-9341.579430
488.303853,76.570323,133.998066,-9284.151688
488.304480,57.427742,210.568389,-9322.436850
488.305108,38.285162,153.140646,-9437.292334
488.305735,19.142581,172.283227,-9533.005238
488.306362,0.000000,172.283227,-9609.575562
488.306990,57.427742,133.998066,-9552.147819
488.307617,114.855485,191.425808,-9533.005238
488.308244,133.998066,95.712904,-9456.434915
488.308872,114.855485,38.285162,-9399.007173
488.309499,229.710970,76.570323,-9360.722011
488.310127,153.140646,95.712904,-9245.866526
488.310754,76.570323,19.142581,-9322.436850
488.311381,95.712904,172.283227,-9341.579430
488.312009,57.427742,248.853550,-9360.722011
488.312636,0.000000,306.281293,-9456.434915
488.313263,19.142581,229.710970,-9475.577496
488.313891,38.285162,210.568389,-9475.577496
488.314518,38.285162,153.140646,-9533.005238
488.315145,133.998066,114.855485,-9475.577496
488.315773,210.568389,133.998066,-9437.292334
488.316400,229.710970,76.570323,-9418.149754
488.317028,229.710970,76.570323,-9418.149754
488.317655,172.283227,114.855485,-9379.864592
488.318282,95.712904,76.570323,-9322.436850
488.318910,76.570323,76.570323,-9399.007173
488.319537,38.285162,172.283227,-9399.007173
488.320164,19.142581,229.710970,-9437.292334
488.320792,0.000000,191.425808,-9552.147819
488.321419,38.285162,172.283227,-9533.005238
488.322047,114.855485,172.283227,-9552.147819
488.322674,172.283227,76.570323,-9475.577496
488.323301,191.425808,57.427742,-9418.149754
488.323929,229.710970,76.570323,-9418.149754
488.324556,114.855485,114.855485,-9303.294269
488.325183,114.855485,133.998066,-9245.866526
488.325811,95.712904,210.568389,-9303.294269
488.326438,57.427742,248.853550,-9303.294269
488.327065,76.570323,267.996131,-9379.864592
488.327693,38.285162,287.138712,-9513.862658
488.328320,76.570323,325.423874,-9571.290400
488.328948,57.427742,191.425808,-9533.005238
488.329575,76.570323,133.998066,-9533.005238
488.330202,153.140646,133.998066,-9494.720077
488.330830,153.140646,133.998066,-9437.292334
488.331457,114.855485,95.712904,-9399.007173
488.332084,172.283227,76.570323,-9360.722011
488.332712,133.998066,76.570323,-9303.294269
488.333339,76.570323,133.998066,-9303.294269
488.333966,76.570323,248.853550,-9360.722011
488.334594,38.285162,191.425808,-9418.149754
488.335221,-76.570323,153.140646,-9590.432981
488.335849,0.000000,191.425808,-9552.147819
488.336476,57.427742,248.853550,-9552.147819
488.337103,153.140646,172.283227,-9494.720077
488.337731,133.998066,114.855485,-9475.577496
488.338358,172.283227,95.712904,-9437.292334
488.338985,191.425808,19.142581,-9360.722011
488.339613,210.568389,95.712904,-9303.294269
488.340240,76.570323,76.570323,-9322.436850
488.340868,114.855485,172.283227,-9284.151688
488.341495,114.855485,191.425808,-9360.722011
488.342122,76.570323,229.710970,-9475.577496
488.342750,19.142581,172.283227,-9456.434915
488.343377,0.000000,191.425808,-9552.147819
488.344004,57.427742,191.425808,-9552.147819
488.344632,76.570323,114.855485,-9437.292334
488.345259,172.283227,76.570323,-9475.577496
488.345886,114.855485,95.712904,-9399.007173
488.346514,153.140646,76.570323,-9303.294269
488.347141,153.140646,76.570323,-9322.436850
488.347769,38.285162,19.142581,-9379.864592
488.348396,57.427742,95.712904,-9399.007173
488.349023,38.285162,114.855485,-9418.149754
488.349651,19.142581,210.568389,-9494.720077
488.350278,38.285162,229.710970,-9475.577496
488.350905,0.000000,153.140646,-9590.432981
488.351533,57.427742,172.283227,-9590.432981
488.352160,133.998066,95.712904,-9533.005238
488.352787,133.998066,95.712904,-9456.434915
488.353415,210.568389,0.000000,-9360.722011
488.354042,210.568389,95.712904,-9284.151688
488.354670,210.568389,114.855485,-9284.151688
488.355297,76.570323,76.570323,-9265.009107
488.355924,57.427742,191.425808,-9303.294269
488.356552,57.427742,191.425808,-9360.722011
488.357179,-19.142581,267.996131,-9437.292334
488.357806,-38.285162,248.853550,-9513.862658
488.358434,38.285162,153.140646,-9533.005238
488.359061,133.998066,153.140646,-9475.577496
488.359688,133.998066,114.855485,-9533.005238
488.360316,172.283227,76.570323,-9437.292334
488.360943,191.425808,57.427742,-9360.722011
488.361571,210.568389,95.712904,-9360.722011
488.362198,76.570323,76.570323,-9265.009107
488.362825,133.998066,76.570323,-9322.436850
488.363453,133.998066,153.140646,-9379.864592
488.364080,76.570323,210.568389,-9418.149754
488.364707,38.285162,153.140646,-9494.720077
488.365335,0.000000,191.425808,-9552.147819
488.365962,95.712904,153.140646,-9552.147819
488.366590,133.998066,114.855485,-9533.005238
488.367217,76.570323,114.855485,-9533.005238
488.367844,133.998066,114.855485,-9418.149754
488.368472,229.710970,114.855485,-9379.864592
488.369099,153.140646,95.712904,-9284.151688
488.369726,95.712904,133.998066,-9303.294269
488.370354,38.285162,95.712904,-9399.007173
488.370981,57.427742,172.283227,-9341.579430
488.371608,38.285162,287.138712,-9456.434915
488.372236,19.142581,210.568389,-9475.577496
488.372863,57.427742,133.998066,-9552.147819
488.373491,57.427742,191.425808,-9552.147819
488.374118,153.140646,133.998066,-9494.720077
488.374745,172.283227,76.570323,-9456.434915
488.375373,172.283227,76.570323,-9418.149754
488.376000,114.855485,95.712904,-9399.007173
488.376627,133.998066,38.285162,-9341.579430
488.377255,133.998066,76.570323,-9379.864592
488.377882,95.712904,172.283227,-9360.722011
488.378509,76.570323,172.283227,-9418.149754
488.379137,19.142581,210.568389,-9533.005238
488.379764,-38.285162,191.425808,-9533.005238
488.380392,76.570323,267.996131,-9513.862658
488.381019,57.427742,133.998066,-9552.147819
488.381646,114.855485,133.998066,-9552.147819
488.382274,153.140646,114.855485,-9456.434915
488.382901,191.425808,76.570323,-9341.579430
488.383528,248.853550,95.712904,-9303.294269
488.384155,172.283227,114.855485,-9284.151688
488.384782,133.998066,76.570323,-9284.151688
488.385410,38.285162,191.425808,-9303.294269
488.386037,95.712904,191.425808,-9360.722011
488.386664,76.570323,229.710970,-9494.720077
488.387291,19.142581,248.853550,-9513.862658
488.387918,38.285162,229.710970,-9533.005238
488.388545,95.712904,172.283227,-9552.147819
488.389173,76.570323,114.855485,-9475.577496
488.389800,76.570323,95.712904,-9437.292334
488.390427,172.283227,19.142581,-9456.434915
488.391054,153.140646,38.285162,-9360.722011
488.391681,153.140646,95.712904,-9360.722011
488.392308,114.855485,95.712904,-9379.864592
488.392936,95.712904,153.140646,-9322.436850
488.393563,38.285162,153.140646,-9456.434915
488.394190,19.142581,267.996131,-9513.862658
488.394817,19.142581,248.853550,-9513.862658
488.395444,57.427742,287.138712,-9513.862658
488.396071,114.855485,133.998066,-9552.147819
488.396698,133.998066,114.855485,-9475.577496
488.397326,210.568389,133.998066,-9379.864592
488.397953,210.568389,95.712904,-9360.722011
488.398580,210.568389,95.712904,-9303.294269
488.399207,133.998066,95.712904,-9360.722011
488.399834,95.712904,133.998066,-9245.866526
488.400461,57.427742,153.140646,-9360.722011
488.401089,0.000000,210.568389,-9418.149754
488.401716,38.285162,191.425808,-9456.434915
488.402343,19.142581,229.710970,-9533.005238
488.402970,57.427742,172.283227,-9647.860723
488.403597,76.570323,153.140646,-9552.147819
488.404224,191.425808,114.855485,-9571.290400
488.404851,172.283227,76.570323,-9418.149754
488.405479,133.998066,76.570323,-9379.864592
488.406106,114.855485,38.285162,-9360.722011
488.406733,114.855485,38.285162,-9360.722011
488.407360,114.855485,133.998066,-9341.579430
488.407987,57.427742,133.998066,-9360.722011
488.408614,95.712904,210.568389,-9360.722011
488.409242,57.427742,287.138712,-9494.720077
488.409869,38.285162,229.710970,-9533.005238
488.410496,57.427742,248.853550,-9533.005238
488.411123,76.570323,210.568389,-9456.434915
488.411750,114.855485,133.998066,-9475.577496
488.412377,191.425808,76.570323,-9418.149754
488.413005,191.425808,114.855485,-9379.864592
488.413632,191.425808,153.140646,-9284.151688
488.414259,172.283227,114.855485,-9303.294269
488.414886,57.427742,133.998066,-9341.579430
488.415513,133.998066,153.140646,-9322.436850
488.416140,19.142581,229.710970,-9437.292334
488.416767,-38.285162,153.140646,-9513.862658
488.417395,19.142581,210.568389,-9533.005238
488.418022,57.427742,133.998066,-9590.432981
488.418649,95.712904,153.140646,-9552.147819
488.419276,133.998066,57.427742,-9571.290400
488.419903,172.283227,19.142581,-9418.149754
488.420530,210.568389,38.285162,-9284.151688
488.421158,133.998066,38.285162,-9322.436850
488.421785,114.855485,133.998066,-9303.294269
488.422412,95.712904,133.998066,-9322.436850
488.423039,76.570323,229.710970,-9418.149754
488.423666,57.427742,229.710970,-9437.292334
488.424293,0.000000,287.138712,-9494.720077
488.424920,57.427742,229.710970,-9513.862658
488.425548,57.427742,248.853550,-9552.147819
488.426175,153.140646,172.283227,-9533.005238
488.426802,210.568389,133.998066,-9399.007173
488.427429,210.568389,133.998066,-9437.292334
488.428056,191.425808,95.712904,-9341.579430
488.428683,153.140646,95.712904,-9341.579430
488.429311,114.855485,114.855485,-9322.436850
488.429938,57.427742,133.998066,-9360.722011
488.430565,133.998066,191.425808,-9399.007173
488.431192,76.570323,210.568389,-9533.005238
488.431819,38.285162,287.138712,-9533.005238
488.432446,38.285162,153.140646,-9552.147819
488.433073,114.855485,95.712904,-9513.862658
488.433701,76.570323,133.998066,-9533.005238
488.434328,114.855485,0.000000,-9456.434915
488.434955,172.283227,19.142581,-9418.149754
488.435582,153.140646,95.712904,-9284.151688
488.436209,76.570323,76.570323,-9284.151688
488.436836,153.140646,95.712904,-9245.866526
488.437464,95.712904,172.283227,-9322.436850
488.438091,76.570323,210.568389,-9418.149754
488.438718,38.285162,229.710970,-9533.005238
488.439345,57.427742,287.138712,-9475.577496
488.439972,38.285162,172.283227,-9533.005238
488.440599,38.285162,229.710970,-9456.434915
488.441227,153.140646,133.998066,-9513.862658
488.441854,191.425808,114.855485,-9322.436850
488.442481,191.425808,114.855485,-9379.864592
488.443108,248.853550,95.712904,-9303.294269
488.443735,114.855485,114.855485,-9379.864592
488.444362,38.285162,76.570323,-9379.864592
488.444989,57.427742,133.998066,-9360.722011
488.445617,95.712904,133.998066,-9360.722011
488.446244,19.142581,172.283227,-9533.005238
488.446871,0.000000,229.710970,-9513.862658
488.447498,38.285162,191.425808,-9609.575562
488.448125,95.712904,133.998066,-9552.147819
488.448752,95.712904,76.570323,-9513.862658
488.449380,153.140646,114.855485,-9418.149754
488.450007,229.710970,76.570323,-9418.149754
488.450634,229.710970,76.570323,-9360.722011
488.451261,114.855485,114.855485,-9379.864592
488.451888,95.712904,133.998066,-9284.151688
488.452515,0.000000,210.568389,-9360.722011
488.453142,38.285162,210.568389,-9494.720077
488.453770,57.427742,287.138712,-9456.434915
488.454397,0.000000,306.281293,-9513.862658
488.455024,38.285162,248.853550,-9571.290400
488.455651,95.712904,172.283227,-9533.005238
488.456278,95.712904,114.855485,-9456.434915
488.456905,172.283227,76.570323,-9418.149754
488.457533,229.710970,76.570323,-9360.722011
488.458160,153.140646,95.712904,-9322.436850
488.458787,76.570323,114.855485,-9360.722011
488.459414,57.427742,133.998066,-9360.722011
488.460041,95.712904,210.568389,-9360.722011
488.460668,19.142581,229.710970,-9494.720077
488.461296,95.712904,153.140646,-9533.005238
488.461923,19.142581,153.140646,-9533.005238
488.462550,57.427742,133.998066,-9590.432981
488.463177,38.285162,95.712904,-9533.005238
488.463804,95.712904,114.855485,-9475.577496
488.464431,172.283227,38.285162,-9379.864592
488.465058,153.140646,57.427742,-9303.294269
488.465686,153.140646,38.285162,-9303.294269
488.466313,133.998066,38.285162,-9265.009107
488.466940,95.712904,153.140646,-9303.294269
488.467567,76.570323,287.138712,-9360.722011
488.468194,0.000000,287.138712,-9456.434915
488.468821,57.427742,229.710970,-9513.862658
488.469449,57.427742,229.710970,-9513.862658
488.470076,38.285162,153.140646,-9533.005238
488.470703,133.998066,114.855485,-9533.005238
488.471330,114.855485,95.712904,-9399.007173
488.471957,153.140646,95.712904,-9360.722011
488.472584,248.853550,95.712904,-9303.294269
488.473211,76.570323,76.570323,-9379.864592
488.473839,133.998066,76.570323,-9379.864592
488.474466,-38.285162,153.140646,-9418.149754
488.475093,38.285162,153.140646,-9437.292334
488.475720,19.142581,229.710970,-9533.005238
488.476347,38.285162,229.710970,-9533.005238
488.476974,95.712904,191.425808,-9552.147819
488.477602,114.855485,153.140646,-9609.575562
488.478229,114.855485,133.998066,-9552.147819
488.478856,114.855485,95.712904,-9399.007173
488.479483,191.425808,76.570323,-9360.722011
488.480110,153.140646,95.712904,-9245.866526
488.480737,95.712904,133.998066,-9245.866526
488.481364,114.855485,133.998066,-9245.866526
488.481992,114.855485,172.283227,-9341.579430
488.482619,114.855485,248.853550,-9360.722011
488.483246,38.285162,229.710970,-9475.577496
488.483873,76.570323,287.138712,-9494.720077
488.484500,76.570323,210.568389,-9552.147819
488.485128,153.140646,114.855485,-9533.005238
488.485755,153.140646,95.712904,-9533.005238
488.486382,172.283227,38.285162,-9456.434915
488.487009,153.140646,38.285162,-9341.579430
488.487637,191.425808,38.285162,-9341.579430
488.488264,133.998066,76.570323,-9379.864592
488.488891,76.570323,76.570323,-9379.864592
488.489518,133.998066,114.855485,-9418.149754
488.490145,57.427742,133.998066,-9360.722011
488.490773,19.142581,210.568389,-9475.577496
488.491400,76.570323,172.283227,-9533.005238
488.492027,0.000000,191.425808,-9533.005238
488.492654,114.855485,172.283227,-9475.577496
488.493282,76.570323,114.855485,-9418.149754
488.493909,172.283227,76.570323,-9360.722011
488.494536,172.283227,76.570323,-9341.579430
488.495163,76.570323,76.570323,-9265.009107
488.495791,76.570323,153.140646,-9303.294269
488.496418,114.855485,210.568389,-9284.151688
488.497045,95.712904,133.998066,-9341.579430
488.497672,38.285162,153.140646,-9475.577496
488.498299,19.142581,210.568389,-9533.005238
488.498927,57.427742,210.568389,-9552.147819
488.499554,114.855485,153.140646,-9552.147819
488.500181,76.570323,153.140646,-9533.005238
488.500808,133.998066,76.570323,-9513.862658
488.501436,210.568389,133.998066,-9456.434915
488.502063,172.283227,76.570323,-9360.722011
488.502690,95.712904,76.570323,-9284.151688
488.503317,114.855485,95.712904,-9399.007173
488.503945,114.855485,133.998066,-9360.722011
488.504572,95.712904,191.425808,-9379.864592
488.505199,38.285162,153.140646,-9533.005238
488.505826,38.285162,172.283227,-9552.147819
488.506453,0.000000,133.998066,-9590.432981
488.507081,76.570323,172.283227,-9552.147819
488.507708,76.570323,114.855485,-9456.434915
488.508335,114.855485,95.712904,-9399.007173
488.508962,172.283227,114.855485,-9379.864592
488.509590,191.425808,114.855485,-9322.436850
488.510217,133.998066,76.570323,-9379.864592
488.510844,153.140646,210.568389,-9379.864592
488.511471,114.855485,153.140646,-9284.151688
488.512099,76.570323,229.710970,-9418.149754
488.512726,38.285162,229.710970,-9437.292334
488.513353,19.142581,210.568389,-9494.720077
488.513980,57.427742,210.568389,-9571.290400
488.514607,95.712904,76.570323,-9513.862658
488.515235,114.855485,95.712904,-9513.862658
488.515862,172.283227,38.285162,-9437.292334
488.516489,191.425808,57.427742,-9418.149754
488.517116,172.283227,0.000000,-9265.009107
488.517744,114.855485,95.712904,-9379.864592
488.518371,76.570323,114.855485,-9360.722011
488.518998,95.712904,153.140646,-9360.722011
488.519625,0.000000,210.568389,-9360.722011
488.520253,-38.285162,191.425808,-9513.862658
488.520880,57.427742,229.710970,-9533.005238
488.521507,57.427742,191.425808,-9552.147819
488.522134,95.712904,114.855485,-9533.005238
488.522761,38.285162,114.855485,-9533.005238
488.523389,133.998066,95.712904,-9418.149754
488.524016,133.998066,76.570323,-9322.436850
488.524643,114.855485,19.142581,-9226.723946
488.525270,153.140646,95.712904,-9303.294269
488.525898,133.998066,76.570323,-9303.294269
488.526525,57.427742,210.568389,-9322.436850
488.527152,38.285162,306.281293,-9475.577496
488.527779,0.000000,287.138712,-9494.720077
488.528407,57.427742,191.425808,-9552.147819
488.529034,57.427742,133.998066,-9552.147819
488.529661,114.855485,133.998066,-9533.005238
488.530288,133.998066,114.855485,-9475.577496
488.530915,114.855485,38.285162,-9437.292334
488.531543,172.283227,57.427742,-9418.149754
488.532170,172.283227,38.285162,-9322.436850
488.532797,153.140646,95.712904,-9284.151688
488.533424,0.000000,133.998066,-9341.579430
488.534052,114.855485,229.710970,-9379.864592
488.534679,57.427742,229.710970,-9418.149754
488.535306,57.427742,248.853550,-9552.147819
488.535933,-38.285162,267.996131,-9571.290400
488.536560,95.712904,172.283227,-9552.147819
488.537188,133.998066,210.568389,-9437.292334
488.537815,95.712904,153.140646,-9475.577496
488.538442,210.568389,95.712904,-9360.722011
488.539069,210.568389,95.712904,-9284.151688
488.539697,210.568389,95.712904,-9303.294269
488.540324,133.998066,95.712904,-9341.579430
488.540951,153.140646,114.855485,-9341.579430
488.541578,95.712904,248.853550,-9360.722011
488.542206,19.142581,229.710970,-9494.720077
488.542833,38.285162,248.853550,-9571.290400
488.543460,57.427742,191.425808,-9609.575562
488.544087,114.855485,153.140646,-9552.147819
488.544714,133.998066,133.998066,-9513.862658
488.545342,133.998066,76.570323,-9494.720077
488.545969,114.855485,0.000000,-9399.007173
488.546596,191.425808,19.142581,-9418.149754
488.547223,133.998066,76.570323,-9265.009107
488.547851,153.140646,95.712904,-9303.294269
488.548478,172.283227,114.855485,-9341.579430
488.549105,95.712904,210.568389,-9360.722011
488.549732,38.285162,229.710970,-9437.292334
488.550360,38.285162,287.138712,-9494.720077
488.550987,38.285162,229.710970,-9475.577496
488.551614,38.285162,210.568389,-9456.434915
488.552241,114.855485,229.710970,-9456.434915
488.552868,133.998066,114.855485,-9418.149754
488.553496,210.568389,95.712904,-9360.722011
488.554123,191.425808,114.855485,-9303.294269
488.554750,153.140646,95.712904,-9245.866526
488.555377,57.427742,248.853550,-9322.436850
488.556005,57.427742,248.853550,-9322.436850
488.556632,95.712904,191.425808,-9437.292334
488.557259,0.000000,248.853550,-9533.005238
488.557886,19.142581,229.710970,-9494.720077
488.558514,57.427742,172.283227,-9552.147819
488.559141,133.998066,76.570323,-9571.290400
488.559768,38.285162,76.570323,-9571.290400
488.560395,95.712904,95.712904,-9437.292334
488.561022,153.140646,57.427742,-9360.722011
488.561650,191.425808,95.712904,-9245.866526
488.562277,133.998066,38.285162,-9284.151688
488.562904,76.570323,76.570323,-9322.436850
488.563531,57.427742,172.283227,-9418.149754
488.564159,57.427742,229.710970,-9418.149754
488.564786,0.000000,306.281293,-9437.292334
488.565413,0.000000,287.138712,-9456.434915
488.566040,19.142581,287.138712,-9590.432981
488.566668,76.570323,210.568389,-9533.005238
488.567295,210.568389,133.998066,-9437.292334
488.567922,153.140646,133.998066,-9399.007173
488.568549,210.568389,95.712904,-9341.579430
488.569176,172.283227,114.855485,-9322.436850
488.569804,95.712904,133.998066,-9245.866526
488.570431,76.570323,76.570323,-9303.294269
488.571058,57.427742,153.140646,-9360.722011
488.571685,95.712904,191.425808,-9418.149754
488.572313,0.000000,229.710970,-9513.862658
488.572940,19.142581,248.853550,-9571.290400
488.573567,76.570323,133.998066,-9552.147819
488.574194,57.427742,133.998066,-9552.147819
488.574821,76.570323,95.712904,-9456.434915
488.575449,210.568389,133.998066,-9399.007173
488.576076,191.425808,76.570323,-9360.722011
488.576703,114.855485,133.998066,-9341.579430
488.577330,172.283227,95.712904,-9188.438784
488.577958,95.712904,153.140646,-9303.294269
488.578585,133.998066,172.283227,-9418.149754
488.579212,95.712904,248.853550,-9360.722011
488.579839,19.142581,229.710970,-9475.577496
488.580467,38.285162,229.710970,-9475.577496
488.581094,76.570323,153.140646,-9552.147819
488.581721,133.998066,191.425808,-9456.434915
488.582348,133.998066,114.855485,-9418.149754
488.582975,114.855485,95.712904,-9399.007173
488.583603,248.853550,38.285162,-9341.579430
488.584230,153.140646,38.285162,-9303.294269
488.584857,95.712904,57.427742,-9303.294269
488.585483,133.998066,76.570323,-9379.864592
488.586110,76.570323,191.425808,-9418.149754
488.586737,38.285162,229.710970,-9494.720077
488.587364,-38.285162,191.425808,-9513.862658
488.587991,19.142581,210.568389,-9533.005238
488.588618,57.427742,210.568389,-9647.860723
488.589245,153.140646,210.568389,-9513.862658
488.589872,76.570323,114.855485,-9475.577496
488.590499,153.140646,172.283227,-9399.007173
488.591126,172.283227,114.855485,-9284.151688
488.591753,57.427742,76.570323,-9322.436850
488.592380,38.285162,76.570323,-9284.151688
488.593006,114.855485,210.568389,-9284.151688
488.593633,38.285162,153.140646,-9341.579430
488.594260,76.570323,229.710970,-9533.005238
488.594887,-38.285162,248.853550,-9475.577496
488.595514,19.142581,210.568389,-9475.577496
488.596141,76.570323,172.283227,-9475.577496
488.596768,133.998066,114.855485,-9494.720077
488.597395,172.283227,95.712904,-9437.292334
488.598022,229.710970,57.427742,-9456.434915
488.598649,191.425808,-19.142581,-9303.294269
488.599276,172.283227,76.570323,-9418.149754
488.599903,76.570323,76.570323,-9322.436850
488.600529,114.855485,95.712904,-9399.007173
488.601156,38.285162,172.283227,-9418.149754
488.601783,19.142581,229.710970,-9494.720077
488.602410,57.427742,191.425808,-9552.147819
488.603037,76.570323,133.998066,-9552.147819
488.603664,133.998066,172.283227,-9533.005238
488.604291,76.570323,114.855485,-9475.577496
488.604918,153.140646,133.998066,-9399.007173
488.605545,191.425808,95.712904,-9379.864592
488.606172,210.568389,114.855485,-9322.436850
488.606799,153.140646,95.712904,-9245.866526
488.607426,133.998066,76.570323,-9284.151688
488.608052,57.427742,191.425808,-9341.579430
488.608679,57.427742,172.283227,-9360.722011
488.609306,19.142581,229.710970,-9437.292334
488.609933,0.000000,172.283227,-9533.005238
488.610560,57.427742,172.283227,-9552.147819
488.611187,172.283227,133.998066,-9552.147819
488.611814,133.998066,114.855485,-9475.577496
488.612441,114.855485,38.285162,-9399.007173
488.613068,191.425808,76.570323,-9418.149754
488.613695,191.425808,76.570323,-9418.149754
488.614322,153.140646,95.712904,-9360.722011
488.614949,114.855485,133.998066,-9360.722011
488.615575,133.998066,153.140646,-9399.007173
488.616202,95.712904,287.138712,-9494.720077
488.616829,57.427742,248.853550,-9552.147819
488.617456,76.570323,229.710970,-9533.005238
488.618083,76.570323,191.425808,-9571.290400
488.618710,133.998066,172.283227,-9513.862658
488.619337,76.570323,133.998066,-9552.147819
488.619964,172.283227,76.570323,-9418.149754
488.620591,229.710970,114.855485,-9322.436850
488.621218,191.425808,95.712904,-9245.866526
488.621845,172.283227,114.855485,-9265.009107
488.622472,114.855485,172.283227,-9341.579430
488.623098,76.570323,133.998066,-9360.722011
488.623725,76.570323,210.568389,-9437.292334
488.624352,38.285162,229.710970,-9475.577496
488.624979,-19.142581,229.710970,-9513.862658
488.625606,76.570323,172.283227,-9590.432981
488.626233,38.285162,114.855485,-9475.577496
488.626860,95.712904,38.285162,-9437.292334
488.627487,172.283227,19.142581,-9456.434915
488.628114,210.568389,133.998066,-9379.864592
488.628741,153.140646,95.712904,-9284.151688
488.629368,153.140646,95.712904,-9245.866526
488.629995,76.570323,76.570323,-9284.151688
488.630621,133.998066,114.855485,-9360.722011
488.631248,19.142581,210.568389,-9437.292334
488.631875,19.142581,229.710970,-9533.005238
488.632502,95.712904,229.710970,-9533.005238
488.633129,76.570323,191.425808,-9533.005238
488.633756,153.140646,133.998066,-9475.577496
488.634383,172.283227,76.570323,-9418.149754
488.635010,191.425808,76.570323,-9418.149754
488.635637,191.425808,114.855485,-9341.579430
488.636264,153.140646,95.712904,-9341.579430
488.636891,114.855485,153.140646,-9245.866526
488.637518,114.855485,172.283227,-9379.864592
488.638144,114.855485,248.853550,-9284.151688
488.638771,-38.285162,229.710970,-9418.149754
488.639398,-38.285162,248.853550,-9513.862658
488.640025,38.285162,153.140646,-9533.005238
488.640652,114.855485,172.283227,-9552.147819
488.641279,76.570323,114.855485,-9533.005238
488.641906,172.283227,57.427742,-9456.434915
488.642533,114.855485,95.712904,-9399.007173
488.643160,210.568389,95.712904,-9360.722011
488.643787,153.140646,38.285162,-9322.436850
488.644414,153.140646,95.712904,-9284.151688
488.645041,95.712904,133.998066,-9322.436850
488.645668,133.998066,153.140646,-9399.007173
488.646294,-38.285162,191.425808,-9475.577496
488.646921,19.142581,229.710970,-9533.005238
488.647548,38.285162,248.853550,-9571.290400
488.648175,153.140646,133.998066,-9494.720077
488.648802,153.140646,172.283227,-9437.292334
488.649429,133.998066,133.998066,-9399.007173
488.650056,210.568389,38.285162,-9360.722011
488.650683,210.568389,95.712904,-9245.866526
488.651310,153.140646,95.712904,-9303.294269
488.651937,133.998066,95.712904,-9245.866526
488.652564,114.855485,133.998066,-9360.722011
488.653191,95.712904,191.425808,-9418.149754
488.653817,19.142581,210.568389,-9475.577496
488.654444,19.142581,153.140646,-9533.005238
488.655071,95.712904,172.283227,-9552.147819
488.655698,133.998066,172.283227,-9533.005238
488.656325,133.998066,153.140646,-9475.577496
488.656952,153.140646,133.998066,-9456.434915
488.657579,191.425808,38.285162,-9418.149754
488.658206,172.283227,114.855485,-9379.864592
488.658833,76.570323,76.570323,-9379.864592
488.659460,95.712904,133.998066,-9284.151688
488.660087,38.285162,76.570323,-9379.864592
488.660714,57.427742,248.853550,-9360.722011
488.661340,19.142581,229.710970,-9418.149754
488.661967,38.285162,229.710970,-9437.292334
488.662594,95.712904,153.140646,-9552.147819
488.663221,38.285162,210.568389,-9533.005238
488.663848,153.140646,153.140646,-9475.577496
488.664475,229.710970,76.570323,-9418.149754
488.665102,210.568389,133.998066,-9379.864592
488.665729,229.710970,114.855485,-9284.151688
488.666356,133.998066,95.712904,-9341.579430
488.666983,95.712904,153.140646,-9341.579430
488.667610,133.998066,210.568389,-9418.149754
488.668237,95.712904,210.568389,-9418.149754
488.668863,-57.427742,172.283227,-9513.862658
488.669490,19.142581,172.283227,-9533.005238
488.670117,57.427742,133.998066,-9552.147819
488.670744,95.712904,133.998066,-9552.147819
488.671371,38.285162,76.570323,-9494.720077
488.671998,191.425808,57.427742,-9418.149754
488.672625,210.568389,0.000000,-9341.579430
488.673252,153.140646,95.712904,-9360.722011
488.673879,76.570323,95.712904,-9360.722011
488.674506,114.855485,133.998066,-9303.294269
488.675133,133.998066,229.710970,-9418.149754
488.675760,38.285162,248.853550,-9437.292334
488.676386,38.285162,210.568389,-9475.577496
488.677013,57.427742,287.138712,-9513.862658
488.677640,95.712904,210.568389,-9494.720077
488.678267,95.712904,172.283227,-9533.005238
488.678894,172.283227,114.855485,-9494.720077
488.679521,210.568389,133.998066,-9379.864592
488.680148,153.140646,95.712904,-9303.294269
488.680775,133.998066,95.712904,-9360.722011
488.681402,153.140646,95.712904,-9360.722011
488.682029,114.855485,133.998066,-9341.579430
488.682656,76.570323,114.855485,-9418.149754
488.683283,57.427742,210.568389,-9494.720077
488.683909,0.000000,133.998066,-9552.147819
488.684536,57.427742,133.998066,-9552.147819
488.685163,95.712904,133.998066,-9533.005238
488.685790,76.570323,153.140646,-9533.005238
488.686417,114.855485,38.285162,-9437.292334
488.687044,76.570323,95.712904,-9399.007173
488.687671,153.140646,95.712904,-9245.866526
488.688298,114.855485,114.855485,-9265.009107
488.688925,76.570323,76.570323,-9284.151688
488.689552,114.855485,133.998066,-9360.722011
488.690179,76.570323,267.996131,-9379.864592
488.690806,19.142581,229.710970,-9533.005238
488.691432,57.427742,248.853550,-9552.147819
488.692059,57.427742,287.138712,-9513.862658
488.692686,114.855485,172.283227,-9552.147819
488.693313,114.855485,172.283227,-9552.147819
488.693940,153.140646,114.855485,-9418.149754
488.694568,172.283227,0.000000,-9456.434915
488.695195,248.853550,95.712904,-9341.579430
488.695822,172.283227,95.712904,-9379.864592
488.696450,114.855485,133.998066,-9341.579430
488.697077,57.427742,76.570323,-9379.864592
488.697705,19.142581,191.425808,-9456.434915
488.698332,57.427742,191.425808,-9552.147819
488.698960,76.570323,172.283227,-9552.147819
488.699587,57.427742,133.998066,-9590.432981
488.700215,133.998066,114.855485,-9533.005238
488.700842,76.570323,114.855485,-9475.577496
488.701469,172.283227,76.570323,-9418.149754
488.702097,153.140646,76.570323,-9379.864592
488.702724,153.140646,38.285162,-9284.151688
488.703352,153.140646,95.712904,-9303.294269
488.703979,95.712904,153.140646,-9360.722011
488.704607,76.570323,248.853550,-9360.722011
488.705234,76.570323,229.710970,-9437.292334
488.705862,95.712904,287.138712,-9437.292334
488.706489,19.142581,306.281293,-9552.147819
488.707117,76.570323,267.996131,-9571.290400
488.707744,133.998066,210.568389,-9533.005238
488.708371,172.283227,172.283227,-9533.005238
488.708999,114.855485,95.712904,-9399.007173
488.709626,172.283227,57.427742,-9360.722011
488.710254,153.140646,57.427742,-9341.579430
488.710881,114.855485,114.855485,-9379.864592
488.711509,95.712904,133.998066,-9245.866526
488.712136,38.285162,133.998066,-9379.864592
488.712764,38.285162,114.855485,-9418.149754
488.713391,0.000000,191.425808,-9552.147819
488.714018,0.000000,133.998066,-9552.147819
488.714646,57.427742,153.140646,-9552.147819
488.715273,95.712904,172.283227,-9552.147819
488.715901,95.712904,95.712904,-9437.292334
488.716528,172.283227,76.570323,-9418.149754
488.717156,153.140646,95.712904,-9341.579430
488.717783,210.568389,95.712904,-9245.866526
488.718411,133.998066,38.285162,-9322.436850
488.719038,114.855485,153.140646,-9303.294269
488.719665,76.570323,229.710970,-9341.579430
488.720293,95.712904,229.710970,-9399.007173
488.720920,57.427742,306.281293,-9513.862658
488.721548,76.570323,287.138712,-9494.720077
488.722175,76.570323,210.568389,-9533.005238
488.722803,76.570323,114.855485,-9533.005238
488.723430,133.998066,114.855485,-9456.434915
488.724058,210.568389,133.998066,-9399.007173
488.724685,229.710970,19.142581,-9360.722011
488.725312,133.998066,19.142581,-9322.436850
488.725940,133.998066,133.998066,-9322.436850
488.726567,76.570323,114.855485,-9418.149754
488.727195,76.570323,153.140646,-9418.149754
488.727822,19.142581,153.140646,-9533.005238
488.728450,0.000000,172.283227,-9552.147819
488.729077,57.427742,172.283227,-9552.147819
488.729705,114.855485,191.425808,-9552.147819
488.730332,76.570323,153.140646,-9552.147819
488.730960,76.570323,114.855485,-9456.434915
488.731587,172.283227,76.570323,-9418.149754
488.732214,153.140646,95.712904,-9341.579430
488.732842,133.998066,57.427742,-9265.009107
488.733469,38.285162,133.998066,-9341.579430
488.734097,95.712904,248.853550,-9284.151688
488.734724,95.712904,191.425808,-9360.722011
488.735352,95.712904,287.138712,-9456.434915
488.735979,0.000000,267.996131,-9533.005238
488.736607,38.285162,267.996131,-9590.432981
488.737234,57.427742,248.853550,-9533.005238
488.737861,133.998066,114.855485,-9533.005238
488.738489,133.998066,76.570323,-9456.434915
488.739116,172.283227,57.427742,-9418.149754
488.739744,210.568389,0.000000,-9284.151688
488.740371,57.427742,76.570323,-9379.864592
488.740999,57.427742,38.285162,-9399.007173
488.741626,0.000000,133.998066,-9360.722011
488.742254,38.285162,172.283227,-9360.722011
488.742881,19.142581,210.568389,-9475.577496
488.743508,57.427742,210.568389,-9552.147819
488.744136,-19.142581,210.568389,-9571.290400
488.744763,172.283227,114.855485,-9571.290400
488.745391,133.998066,114.855485,-9475.577496
488.746018,153.140646,133.998066,-9399.007173
488.746646,191.425808,76.570323,-9360.722011
488.747273,191.425808,114.855485,-9265.009107
488.747901,172.283227,172.283227,-9341.579430
488.748528,114.855485,248.853550,-9284.151688
488.749155,57.427742,191.425808,-9284.151688
488.749783,95.712904,210.568389,-9360.722011
488.750410,0.000000,287.138712,-9513.862658
488.751038,38.285162,267.996131,-9513.862658
488.751665,38.285162,191.425808,-9533.005238
488.752293,133.998066,172.283227,-9513.862658
488.752920,38.285162,153.140646,-9533.005238
488.753548,210.568389,133.998066,-9437.292334
488.754175,114.855485,38.285162,-9399.007173
488.754803,153.140646,38.285162,-9303.294269
488.755430,153.140646,95.712904,-9341.579430
488.756057,133.998066,76.570323,-9322.436850
488.756685,95.712904,191.425808,-9360.722011
488.757312,57.427742,153.140646,-9437.292334
488.757940,38.285162,191.425808,-9475.577496
488.758567,19.142581,210.568389,-9533.005238
488.759195,57.427742,191.425808,-9552.147819
488.759822,76.570323,210.568389,-9437.292334
488.760450,76.570323,172.283227,-9475.577496
488.761077,133.998066,114.855485,-9418.149754
488.761704,172.283227,133.998066,-9284.151688
488.762332,210.568389,57.427742,-9284.151688
488.762959,191.425808,114.855485,-9265.009107
488.763587,114.855485,153.140646,-9341.579430
488.764214,95.712904,191.425808,-9360.722011
488.764842,0.000000,229.710970,-9456.434915
488.765469,19.142581,229.710970,-9533.005238
488.766097,95.712904,229.710970,-9513.862658
488.766724,57.427742,133.998066,-9647.860723
488.767351,76.570323,114.855485,-9533.005238
488.767979,114.855485,0.000000,-9494.720077
488.768606,114.855485,38.285162,-9399.007173
488.769234,153.140646,95.712904,-9303.294269
488.769861,153.140646,0.000000,-9303.294269
488.770489,57.427742,57.427742,-9399.007173
488.771116,95.712904,133.998066,-9360.722011
488.771744,114.855485,153.140646,-9360.722011
488.772371,57.427742,210.568389,-9494.720077
488.772998,38.285162,210.568389,-9456.434915
488.773626,0.000000,191.425808,-9552.147819
488.774253,95.712904,153.140646,-9552.147819
488.774881,133.998066,229.710970,-9437.292334
488.775508,172.283227,76.570323,-9418.149754
488.776136,191.425808,172.283227,-9379.864592
488.776763,191.425808,114.855485,-9284.151688
488.777391,210.568389,114.855485,-9379.864592
488.778018,133.998066,76.570323,-9265.009107
488.778646,172.283227,172.283227,-9322.436850
488.779273,19.142581,191.425808,-9418.149754
488.779900,19.142581,229.710970,-9475.577496
488.780528,38.285162,191.425808,-9494.720077
488.781155,57.427742,191.425808,-9552.147819
488.781783,95.712904,191.425808,-9533.005238
488.782410,95.712904,133.998066,-9552.147819
488.783038,114.855485,95.712904,-9399.007173
488.783665,191.425808,57.427742,-9418.149754
488.784293,248.853550,0.000000,-9341.579430
488.784920,210.568389,95.712904,-9245.866526
488.785547,133.998066,76.570323,-9265.009107
488.786175,95.712904,133.998066,-9360.722011
488.786802,133.998066,172.283227,-9418.149754
488.787430,76.570323,229.710970,-9475.577496
488.788057,38.285162,229.710970,-9533.005238
488.788685,-19.142581,191.425808,-9552.147819
488.789312,38.285162,210.568389,-9533.005238
488.789940,133.998066,114.855485,-9533.005238
488.790567,210.568389,133.998066,-9399.007173
488.791194,191.425808,76.570323,-9418.149754
488.791822,248.853550,19.142581,-9284.151688
488.792449,210.568389,95.712904,-9341.579430
488.793077,114.855485,133.998066,-9303.294269
488.793704,133.998066,114.855485,-9418.149754
488.794332,133.998066,248.853550,-9399.007173
488.794959,19.142581,229.710970,-9437.292334
488.795586,38.285162,229.710970,-9533.005238
488.796214,0.000000,210.568389,-9571.290400
488.796841,76.570323,153.140646,-9552.147819
488.797469,114.855485,172.283227,-9533.005238
488.798096,114.855485,57.427742,-9399.007173
488.798724,191.425808,76.570323,-9360.722011
488.799351,210.568389,38.285162,-9284.151688
488.799978,153.140646,95.712904,-9245.866526
488.800606,172.283227,114.855485,-9303.294269
488.801233,133.998066,172.283227,-9360.722011
488.801861,114.855485,210.568389,-9379.864592
488.802488,95.712904,287.138712,-9456.434915
488.803115,57.427742,306.281293,-9513.862658
488.803743,38.285162,229.710970,-9533.005238
488.804370,114.855485,287.138712,-9399.007173
488.804998,133.998066,153.140646,-9456.434915
488.805625,191.425808,95.712904,-9379.864592
488.806252,210.568389,95.712904,-9341.579430
488.806880,191.425808,114.855485,-9284.151688
488.807507,153.140646,95.712904,-9341.579430
488.808135,76.570323,76.570323,-9322.436850
488.808762,76.570323,210.568389,-9418.149754
488.809389,19.142581,114.855485,-9475.577496
488.810017,0.000000,172.283227,-9552.147819
488.810644,-19.142581,210.568389,-9590.432981
488.811272,38.285162,153.140646,-9647.860723
488.811899,172.283227,172.283227,-9552.147819
488.812526,133.998066,114.855485,-9533.005238
488.813154,114.855485,95.712904,-9437.292334
488.813781,153.140646,57.427742,-9379.864592
488.814409,153.140646,38.285162,-9341.579430
488.815036,133.998066,76.570323,-9303.294269
488.815663,114.855485,172.283227,-9322.436850
488.816291,95.712904,248.853550,-9341.579430
488.816918,19.142581,229.710970,-9437.292334
488.817546,0.000000,287.138712,-9456.434915
488.818173,0.000000,191.425808,-9533.005238
488.818800,114.855485,191.425808,-9533.005238
488.819428,133.998066,153.140646,-9418.149754
488.820055,133.998066,114.855485,-9456.434915
488.820683,172.283227,95.712904,-9399.007173
488.821310,248.853550,95.712904,-9284.151688
488.821937,153.140646,95.712904,-9303.294269
488.822565,133.998066,76.570323,-9379.864592
488.823192,76.570323,133.998066,-9360.722011
488.823820,95.712904,133.998066,-9418.149754
488.824447,19.142581,153.140646,-9475.577496
488.825074,57.427742,191.425808,-9533.005238
488.825702,57.427742,191.425808,-9552.147819
488.826329,76.570323,172.283227,-9533.005238
488.826957,76.570323,133.998066,-9552.147819
488.827584,95.712904,38.285162,-9399.007173
488.828211,248.853550,76.570323,-9418.149754
488.828839,172.283227,76.570323,-9360.722011
488.829466,172.283227,114.855485,-9322.436850
488.830094,114.855485,133.998066,-9341.579430
488.830721,172.283227,114.855485,-9284.151688
488.831348,95.712904,191.425808,-9360.722011
488.831976,-19.142581,287.138712,-9494.720077
488.832603,38.285162,229.710970,-9456.434915
488.833231,38.285162,229.710970,-9533.005238
488.833858,76.570323,210.568389,-9475.577496
488.834485,38.285162,153.140646,-9533.005238
488.835113,172.283227,76.570323,-9418.149754
488.835740,172.283227,76.570323,-9418.149754
488.836368,191.425808,95.712904,-9284.151688
488.836995,153.140646,95.712904,-9303.294269
488.837622,153.140646,95.712904,-9322.436850
488.838250,95.712904,76.570323,-9379.864592
488.838877,38.285162,210.568389,-9437.292334
488.839505,57.427742,153.140646,-9533.005238
488.840132,0.000000,248.853550,-9609.575562
488.840759,57.427742,248.853550,-9552.147819
488.841387,57.427742,191.425808,-9552.147819
488.842014,114.855485,95.712904,-9513.862658
488.842642,172.283227,76.570323,-9456.434915
488.843269,248.853550,76.570323,-9360.722011
488.843896,191.425808,95.712904,-9284.151688
488.844524,114.855485,114.855485,-9265.009107
488.845151,114.855485,114.855485,-9265.009107
488.845779,57.427742,133.998066,-9418.149754
488.846406,57.427742,210.568389,-9418.149754
488.847033,0.000000,306.281293,-9513.862658
488.847661,57.427742,229.710970,-9513.862658
488.848288,95.712904,191.425808,-9552.147819
488.848916,76.570323,210.568389,-9475.577496
488.849543,133.998066,76.570323,-9513.862658
488.850170,172.283227,57.427742,-9418.149754
488.850798,191.425808,57.427742,-9418.149754
488.851425,153.140646,38.285162,-9303.294269
488.852053,76.570323,76.570323,-9265.009107
488.852680,95.712904,153.140646,-9360.722011
488.853307,95.712904,133.998066,-9379.864592
488.853935,76.570323,229.710970,-9475.577496
488.854562,-38.285162,248.853550,-9513.862658
488.855190,95.712904,191.425808,-9533.005238
488.855817,57.427742,153.140646,-9552.147819
488.856444,38.285162,114.855485,-9475.577496
488.857072,95.712904,114.855485,-9437.292334
488.857699,248.853550,133.998066,-9399.007173
488.858327,133.998066,114.855485,-9341.579430
488.858954,210.568389,95.712904,-9245.866526
488.859581,133.998066,76.570323,-9284.151688
488.860209,95.712904,248.853550,-9245.866526
488.860836,95.712904,267.996131,-9341.579430
488.861464,57.427742,191.425808,-9360.722011
488.862091,19.142581,229.710970,-9475.577496
488.862718,19.142581,229.710970,-9533.005238
488.863346,57.427742,191.425808,-9552.147819
488.863973,133.998066,114.855485,-9533.005238
488.864601,153.140646,114.855485,-9533.005238
488.865228,153.140646,114.855485,-9456.434915
488.865855,210.568389,38.285162,-9360.722011
488.866483,153.140646,0.000000,-9360.722011
488.867110,76.570323,76.570323,-9303.294269
488.867738,114.855485,133.998066,-9322.436850
488.868365,38.285162,172.283227,-9418.149754
488.868992,-38.285162,191.425808,-9513.862658
488.869620,-38.285162,248.853550,-9456.434915
488.870247,0.000000,229.710970,-9513.862658
488.870875,95.712904,248.853550,-9533.005238
488.871502,76.570323,210.568389,-9475.577496
488.872129,210.568389,133.998066,-9437.292334
488.872757,191.425808,114.855485,-9322.436850
488.873384,191.425808,38.285162,-9341.579430
488.874012,210.568389,95.712904,-9303.294269
488.874639,95.712904,133.998066,-9245.866526
488.875266,95.712904,172.283227,-9360.722011
488.875894,153.140646,248.853550,-9399.007173
488.876521,0.000000,287.138712,-9475.577496
488.877149,19.142581,267.996131,-9609.575562
488.877776,19.142581,267.996131,-9571.290400
488.878403,95.712904,133.998066,-9552.147819
488.879031,114.855485,172.283227,-9552.147819
488.879658,153.140646,38.285162,-9475.577496
488.880286,191.425808,57.427742,-9418.149754
488.880913,172.283227,19.142581,-9360.722011
488.881540,153.140646,57.427742,-9341.579430
488.882168,153.140646,57.427742,-9341.579430
488.882795,133.998066,76.570323,-9379.864592
488.883423,114.855485,133.998066,-9360.722011
488.884050,76.570323,229.710970,-9475.577496
488.884677,57.427742,287.138712,-9513.862658
488.885305,0.000000,191.425808,-9552.147819
488.885932,114.855485,191.425808,-9533.005238
488.886560,57.427742,95.712904,-9437.292334
488.887187,172.283227,114.855485,-9379.864592
488.887814,153.140646,133.998066,-9399.007173
488.888442,153.140646,95.712904,-9245.866526
488.889069,114.855485,133.998066,-9322.436850
488.889697,76.570323,76.570323,-9265.009107
488.890324,38.285162,153.140646,-9360.722011
488.890951,76.570323,229.710970,-9418.149754
488.891579,19.142581,229.710970,-9533.005238
488.892206,19.142581,229.710970,-9552.147819
488.892834,19.142581,172.283227,-9533.005238
488.893461,95.712904,114.855485,-9475.577496
488.894088,95.712904,114.855485,-9475.577496
488.894716,133.998066,114.855485,-9456.434915
488.895343,191.425808,38.285162,-9418.149754
488.895970,153.140646,95.712904,-9341.579430
488.896597,76.570323,76.570323,-9379.864592
488.897224,95.712904,153.140646,-9284.151688
488.897852,133.998066,191.425808,-9418.149754
488.898479,0.000000,287.138712,-9399.007173
488.899106,57.427742,287.138712,-9513.862658
488.899733,19.142581,248.853550,-9494.720077
488.900360,57.427742,191.425808,-9552.147819
488.900987,76.570323,229.710970,-9533.005238
488.901615,114.855485,133.998066,-9475.577496
488.902242,133.998066,114.855485,-9418.149754
488.902869,172.283227,95.712904,-9265.009107
488.903496,210.568389,38.285162,-9303.294269
488.904123,153.140646,95.712904,-9322.436850
488.904750,57.427742,153.140646,-9360.722011
488.905378,114.855485,191.425808,-9341.579430
488.906005,76.570323,229.710970,-9494.720077
488.906632,19.142581,229.710970,-9533.005238
488.907259,-19.142581,229.710970,-9571.290400
488.907886,76.570323,133.998066,-9552.147819
488.908513,76.570323,76.570323,-9571.290400
488.909141,133.998066,76.570323,-9494.720077
488.909768,172.283227,95.712904,-9399.007173
488.910395,153.140646,95.712904,-9341.579430
488.911022,172.283227,133.998066,-9284.151688
488.911649,210.568389,95.712904,-9322.436850
488.912276,133.998066,76.570323,-9341.579430
488.912904,133.998066,172.283227,-9418.149754
488.913531,76.570323,172.283227,-9418.149754
488.914158,19.142581,229.710970,-9533.005238
488.914785,57.427742,191.425808,-9552.147819
488.915412,57.427742,191.425808,-9552.147819
488.916039,38.285162,229.710970,-9533.005238
488.916667,133.998066,153.140646,-9456.434915
488.917294,248.853550,133.998066,-9399.007173
488.917921,287.138712,76.570323,-9341.579430
488.918548,153.140646,95.712904,-9303.294269
488.919175,191.425808,76.570323,-9360.722011
488.919802,114.855485,153.140646,-9322.436850
488.920430,95.712904,153.140646,-9360.722011
488.921057,19.142581,114.855485,-9533.005238
488.921684,19.142581,287.138712,-9552.147819
488.922311,76.570323,172.283227,-9609.575562
488.922938,57.427742,133.998066,-9590.432981
488.923565,57.427742,95.712904,-9513.862658
488.924193,114.855485,95.712904,-9418.149754
488.924820,191.425808,57.427742,-9418.149754
488.925447,210.568389,0.000000,-9284.151688
488.926074,153.140646,0.000000,-9341.579430
488.926701,133.998066,76.570323,-9322.436850
488.927328,95.712904,133.998066,-9360.722011
488.927956,38.285162,267.996131,-9379.864592
488.928583,38.285162,229.710970,-9437.292334
488.929210,-19.142581,287.138712,-9513.862658
488.929837,-38.285162,248.853550,-9513.862658
488.930464,76.570323,191.425808,-9552.147819
488.931091,76.570323,153.140646,-9475.577496
488.931719,153.140646,114.855485,-9418.149754
488.932346,210.568389,76.570323,-9418.149754
488.932973,172.283227,95.712904,-9379.864592
488.933600,133.998066,95.712904,-9322.436850
488.934227,133.998066,76.570323,-9322.436850
488.934854,114.855485,153.140646,-9418.149754
488.935482,76.570323,172.283227,-9418.149754
488.936109,95.712904,191.425808,-9533.005238
488.936736,38.285162,191.425808,-9552.147819
488.937363,0.000000,191.425808,-9628.718142
488.937990,95.712904,153.140646,-9552.147819
488.938617,38.285162,114.855485,-9456.434915
488.939245,172.283227,76.570323,-9456.434915
488.939872,191.425808,76.570323,-9418.149754
488.940499,191.425808,114.855485,-9265.009107
488.941126,210.568389,95.712904,-9245.866526
488.941753,133.998066,95.712904,-9245.866526
488.942380,114.855485,153.140646,-9341.579430
488.943008,38.285162,267.996131,-9379.864592
488.943635,-38.285162,248.853550,-9513.862658
488.944262,76.570323,267.996131,-9571.290400
488.944889,0.000000,229.710970,-9571.290400
488.945516,76.570323,153.140646,-9533.005238
488.946143,153.140646,133.998066,-9494.720077
488.946771,191.425808,57.427742,-9494.720077
488.947398,191.425808,57.427742,-9418.149754
488.948025,133.998066,57.427742,-9341.579430
488.948652,114.855485,38.285162,-9399.007173
488.949279,19.142581,76.570323,-9379.864592
488.949906,57.427742,133.998066,-9418.149754
488.950534,19.142581,229.710970,-9533.005238
488.951161,19.142581,210.568389,-9533.005238
488.951788,-19.142581,248.853550,-9552.147819
488.952415,-19.142581,172.283227,-9571.290400
488.953042,114.855485,133.998066,-9533.005238
488.953669,114.855485,133.998066,-9533.005238
488.954297,153.140646,133.998066,-9399.007173
488.954924,191.425808,76.570323,-9360.722011
488.955551,210.568389,95.712904,-9245.866526
488.956178,210.568389,114.855485,-9265.009107
488.956805,114.855485,153.140646,-9265.009107
488.957432,95.712904,210.568389,-9284.151688
488.958060,19.142581,267.996131,-9379.864592
488.958687,-38.285162,248.853550,-9399.007173
488.959314,0.000000,229.710970,-9513.862658
488.959941,76.570323,153.140646,-9475.577496
488.960568,76.570323,114.855485,-9533.005238
488.961195,133.998066,153.140646,-9456.434915
488.961823,153.140646,57.427742,-9360.722011
488.962450,153.140646,57.427742,-9341.579430
488.963077,153.140646,95.712904,-9360.722011
488.963704,114.855485,95.712904,-9399.007173
488.964331,95.712904,133.998066,-9341.579430
488.964958,38.285162,191.425808,-9418.149754
488.965586,95.712904,153.140646,-9552.147819
488.966213,57.427742,191.425808,-9552.147819
488.966840,57.427742,133.998066,-9552.147819
488.967467,38.285162,191.425808,-9571.290400
488.968094,95.712904,191.425808,-9552.147819
488.968721,114.855485,95.712904,-9437.292334
488.969349,114.855485,38.285162,-9399.007173
488.969976,153.140646,95.712904,-9341.579430
488.970603,210.568389,57.427742,-9245.866526
488.971230,133.998066,76.570323,-9265.009107
488.971857,172.283227,114.855485,-9284.151688
488.972484,57.427742,191.425808,-9341.579430
488.973112,19.142581,229.710970,-9437.292334
488.973739,19.142581,229.710970,-9533.005238
488.974366,57.427742,287.138712,-9513.862658
488.974993,38.285162,172.283227,-9533.005238
488.975620,76.570323,210.568389,-9494.720077
488.976247,76.570323,133.998066,-9475.577496
488.976874,191.425808,57.427742,-9456.434915
488.977502,210.568389,133.998066,-9399.007173
488.978129,133.998066,95.712904,-9284.151688
488.978756,76.570323,76.570323,-9322.436850
488.979383,114.855485,133.998066,-9322.436850
488.980010,38.285162,229.710970,-9437.292334
488.980637,38.285162,153.140646,-9475.577496
488.981265,38.285162,210.568389,-9533.005238
488.981892,38.285162,267.996131,-9571.290400
488.982519,95.712904,210.568389,-9456.434915
488.983146,76.570323,114.855485,-9494.720077
488.983773,210.568389,133.998066,-9399.007173
488.984400,172.283227,57.427742,-9360.722011
488.985028,114.855485,114.855485,-9303.294269
488.985655,114.855485,172.283227,-9245.866526
488.986282,95.712904,133.998066,-9322.436850
488.986909,95.712904,210.568389,-9341.579430
488.987536,95.712904,248.853550,-9418.149754
488.988163,38.285162,210.568389,-9475.577496
488.988791,19.142581,229.710970,-9533.005238
488.989418,19.142581,267.996131,-9571.290400
488.990045,76.570323,114.855485,-9475.577496
488.990672,114.855485,95.712904,-9513.862658
488.991299,191.425808,76.570323,-9456.434915
488.991926,172.283227,19.142581,-9456.434915
488.992554,210.568389,38.285162,-9341.579430
488.993181,133.998066,76.570323,-9322.436850
488.993808,95.712904,133.998066,-9341.579430
488.994435,76.570323,133.998066,-9360.722011
488.995062,95.712904,172.283227,-9418.149754
488.995689,38.285162,191.425808,-9475.577496
488.996317,-19.142581,191.425808,-9475.577496
488.996944,57.427742,248.853550,-9552.147819
488.997571,57.427742,191.425808,-9533.005238
488.998198,114.855485,133.998066,-9475.577496
488.998825,114.855485,95.712904,-9399.007173
488.999452,248.853550,95.712904,-9341.579430
489.000080,153.140646,95.712904,-9245.866526
489.000707,114.855485,76.570323,-9265.009107
489.001334,95.712904,76.570323,-9341.579430
489.001961,114.855485,191.425808,-9341.579430
489.002588,114.855485,248.853550,-9360.722011
489.003216,38.285162,191.425808,-9533.005238
489.003843,-19.142581,153.140646,-9571.290400
489.004470,57.427742,133.998066,-9552.147819
489.005097,114.855485,133.998066,-9552.147819
489.005724,114.855485,76.570323,-9552.147819
489.006352,172.283227,0.000000,-9437.292334
489.006979,287.138712,19.142581,-9418.149754
489.007606,210.568389,95.712904,-9322.436850
489.008233,133.998066,133.998066,-9379.864592
489.008860,95.712904,133.998066,-9303.294269
489.009487,133.998066,191.425808,-9418.149754
489.010115,19.142581,210.568389,-9437.292334
489.010742,95.712904,287.138712,-9437.292334
489.011369,38.285162,153.140646,-9533.005238
489.011996,57.427742,172.283227,-9552.147819
489.012623,133.998066,172.283227,-9533.005238
489.013251,153.140646,133.998066,-9437.292334
489.013878,172.283227,133.998066,-9379.864592
489.014505,229.710970,114.855485,-9265.009107
489.015132,191.425808,95.712904,-9245.866526
489.015759,153.140646,95.712904,-9284.151688
489.016387,133.998066,57.427742,-9341.579430
489.017014,114.855485,153.140646,-9360.722011
489.017641,38.285162,248.853550,-9437.292334
489.018268,38.285162,229.710970,-9533.005238
489.018895,95.712904,248.853550,-9552.147819
489.019522,57.427742,172.283227,-9552.147819
489.020150,114.855485,133.998066,-9552.147819
489.020777,133.998066,76.570323,-9513.862658
489.021404,229.710970,57.427742,-9437.292334
489.022031,248.853550,57.427742,-9341.579430
489.022658,153.140646,0.000000,-9341.579430
489.023286,38.285162,76.570323,-9284.151688
489.023913,133.998066,95.712904,-9322.436850
489.024540,95.712904,133.998066,-9360.722011
489.025167,38.285162,229.710970,-9399.007173
489.025794,-76.570323,248.853550,-9456.434915
489.026422,19.142581,191.425808,-9494.720077
489.027049,133.998066,229.710970,-9475.577496
489.027676,133.998066,153.140646,-9533.005238
489.028303,153.140646,133.998066,-9437.292334
489.028930,229.710970,153.140646,-9399.007173
489.029557,210.568389,95.712904,-9284.151688
489.030185,153.140646,95.712904,-9322.436850
489.030812,133.998066,95.712904,-9303.294269
489.031439,76.570323,76.570323,-9322.436850
489.032066,133.998066,210.568389,-9437.292334
489.032693,57.427742,229.710970,-9513.862658
489.033321,38.285162,325.423874,-9571.290400
489.033948,57.427742,191.425808,-9552.147819
489.034575,76.570323,172.283227,-9609.575562
489.035202,114.855485,153.140646,-9609.575562
489.035829,133.998066,114.855485,-9418.149754
489.036457,229.710970,38.285162,-9360.722011
489.037084,210.568389,0.000000,-9284.151688
489.037711,153.140646,95.712904,-9303.294269
489.038338,133.998066,114.855485,-9341.579430
489.038965,95.712904,133.998066,-9360.722011
489.039593,114.855485,210.568389,-9360.722011
489.040220,57.427742,229.710970,-9475.577496
489.040847,19.142581,229.710970,-9533.005238
489.041474,38.285162,267.996131,-9571.290400
489.042101,133.998066,229.710970,-9456.434915
489.042728,133.998066,191.425808,-9475.577496
489.043356,210.568389,153.140646,-9399.007173
489.043983,191.425808,114.855485,-9303.294269
489.044610,248.853550,38.285162,-9245.866526
489.045237,133.998066,57.427742,-9322.436850
489.045864,95.712904,133.998066,-9303.294269
489.046492,76.570323,114.855485,-9418.149754
489.047119,38.285162,172.283227,-9418.149754
489.047746,57.427742,287.138712,-9513.862658
489.048373,0.000000,229.710970,-9513.862658
489.049000,57.427742,153.140646,-9609.575562
489.049628,57.427742,153.140646,-9552.147819
489.050255,172.283227,114.855485,-9571.290400
489.050882,172.283227,76.570323,-9437.292334
489.051509,191.425808,76.570323,-9399.007173
489.052136,191.425808,95.712904,-9322.436850
489.052763,133.998066,76.570323,-9284.151688
489.053391,153.140646,76.570323,-9284.151688
489.054018,38.285162,210.568389,-9418.149754
489.054645,38.285162,267.996131,-9399.007173
489.055272,0.000000,287.138712,-9494.720077
489.055899,0.000000,287.138712,-9513.862658
489.056527,57.427742,287.138712,-9513.862658
489.057154,133.998066,229.710970,-9437.292334
489.057781,95.712904,153.140646,-9475.577496
489.058408,191.425808,133.998066,-9360.722011
489.059035,248.853550,38.285162,-9284.151688
489.059663,191.425808,57.427742,-9303.294269
489.060290,76.570323,76.570323,-9322.436850
489.060917,153.140646,114.855485,-9360.722011
489.061544,153.140646,153.140646,-9399.007173
489.062171,76.570323,210.568389,-9494.720077
489.062799,38.285162,114.855485,-9533.005238
489.063426,-19.142581,191.425808,-9571.290400
489.064053,57.427742,191.425808,-9552.147819
489.064680,38.285162,114.855485,-9533.005238
489.065307,153.140646,114.855485,-9533.005238
489.065934,172.283227,76.570323,-9456.434915
489.066562,191.425808,19.142581,-9360.722011
489.067189,153.140646,57.427742,-9245.866526
489.067816,95.712904,133.998066,-9284.151688
489.068443,95.712904,133.998066,-9303.294269
489.069070,95.712904,210.568389,-9360.722011
489.069698,57.427742,287.138712,-9399.007173
489.070325,0.000000,306.281293,-9456.434915
489.070952,19.142581,210.568389,-9494.720077
489.071579,19.142581,229.710970,-9533.005238
489.072206,133.998066,210.568389,-9533.005238
489.072834,133.998066,114.855485,-9475.577496
489.073461,172.283227,38.285162,-9399.007173
489.074088,210.568389,95.712904,-9341.579430
489.074715,210.568389,95.712904,-9322.436850
489.075342,95.712904,95.712904,-9399.007173
489.075969,95.712904,172.283227,-9360.722011
489.076597,76.570323,114.855485,-9418.149754
489.077224,-76.570323,153.140646,-9571.290400
489.077851,19.142581,172.283227,-9533.005238
489.078478,0.000000,191.425808,-9571.290400
489.079105,95.712904,191.425808,-9552.147819
489.079733,76.570323,153.140646,-9533.005238
489.080360,114.855485,95.712904,-9437.292334
489.080987,133.998066,76.570323,-9379.864592
489.081614,153.140646,95.712904,-9284.151688
489.082241,153.140646,95.712904,-9245.866526
489.082869,133.998066,38.285162,-9265.009107
489.083496,95.712904,133.998066,-9303.294269
489.084123,57.427742,248.853550,-9341.579430
489.084750,-19.142581,267.996131,-9494.720077
489.085377,19.142581,229.710970,-9437.292334
489.086004,38.285162,267.996131,-9571.290400
489.086632,95.712904,191.425808,-9552.147819
489.087259,114.855485,172.283227,-9552.147819
489.087886,172.283227,114.855485,-9494.720077
489.088513,114.855485,19.142581,-9399.007173
489.089140,153.140646,0.000000,-9284.151688
489.089768,210.568389,57.427742,-9284.151688
489.090395,133.998066,57.427742,-9322.436850
489.091022,95.712904,38.285162,-9379.864592
489.091649,76.570323,172.283227,-9418.149754
489.092276,19.142581,229.710970,-9533.005238
489.092904,-38.285162,191.425808,-9513.862658
489.093531,0.000000,191.425808,-9590.432981
489.094158,76.570323,210.568389,-9533.005238
489.094785,114.855485,133.998066,-9475.577496
489.095412,153.140646,133.998066,-9399.007173
489.096040,153.140646,95.712904,-9284.151688
489.096668,153.140646,95.712904,-9245.866526
489.097295,114.855485,114.855485,-9207.581365
489.097923,114.855485,133.998066,-9245.866526
489.098551,133.998066,76.570323,-9341.579430
489.099178,95.712904,133.998066,-9360.722011
489.099806,-38.285162,248.853550,-9494.720077
489.100434,38.285162,210.568389,-9533.005238
489.101061,0.000000,248.853550,-9552.147819
489.101689,95.712904,191.425808,-9533.005238
489.102317,172.283227,133.998066,-9533.005238
489.102945,95.712904,95.712904,-9513.862658
489.103572,191.425808,19.142581,-9399.007173
489.104200,153.140646,95.712904,-9341.579430
489.104828,133.998066,38.285162,-9341.579430
489.105455,76.570323,76.570323,-9322.436850
489.106083,133.998066,172.283227,-9418.149754
489.106711,76.570323,210.568389,-9437.292334
489.107338,19.142581,210.568389,-9533.005238
489.107966,19.142581,172.283227,-9533.005238
489.108594,57.427742,248.853550,-9552.147819
489.109221,76.570323,114.855485,-9475.577496
489.109849,76.570323,153.140646,-9418.149754
489.110477,133.998066,153.140646,-9418.149754
489.111104,210.568389,38.285162,-9284.151688
489.111732,191.425808,95.712904,-9265.009107
489.112360,133.998066,38.285162,-9245.866526
489.112987,172.283227,172.283227,-9284.151688
489.113615,57.427742,153.140646,-9360.722011
489.114243,-19.142581,325.423874,-9418.149754
489.114870,0.000000,229.710970,-9571.290400
489.115498,38.285162,325.423874,-9571.290400
489.116126,114.855485,248.853550,-9552.147819
489.116754,114.855485,191.425808,-9552.147819
489.117381,114.855485,95.712904,-9494.720077
489.118009,172.283227,76.570323,-9475.577496
489.118637,191.425808,19.142581,-9360.722011
489.119264,229.710970,0.000000,-9341.579430
489.119892,133.998066,76.570323,-9379.864592
489.120520,95.712904,133.998066,-9360.722011
489.121147,133.998066,191.425808,-9418.149754
489.121775,38.285162,229.710970,-9475.577496
489.122403,38.285162,248.853550,-9533.005238
489.123030,38.285162,229.710970,-9533.005238
489.123658,38.285162,172.283227,-9475.577496
489.124286,76.570323,191.425808,-9494.720077
489.124913,95.712904,114.855485,-9418.149754
489.125541,153.140646,133.998066,-9399.007173
489.126169,248.853550,38.285162,-9245.866526
489.126796,210.568389,57.427742,-9245.866526
489.127424,95.712904,133.998066,-9245.866526
489.128052,95.712904,172.283227,-9303.294269
489.128679,133.998066,191.425808,-9399.007173
489.129307,19.142581,287.138712,-9533.005238
489.129935,0.000000,229.710970,-9513.862658
489.130562,57.427742,172.283227,-9552.147819
489.131190,57.427742,133.998066,-9552.147819
489.131818,133.998066,114.855485,-9475.577496
489.132446,114.855485,95.712904,-9418.149754
489.133073,191.425808,76.570323,-9360.722011
489.133701,153.140646,0.000000,-9360.722011
489.134329,76.570323,57.427742,-9303.294269
489.134956,133.998066,76.570323,-9341.579430
489.135584,95.712904,133.998066,-9341.579430
489.136212,57.427742,191.425808,-9418.149754
489.136839,0.000000,287.138712,-9494.720077
489.137467,-38.285162,248.853550,-9494.720077
489.138095,76.570323,229.710970,-9494.720077
489.138722,95.712904,191.425808,-9533.005238
489.139350,133.998066,153.140646,-9475.577496
489.139978,153.140646,114.855485,-9418.149754
489.140605,229.710970,114.855485,-9322.436850
489.141233,248.853550,95.712904,-9341.579430
489.141861,153.140646,95.712904,-9303.294269
489.142488,172.283227,114.855485,-9303.294269
489.143116,95.712904,133.998066,-9341.579430
489.143744,76.570323,153.140646,-9418.149754
489.144371,-38.285162,248.853550,-9513.862658
489.144999,0.000000,267.996131,-9552.147819
489.145627,38.285162,248.853550,-9590.432981
489.146255,114.855485,133.998066,-9552.147819
489.146882,76.570323,114.855485,-9533.005238
489.147510,229.710970,57.427742,-9456.434915
489.148138,172.283227,76.570323,-9360.722011
489.148765,153.140646,95.712904,-9284.151688
489.149393,133.998066,76.570323,-9265.009107
489.150021,133.998066,133.998066,-9284.151688
489.150648,76.570323,76.570323,-9322.436850
489.151276,38.285162,229.710970,-9418.149754
489.151904,0.000000,248.853550,-9475.577496
489.152531,95.712904,287.138712,-9494.720077
489.153159,38.285162,229.710970,-9475.577496
489.153787,95.712904,229.710970,-9494.720077
489.154414,133.998066,172.283227,-9418.149754
489.155042,153.140646,76.570323,-9379.864592
489.155670,191.425808,95.712904,-9284.151688
489.156297,153.140646,95.712904,-9341.579430
489.156925,153.140646,95.712904,-9303.294269
489.157553,114.855485,133.998066,-9245.866526
489.158180,114.855485,191.425808,-9360.722011
489.158808,19.142581,229.710970,-9437.292334
489.159436,57.427742,191.425808,-9552.147819
489.160064,95.712904,248.853550,-9609.575562
489.160691,95.712904,172.283227,-9533.005238
489.161319,95.712904,191.425808,-9552.147819
489.161947,95.712904,114.855485,-9475.577496
489.162574,153.140646,95.712904,-9418.149754
489.163202,191.425808,19.142581,-9360.722011
489.163830,153.140646,95.712904,-9245.866526
489.164457,95.712904,95.712904,-9379.864592
489.165085,76.570323,76.570323,-9379.864592
489.165713,95.712904,153.140646,-9360.722011
489.166340,38.285162,267.996131,-9399.007173
489.166968,-38.285162,287.138712,-9552.147819
489.167596,76.570323,287.138712,-9513.862658
489.168223,57.427742,191.425808,-9552.147819
489.168851,76.570323,210.568389,-9475.577496
489.169479,133.998066,114.855485,-9399.007173
489.170106,210.568389,76.570323,-9399.007173
489.170734,191.425808,57.427742,-9418.149754
489.171362,210.568389,95.712904,-9284.151688
489.171989,172.283227,76.570323,-9360.722011
489.172617,76.570323,76.570323,-9379.864592
489.173245,76.570323,172.283227,-9418.149754
489.173873,0.000000,191.425808,-9494.720077
489.174500,19.142581,210.568389,-9533.005238
489.175128,57.427742,172.283227,-9552.147819
489.175756,95.712904,133.998066,-9609.575562
489.176383,95.712904,133.998066,-9552.147819
489.177011,172.283227,76.570323,-9475.577496
489.177639,172.283227,76.570323,-9456.434915
489.178266,153.140646,38.285162,-9322.436850
489.178894,153.140646,57.427742,-9245.866526
489.179522,114.855485,133.998066,-9245.866526
489.180149,114.855485,248.853550,-9360.722011
489.180777,95.712904,191.425808,-9360.722011
489.181405,38.285162,210.568389,-9437.292334
489.182032,57.427742,287.138712,-9494.720077
489.182660,-38.285162,172.283227,-9513.862658
489.183288,57.427742,172.283227,-9533.005238
489.183915,133.998066,114.855485,-9475.577496
489.184543,210.568389,172.283227,-9456.434915
489.185171,191.425808,57.427742,-9418.149754
489.185798,191.425808,38.285162,-9360.722011
489.186426,153.140646,38.285162,-9360.722011
489.187054,76.570323,76.570323,-9379.864592
489.187682,76.570323,114.855485,-9418.149754
489.188309,76.570323,229.710970,-9437.292334
489.188937,38.285162,229.710970,-9533.005238
489.189565,57.427742,191.425808,-9552.147819
489.190192,57.427742,191.425808,-9552.147819
489.190820,57.427742,172.283227,-9552.147819
489.191448,76.570323,114.855485,-9533.005238
489.192075,114.855485,95.712904,-9399.007173
489.192703,153.140646,38.285162,-9360.722011
489.193331,210.568389,0.000000,-9341.579430
489.193958,133.998066,76.570323,-9284.151688
489.194586,114.855485,133.998066,-9303.294269
489.195214,95.712904,210.568389,-9303.294269
489.195841,0.000000,191.425808,-9360.722011
489.196469,-76.570323,267.996131,-9437.292334
489.197096,19.142581,153.140646,-9533.005238
489.197724,0.000000,229.710970,-9571.290400
489.198351,76.570323,172.283227,-9533.005238
489.198979,133.998066,114.855485,-9475.577496
489.199606,191.425808,133.998066,-9456.434915
489.200234,191.425808,76.570323,-9360.722011
489.200861,210.568389,114.855485,-9322.436850
489.201489,172.283227,57.427742,-9341.579430
489.202116,76.570323,76.570323,-9322.436850
489.202744,57.427742,95.712904,-9399.007173
489.203371,19.142581,191.425808,-9494.720077
489.203999,19.142581,267.996131,-9571.290400
489.204627,0.000000,153.140646,-9552.147819
489.205254,57.427742,248.853550,-9552.147819
489.205882,133.998066,172.283227,-9475.577496
489.206509,76.570323,95.712904,-9437.292334
489.207137,210.568389,133.998066,-9456.434915
489.207764,210.568389,38.285162,-9284.151688
489.208392,210.568389,95.712904,-9245.866526
489.209019,133.998066,57.427742,-9265.009107
489.209647,76.570323,114.855485,-9226.723946
489.210274,57.427742,248.853550,-9284.151688
489.210902,19.142581,229.710970,-9494.720077
489.211529,19.142581,210.568389,-9475.577496
489.212157,38.285162,210.568389,-9533.005238
489.212784,95.712904,191.425808,-9475.577496
489.213412,76.570323,114.855485,-9533.005238
489.214039,153.140646,133.998066,-9494.720077
489.214667,114.855485,57.427742,-9418.149754
489.215294,153.140646,19.142581,-9379.864592
489.215922,153.140646,95.712904,-9341.579430
489.216549,38.285162,76.570323,-9379.864592
489.217177,76.570323,172.283227,-9418.149754
489.217804,114.855485,153.140646,-9360.722011
489.218432,-38.285162,248.853550,-9399.007173
489.219059,38.285162,229.710970,-9494.720077
489.219687,95.712904,325.423874,-9475.577496
489.220314,38.285162,153.140646,-9475.577496
489.220942,95.712904,153.140646,-9533.005238
489.221569,133.998066,133.998066,-9437.292334
489.222197,153.140646,95.712904,-9418.149754
489.222824,191.425808,95.712904,-9245.866526
489.223452,153.140646,95.712904,-9284.151688
489.224079,95.712904,133.998066,-9245.866526
489.224707,114.855485,191.425808,-9341.579430
489.225334,95.712904,191.425808,-9360.722011
489.225962,38.285162,210.568389,-9533.005238
489.226589,19.142581,248.853550,-9475.577496
489.227217,57.427742,172.283227,-9609.575562
489.227844,76.570323,172.283227,-9552.147819
489.228472,133.998066,114.855485,-9533.005238
489.229099,76.570323,114.855485,-9418.149754
489.229727,210.568389,76.570323,-9437.292334
489.230354,153.140646,95.712904,-9284.151688
489.230982,76.570323,38.285162,-9322.436850
489.231609,153.140646,95.712904,-9284.151688
489.232237,57.427742,133.998066,-9379.864592
489.232864,57.427742,191.425808,-9418.149754
489.233492,-38.285162,153.140646,-9456.434915
489.234119,38.285162,210.568389,-9533.005238
489.234747,19.142581,153.140646,-9533.005238
489.235374,76.570323,153.140646,-9533.005238
489.236002,76.570323,153.140646,-9437.292334
489.236629,153.140646,95.712904,-9360.722011
489.237257,210.568389,95.712904,-9284.151688
489.237885,210.568389,0.000000,-9245.866526
489.238512,172.283227,114.855485,-9303.294269
489.239140,114.855485,172.283227,-9284.151688
489.239767,133.998066,248.853550,-9341.579430
489.240395,57.427742,287.138712,-9399.007173
489.241022,19.142581,210.568389,-9475.577496
489.241650,-19.142581,210.568389,-9571.290400
489.242277,57.427742,133.998066,-9552.147819
489.242905,76.570323,114.855485,-9475.577496
489.243532,76.570323,172.283227,-9552.147819
489.244160,191.425808,76.570323,-9437.292334
489.244787,191.425808,38.285162,-9418.149754
489.245415,172.283227,133.998066,-9360.722011
489.246042,76.570323,57.427742,-9379.864592
489.246670,133.998066,76.570323,-9341.579430
489.247297,76.570323,229.710970,-9418.149754
489.247925,38.285162,172.283227,-9494.720077
489.248552,-38.285162,191.425808,-9513.862658
489.249180,38.285162,210.568389,-9533.005238
489.249807,38.285162,172.283227,-9552.147819
489.250435,38.285162,210.568389,-9533.005238
489.251062,133.998066,114.855485,-9418.149754
489.251690,172.283227,114.855485,-9379.864592
489.252317,210.568389,133.998066,-9379.864592
489.252945,153.140646,95.712904,-9322.436850
489.253572,133.998066,76.570323,-9322.436850
489.254200,172.283227,114.855485,-9379.864592
489.254827,133.998066,210.568389,-9399.007173
489.255455,76.570323,153.140646,-9437.292334
489.256082,-57.427742,191.425808,-9513.862658
489.256710,0.000000,210.568389,-9571.290400
489.257337,38.285162,172.283227,-9552.147819
489.257965,114.855485,95.712904,-9513.862658
489.258592,133.998066,76.570323,-9571.290400
489.259220,172.283227,38.285162,-9418.149754
489.259847,153.140646,38.285162,-9341.579430
489.260475,153.140646,57.427742,-9341.579430
489.261102,133.998066,76.570323,-9303.294269
489.261730,76.570323,133.998066,-9322.436850
489.262357,114.855485,191.425808,-9379.864592
489.262985,57.427742,287.138712,-9475.577496
489.263612,76.570323,210.568389,-9475.577496
489.264240,76.570323,172.283227,-9533.005238
489.264867,76.570323,191.425808,-9533.005238
489.265495,95.712904,172.283227,-9552.147819
489.266122,210.568389,133.998066,-9456.434915
489.266750,248.853550,133.998066,-9379.864592
489.267377,248.853550,38.285162,-9341.579430
489.268005,153.140646,95.712904,-9303.294269
489.268632,76.570323,76.570323,-9379.864592
489.269260,76.570323,133.998066,-9360.722011
489.269887,38.285162,210.568389,-9418.149754
489.270515,-38.285162,191.425808,-9494.720077
489.271143,57.427742,191.425808,-9552.147819
489.271770,114.855485,191.425808,-9628.718142
489.272398,114.855485,133.998066,-9590.432981
489.273025,114.855485,133.998066,-9590.432981
489.273653,153.140646,133.998066,-9399.007173
489.274280,229.710970,57.427742,-9418.149754
489.274908,248.853550,38.285162,-9284.151688
489.275535,210.568389,114.855485,-9322.436850
489.276163,57.427742,76.570323,-9303.294269
489.276790,0.000000,248.853550,-9303.294269
489.277418,57.427742,191.425808,-9360.722011
489.278045,76.570323,229.710970,-9533.005238
489.278673,95.712904,248.853550,-9494.720077
489.279300,19.142581,229.710970,-9533.005238
489.279928,38.285162,210.568389,-9456.434915
489.280555,114.855485,133.998066,-9533.005238
489.281183,210.568389,172.283227,-9399.007173
489.281810,191.425808,76.570323,-9360.722011
489.282438,210.568389,57.427742,-9360.722011
489.283065,153.140646,95.712904,-9303.294269
489.283693,114.855485,114.855485,-9322.436850
489.284320,133.998066,76.570323,-9341.579430
489.284948,57.427742,191.425808,-9437.292334
489.285575,-19.142581,153.140646,-9571.290400
489.286203,0.000000,248.853550,-9552.147819
489.286830,114.855485,248.853550,-9552.147819
489.287458,153.140646,153.140646,-9513.862658
489.288085,133.998066,114.855485,-9475.577496
489.288713,95.712904,95.712904,-9399.007173
489.289340,114.855485,95.712904,-9379.864592
489.289968,153.140646,95.712904,-9245.866526
489.290595,114.855485,133.998066,-9341.579430
489.291223,38.285162,76.570323,-9379.864592
489.291850,114.855485,153.140646,-9360.722011
489.292478,38.285162,229.710970,-9437.292334
489.293105,19.142581,210.568389,-9437.292334
489.293733,57.427742,287.138712,-9475.577496
489.294360,57.427742,248.853550,-9533.005238
489.294988,133.998066,153.140646,-9533.005238
489.295615,133.998066,95.712904,-9456.434915
489.296243,172.283227,76.570323,-9418.149754
489.296870,210.568389,95.712904,-9341.579430
489.297498,210.568389,95.712904,-9322.436850
489.298125,114.855485,133.998066,-9341.579430
489.298753,38.285162,76.570323,-9284.151688
489.299380,38.285162,210.568389,-9418.149754
489.300008,38.285162,229.710970,-9513.862658
489.300635,57.427742,210.568389,-9552.147819
489.301263,19.142581,114.855485,-9533.005238
489.301890,95.712904,133.998066,-9552.147819
489.302518,133.998066,114.855485,-9533.005238
489.303145,114.855485,95.712904,-9399.007173
489.303773,114.855485,95.712904,-9399.007173
489.304400,191.425808,95.712904,-9245.866526
489.305028,133.998066,95.712904,-9245.866526
489.305655,172.283227,133.998066,-9341.579430
489.306283,95.712904,248.853550,-9303.294269
489.306910,76.570323,210.568389,-9418.149754
489.307538,0.000000,229.710970,-9437.292334
489.308165,0.000000,287.138712,-9513.862658
489.308792,57.427742,248.853550,-9571.290400
489.309420,153.140646,191.425808,-9513.862658
489.310047,114.855485,153.140646,-9571.290400
489.310675,95.712904,57.427742,-9437.292334
489.311302,191.425808,133.998066,-9399.007173
489.311930,133.998066,76.570323,-9284.151688
489.312557,114.855485,114.855485,-9284.151688
489.313185,95.712904,95.712904,-9379.864592
489.313812,95.712904,76.570323,-9379.864592
489.314440,114.855485,210.568389,-9360.722011
489.315067,19.142581,229.710970,-9533.005238
489.315695,95.712904,153.140646,-9552.147819
489.316322,38.285162,191.425808,-9533.005238
489.316950,38.285162,114.855485,-9533.005238
489.317577,114.855485,95.712904,-9513.862658
489.318205,133.998066,114.855485,-9456.434915
489.318832,172.283227,57.427742,-9360.722011
489.319460,172.283227,95.712904,-9303.294269
489.320087,133.998066,76.570323,-9265.009107
489.320715,114.855485,133.998066,-9245.866526
489.321342,114.855485,191.425808,-9284.151688
489.321970,153.140646,191.425808,-9456.434915
489.322597,57.427742,267.996131,-9552.147819
489.323225,57.427742,287.138712,-9494.720077
489.323852,95.712904,287.138712,-9494.720077
489.324479,133.998066,133.998066,-9513.862658
489.325107,172.283227,133.998066,-9552.147819
489.325734,191.425808,114.855485,-9379.864592
489.326362,229.710970,57.427742,-9418.149754
489.326989,153.140646,38.285162,-9360.722011
489.327617,114.855485,38.285162,-9379.864592
489.328244,38.285162,95.712904,-9399.007173
489.328872,76.570323,114.855485,-9360.722011
489.329499,19.142581,172.283227,-9418.149754
489.330127,38.285162,210.568389,-9475.577496
489.330754,19.142581,229.710970,-9533.005238
489.331382,57.427742,191.425808,-9552.147819
489.332009,76.570323,153.140646,-9494.720077
489.332637,153.140646,114.855485,-9456.434915
489.333264,153.140646,133.998066,-9437.292334
489.333892,153.140646,95.712904,-9341.579430
489.334519,191.425808,95.712904,-9245.866526
489.335147,210.568389,38.285162,-9245.866526
489.335774,76.570323,76.570323,-9284.151688
489.336402,133.998066,229.710970,-9418.149754
489.337029,0.000000,287.138712,-9475.577496
489.337657,57.427742,287.138712,-9494.720077
489.338284,38.285162,248.853550,-9552.147819
489.338911,172.283227,191.425808,-9590.432981
489.339539,114.855485,133.998066,-9533.005238
489.340166,172.283227,95.712904,-9437.292334
489.340794,191.425808,57.427742,-9475.577496
489.341421,114.855485,57.427742,-9379.864592
489.342049,153.140646,57.427742,-9303.294269
489.342676,133.998066,57.427742,-9265.009107
489.343304,114.855485,114.855485,-9284.151688
489.343931,95.712904,153.140646,-9360.722011
489.344559,19.142581,210.568389,-9494.720077
489.345186,38.285162,229.710970,-9533.005238
489.345814,38.285162,248.853550,-9513.862658
489.346441,57.427742,172.283227,-9475.577496
489.347069,76.570323,210.568389,-9552.147819
489.347696,114.855485,95.712904,-9399.007173
489.348324,114.855485,95.712904,-9399.007173
489.348951,210.568389,95.712904,-9245.866526
489.349579,172.283227,114.855485,-9265.009107
489.350206,95.712904,153.140646,-9245.866526
489.350834,57.427742,248.853550,-9245.866526
489.351461,76.570323,229.710970,-9418.149754
489.352089,76.570323,153.140646,-9437.292334
489.352716,38.285162,172.283227,-9533.005238
489.353344,38.285162,210.568389,-9533.005238
489.353971,133.998066,114.855485,-9475.577496
489.354598,114.855485,133.998066,-9552.147819
489.355226,172.283227,76.570323,-9456.434915
489.355853,191.425808,57.427742,-9418.149754
489.356481,191.425808,76.570323,-9322.436850
489.357108,133.998066,38.285162,-9341.579430
489.357736,114.855485,133.998066,-9360.722011
489.358363,76.570323,172.283227,-9360.722011
489.358991,38.285162,172.283227,-9418.149754
489.359618,38.285162,229.710970,-9475.577496
489.360246,-19.142581,172.283227,-9494.720077
489.360873,57.427742,191.425808,-9609.575562
489.361501,114.855485,172.283227,-9475.577496
489.362128,133.998066,114.855485,-9456.434915
489.362756,172.283227,76.570323,-9437.292334
489.363383,172.283227,95.712904,-9418.149754
489.364011,191.425808,114.855485,-9265.009107
489.364638,172.283227,114.855485,-9265.009107
489.365266,95.712904,153.140646,-9265.009107
489.365893,114.855485,153.140646,-9341.579430
489.366521,38.285162,229.710970,-9399.007173
489.367148,0.000000,229.710970,-9494.720077
489.367776,57.427742,229.710970,-9513.862658
489.368403,114.855485,133.998066,-9552.147819
489.369030,153.140646,133.998066,-9513.862658
489.369658,114.855485,133.998066,-9533.005238
489.370285,191.425808,19.142581,-9418.149754
489.370913,114.855485,38.285162,-9341.579430
489.371540,153.140646,95.712904,-9322.436850
489.372168,114.855485,95.712904,-9399.007173
489.372795,95.712904,153.140646,-9341.579430
489.373423,95.712904,287.138712,-9399.007173
489.374050,0.000000,229.710970,-9399.007173
489.374678,-76.570323,248.853550,-9475.577496
489.375305,57.427742,306.281293,-9513.862658
489.375933,38.285162,248.853550,-9571.290400
489.376560,133.998066,114.855485,-9475.577496
489.377188,153.140646,172.283227,-9437.292334
489.377815,172.283227,95.712904,-9399.007173
489.378443,133.998066,95.712904,-9284.151688
489.379070,153.140646,95.712904,-9245.866526
489.379698,114.855485,133.998066,-9303.294269
489.380325,133.998066,76.570323,-9265.009107
489.380953,114.855485,153.140646,-9360.722011
489.381580,76.570323,229.710970,-9437.292334
489.382208,0.000000,191.425808,-9552.147819
489.382835,57.427742,191.425808,-9628.718142
489.383463,57.427742,210.568389,-9533.005238
489.384090,133.998066,114.855485,-9533.005238
489.384717,172.283227,95.712904,-9437.292334
489.385345,210.568389,95.712904,-9360.722011
489.385972,191.425808,76.570323,-9418.149754
489.386600,114.855485,95.712904,-9399.007173
489.387227,114.855485,133.998066,-9360.722011
489.387855,114.855485,210.568389,-9360.722011
489.388482,76.570323,172.283227,-9418.149754
489.389110,19.142581,229.710970,-9456.434915
489.389737,57.427742,287.138712,-9437.292334
489.390365,38.285162,267.996131,-9571.290400
489.390992,133.998066,229.710970,-9475.577496
489.391620,76.570323,114.855485,-9456.434915
489.392247,172.283227,114.855485,-9379.864592
489.392875,191.425808,76.570323,-9418.149754
489.393502,191.425808,114.855485,-9322.436850
489.394130,95.712904,133.998066,-9341.579430
489.394757,57.427742,133.998066,-9245.866526
489.395385,133.998066,229.710970,-9418.149754
489.396012,95.712904,248.853550,-9418.149754
489.396640,0.000000,306.281293,-9513.862658
489.397267,-19.142581,153.140646,-9571.290400
489.397895,57.427742,153.140646,-9552.147819
489.398522,153.140646,95.712904,-9552.147819
489.399150,114.855485,133.998066,-9552.147819
489.399778,210.568389,95.712904,-9475.577496
489.400405,172.283227,38.285162,-9418.149754
489.401033,248.853550,0.000000,-9341.579430
489.401660,76.570323,76.570323,-9322.436850
489.402288,172.283227,153.140646,-9284.151688
489.402916,95.712904,191.425808,-9341.579430
489.403543,19.142581,229.710970,-9437.292334
489.404171,38.285162,229.710970,-9437.292334
489.404799,38.285162,229.710970,-9494.720077
489.405426,95.712904,133.998066,-9552.147819
489.406054,114.855485,191.425808,-9552.147819
489.406681,229.710970,114.855485,-9494.720077
489.407309,114.855485,95.712904,-9399.007173
489.407937,191.425808,76.570323,-9418.149754
489.408564,191.425808,95.712904,-9341.579430
489.409192,133.998066,76.570323,-9322.436850
489.409819,95.712904,191.425808,-9341.579430
489.410447,38.285162,191.425808,-9418.149754
489.411075,-38.285162,210.568389,-9494.720077
489.411702,0.000000,153.140646,-9513.862658
489.412330,76.570323,153.140646,-9533.005238
489.412957,57.427742,133.998066,-9552.147819
489.413585,133.998066,133.998066,-9513.862658
489.414213,114.855485,133.998066,-9533.005238
489.414840,210.568389,133.998066,-9494.720077
489.415468,248.853550,95.712904,-9360.722011
489.416095,153.140646,95.712904,-9303.294269
489.416723,76.570323,133.998066,-9284.151688
489.417351,95.712904,133.998066,-9360.722011
489.417978,76.570323,229.710970,-9418.149754
489.418606,57.427742,287.138712,-9399.007173
489.419234,57.427742,287.138712,-9475.577496
489.419861,38.285162,229.710970,-9533.005238
489.420489,114.855485,248.853550,-9552.147819
489.421116,76.570323,153.140646,-9533.005238
489.421744,133.998066,114.855485,-9418.149754
489.422372,229.710970,57.427742,-9418.149754
489.422999,191.425808,76.570323,-9341.579430
489.423627,172.283227,114.855485,-9303.294269
489.424254,76.570323,76.570323,-9322.436850
489.424882,76.570323,76.570323,-9341.579430
489.425510,95.712904,172.283227,-9437.292334
489.426137,57.427742,210.568389,-9609.575562
489.426765,57.427742,210.568389,-9552.147819
489.427392,95.712904,133.998066,-9628.718142
489.428020,57.427742,133.998066,-9533.005238
489.428648,76.570323,95.712904,-9475.577496
489.429275,114.855485,95.712904,-9456.434915
489.429903,172.283227,76.570323,-9418.149754
489.430530,153.140646,57.427742,-9284.151688
489.431158,114.855485,95.712904,-9207.581365
489.431786,38.285162,76.570323,-9303.294269
489.432413,95.712904,153.140646,-9322.436850
489.433041,0.000000,229.710970,-9456.434915
489.433669,-38.285162,267.996131,-9456.434915
489.434296,19.142581,267.996131,-9571.290400
489.434924,38.285162,153.140646,-9552.147819
489.435551,95.712904,229.710970,-9494.720077
489.436179,133.998066,114.855485,-9456.434915
489.436807,172.283227,95.712904,-9379.864592
489.437434,172.283227,76.570323,-9418.149754
489.438062,133.998066,95.712904,-9303.294269
489.438689,153.140646,38.285162,-9360.722011
489.439317,76.570323,114.855485,-9418.149754
489.439945,76.570323,114.855485,-9418.149754
489.440572,38.285162,114.855485,-9437.292334
489.441200,0.000000,172.283227,-9571.290400
489.441827,38.285162,153.140646,-9533.005238
489.442455,114.855485,172.283227,-9552.147819
489.443083,114.855485,95.712904,-9494.720077
489.443710,153.140646,114.855485,-9475.577496
489.444338,191.425808,57.427742,-9456.434915
489.444965,172.283227,95.712904,-9379.864592
489.445593,114.855485,114.855485,-9284.151688
489.446221,76.570323,76.570323,-9265.009107
489.446848,114.855485,153.140646,-9341.579430
489.447476,76.570323,229.710970,-9418.149754
489.448104,38.285162,229.710970,-9456.434915
489.448731,19.142581,229.710970,-9533.005238
489.449359,95.712904,287.138712,-9513.862658
489.449986,95.712904,191.425808,-9552.147819
489.450614,133.998066,153.140646,-9475.577496
489.451242,172.283227,76.570323,-9418.149754
489.451869,210.568389,133.998066,-9399.007173
489.452497,191.425808,95.712904,-9341.579430
489.453124,153.140646,133.998066,-9379.864592
489.453752,133.998066,95.712904,-9360.722011
489.454380,19.142581,153.140646,-9418.149754
489.455007,57.427742,191.425808,-9360.722011
489.455635,19.142581,248.853550,-9513.862658
489.456262,19.142581,210.568389,-9533.005238
489.456890,-38.285162,172.283227,-9513.862658
489.457518,191.425808,114.855485,-9571.290400
489.458145,153.140646,133.998066,-9513.862658
489.458773,114.855485,95.712904,-9399.007173
489.459400,172.283227,95.712904,-9399.007173
489.460028,210.568389,95.712904,-9284.151688
489.460656,76.570323,76.570323,-9284.151688
489.461283,114.855485,133.998066,-9303.294269
489.461911,76.570323,191.425808,-9360.722011
489.462539,76.570323,267.996131,-9341.579430
489.463166,19.142581,287.138712,-9475.577496
489.463794,57.427742,248.853550,-9552.147819
489.464421,114.855485,191.425808,-9552.147819
489.465049,95.712904,172.283227,-9533.005238
489.465677,133.998066,76.570323,-9513.862658
489.466304,172.283227,76.570323,-9456.434915
489.466932,172.283227,38.285162,-9360.722011
489.467559,210.568389,95.712904,-9341.579430
489.468187,76.570323,38.285162,-9379.864592
489.468815,114.855485,133.998066,-9360.722011
489.469442,114.855485,133.998066,-9360.722011
489.470070,38.285162,191.425808,-9494.720077
489.470697,19.142581,210.568389,-9533.005238
489.471325,-19.142581,153.140646,-9571.290400
489.471953,57.427742,191.425808,-9552.147819
489.472580,133.998066,229.710970,-9533.005238
489.473208,153.140646,133.998066,-9494.720077
489.473836,133.998066,114.855485,-9360.722011
489.474463,210.568389,114.855485,-9303.294269
489.475091,95.712904,133.998066,-9245.866526
489.475718,114.855485,153.140646,-9303.294269
489.476346,38.285162,76.570323,-9284.151688
489.476974,57.427742,248.853550,-9284.151688
489.477601,38.285162,229.710970,-9418.149754
489.478229,38.285162,229.710970,-9475.577496
489.478856,38.285162,229.710970,-9533.005238
489.479484,0.000000,229.710970,-9571.290400
489.480112,114.855485,133.998066,-9552.147819
489.480739,133.998066,76.570323,-9513.862658
489.481367,172.283227,95.712904,-9437.292334
489.481994,191.425808,0.000000,-9360.722011
489.482622,133.998066,76.570323,-9341.579430
489.483250,57.427742,95.712904,-9399.007173
489.483877,95.712904,133.998066,-9284.151688
489.484505,133.998066,229.710970,-9418.149754
489.485132,57.427742,229.710970,-9456.434915
489.485760,38.285162,229.710970,-9533.005238
489.486388,57.427742,172.283227,-9552.147819
489.487015,95.712904,172.283227,-9552.147819
489.487643,153.140646,172.283227,-9475.577496
489.488271,114.855485,114.855485,-9437.292334
489.488898,191.425808,114.855485,-9379.864592
489.489526,210.568389,38.285162,-9341.579430
489.490153,153.140646,95.712904,-9245.866526
489.490781,114.855485,153.140646,-9341.579430
489.491409,95.712904,248.853550,-9303.294269
489.492036,95.712904,191.425808,-9360.722011
489.492664,95.712904,191.425808,-9552.147819
489.493291,57.427742,248.853550,-9533.005238
489.493919,38.285162,153.140646,-9533.005238
489.494547,114.855485,172.283227,-9552.147819
489.495174,114.855485,133.998066,-9552.147819
489.495802,191.425808,114.855485,-9494.720077
489.496429,191.425808,76.570323,-9437.292334
489.497057,153.140646,57.427742,-9284.151688
489.497685,133.998066,95.712904,-9284.151688
489.498312,76.570323,76.570323,-9303.294269
489.498940,57.427742,133.998066,-9360.722011
489.499568,57.427742,248.853550,-9360.722011
489.500195,19.142581,229.710970,-9533.005238
489.500823,-38.285162,191.425808,-9513.862658
489.501451,57.427742,172.283227,-9552.147819
489.502078,38.285162,153.140646,-9475.577496
489.502706,76.570323,114.855485,-9475.577496
489.503333,153.140646,133.998066,-9399.007173
489.503961,191.425808,38.285162,-9360.722011
489.504589,191.425808,114.855485,-9284.151688
489.505216,76.570323,76.570323,-9341.579430
489.505844,57.427742,133.998066,-9245.866526
489.506472,95.712904,133.998066,-9360.722011
489.507099,76.570323,287.138712,-9494.720077
489.507727,19.142581,229.710970,-9533.005238
489.508355,57.427742,191.425808,-9590.432981
489.508982,57.427742,172.283227,-9609.575562
489.509610,76.570323,133.998066,-9552.147819
489.510238,76.570323,76.570323,-9513.862658
489.510865,114.855485,76.570323,-9437.292334
489.511493,191.425808,76.570323,-9418.149754
489.512120,172.283227,57.427742,-9360.722011
489.512748,153.140646,95.712904,-9284.151688
489.513376,95.712904,191.425808,-9245.866526
489.514003,19.142581,172.283227,-9418.149754
489.514631,-38.285162,210.568389,-9437.292334
489.515259,19.142581,191.425808,-9494.720077
489.515886,95.712904,191.425808,-9552.147819
489.516514,38.285162,210.568389,-9533.005238
489.517142,133.998066,210.568389,-9533.005238
489.517769,153.140646,172.283227,-9456.434915
489.518397,248.853550,133.998066,-9399.007173
489.519025,191.425808,95.712904,-9341.579430
489.519652,153.140646,95.712904,-9245.866526
489.520280,172.283227,114.855485,-9322.436850
489.520907,95.712904,76.570323,-9284.151688
489.521535,76.570323,172.283227,-9418.149754
489.522163,38.285162,210.568389,-9533.005238
489.522790,76.570323,210.568389,-9533.005238
489.523418,0.000000,133.998066,-9552.147819
489.524046,172.283227,133.998066,-9552.147819
489.524673,57.427742,133.998066,-9552.147819
489.525301,153.140646,95.712904,-9533.005238
489.525929,153.140646,95.712904,-9456.434915
489.526556,153.140646,0.000000,-9341.579430
489.527184,76.570323,57.427742,-9322.436850
489.527812,133.998066,76.570323,-9379.864592
489.528439,57.427742,133.998066,-9322.436850
489.529067,76.570323,210.568389,-9418.149754
489.529694,38.285162,229.710970,-9533.005238
489.530322,19.142581,248.853550,-9571.290400
489.530950,19.142581,229.710970,-9533.005238
489.531577,114.855485,191.425808,-9533.005238
489.532205,210.568389,191.425808,-9513.862658
489.532833,210.568389,172.283227,-9379.864592
489.533460,153.140646,95.712904,-9322.436850
489.534088,153.140646,95.712904,-9245.866526
489.534716,133.998066,76.570323,-9265.009107
489.535343,114.855485,114.855485,-9322.436850
489.535971,95.712904,133.998066,-9360.722011
489.536599,76.570323,229.710970,-9437.292334
489.537226,-19.142581,267.996131,-9475.577496
489.537854,57.427742,191.425808,-9552.147819
489.538482,57.427742,153.140646,-9590.432981
489.539109,114.855485,133.998066,-9552.147819
489.539737,114.855485,76.570323,-9552.147819
489.540364,153.140646,114.855485,-9418.149754
489.540992,191.425808,76.570323,-9360.722011
489.541620,153.140646,95.712904,-9284.151688
489.542247,114.855485,114.855485,-9322.436850
489.542875,114.855485,133.998066,-9284.151688
489.543503,95.712904,229.710970,-9418.149754
489.544130,57.427742,229.710970,-9418.149754
489.544758,57.427742,287.138712,-9437.292334
489.545386,38.285162,210.568389,-9533.005238
489.546013,114.855485,248.853550,-9533.005238
489.546641,95.712904,229.710970,-9475.577496
489.547269,95.712904,114.855485,-9475.577496
489.547896,172.283227,76.570323,-9418.149754
489.548524,172.283227,114.855485,-9303.294269
489.549151,114.855485,114.855485,-9284.151688
489.549779,76.570323,133.998066,-9245.866526
489.550407,95.712904,133.998066,-9322.436850
489.551034,76.570323,172.283227,-9418.149754
489.551662,76.570323,210.568389,-9513.862658
489.552290,57.427742,133.998066,-9552.147819
489.552917,95.712904,191.425808,-9552.147819
489.553545,57.427742,133.998066,-9552.147819
489.554173,95.712904,133.998066,-9552.147819
489.554800,114.855485,95.712904,-9494.720077
489.555428,172.283227,57.427742,-9456.434915
489.556056,191.425808,76.570323,-9360.722011
489.556683,153.140646,57.427742,-9303.294269
489.557311,172.283227,133.998066,-9360.722011
489.557938,57.427742,133.998066,-9322.436850
489.558566,38.285162,153.140646,-9399.007173
489.559194,38.285162,229.710970,-9456.434915
489.559821,57.427742,287.138712,-9475.577496
489.560449,38.285162,210.568389,-9552.147819
489.561077,114.855485,133.998066,-9552.147819
489.561704,133.998066,133.998066,-9494.720077
489.562332,133.998066,114.855485,-9418.149754
489.562960,172.283227,57.427742,-9399.007173
489.563587,153.140646,95.712904,-9341.579430
489.564215,133.998066,57.427742,-9379.864592
489.564843,133.998066,57.427742,-9360.722011
489.565470,57.427742,210.568389,-9341.579430
489.566098,95.712904,287.138712,-9399.007173
489.566725,0.000000,248.853550,-9552.147819
489.567353,57.427742,153.140646,-9552.147819
489.567981,95.712904,153.140646,-9533.005238
489.568608,114.855485,172.283227,-9571.290400
489.569236,76.570323,76.570323,-9533.005238
489.569864,153.140646,133.998066,-9399.007173
489.570491,172.283227,57.427742,-9379.864592
489.571119,153.140646,95.712904,-9341.579430
489.571747,76.570323,76.570323,-9265.009107
489.572374,95.712904,153.140646,-9284.151688
489.573002,76.570323,229.710970,-9341.579430
489.573630,0.000000,191.425808,-9360.722011
489.574257,0.000000,287.138712,-9399.007173
489.574885,19.142581,248.853550,-9513.862658
489.575512,38.285162,210.568389,-9533.005238
489.576140,133.998066,114.855485,-9475.577496
489.576768,114.855485,133.998066,-9533.005238
489.577395,191.425808,57.427742,-9418.149754
489.578023,210.568389,95.712904,-9341.579430
489.578651,229.710970,114.855485,-9303.294269
489.579278,210.568389,95.712904,-9341.579430
489.579906,133.998066,76.570323,-9341.579430
489.580534,0.000000,153.140646,-9360.722011
489.581161,19.142581,210.568389,-9437.292334
489.581789,-19.142581,210.568389,-9571.290400
489.582417,57.427742,191.425808,-9533.005238
489.583044,114.855485,133.998066,-9552.147819
489.583672,76.570323,114.855485,-9533.005238
489.584299,133.998066,114.855485,-9418.149754
489.584927,153.140646,95.712904,-9341.579430
489.585555,210.568389,19.142581,-9284.151688
489.586182,191.425808,95.712904,-9245.866526
489.586810,133.998066,76.570323,-9322.436850
489.587438,114.855485,172.283227,-9341.579430
489.588065,95.712904,287.138712,-9399.007173
489.588693,38.285162,267.996131,-9379.864592
489.589321,38.285162,287.138712,-9437.292334
489.589948,57.427742,229.710970,-9513.862658
489.590576,95.712904,191.425808,-9590.432981
489.591204,133.998066,114.855485,-9475.577496
489.591831,210.568389,133.998066,-9437.292334
489.592459,191.425808,57.427742,-9418.149754
489.593086,248.853550,38.285162,-9360.722011
489.593714,133.998066,95.712904,-9341.579430
489.594342,114.855485,133.998066,-9360.722011
489.594969,114.855485,172.283227,-9379.864592
489.595597,38.285162,172.283227,-9418.149754
489.596225,0.000000,153.140646,-9552.147819
489.596852,0.000000,210.568389,-9571.290400
489.597480,0.000000,172.283227,-9609.575562
489.598107,95.712904,172.283227,-9475.577496
489.598735,76.570323,172.283227,-9533.005238
489.599362,38.285162,114.855485,-9456.434915
489.599990,210.568389,133.998066,-9399.007173
489.600617,114.855485,133.998066,-9303.294269
489.601245,95.712904,133.998066,-9245.866526
489.601872,95.712904,153.140646,-9245.866526
489.602500,0.000000,248.853550,-9360.722011
489.603127,0.000000,287.138712,-9456.434915
489.603755,38.285162,210.568389,-9533.005238
489.604382,57.427742,229.710970,-9494.720077
489.605010,0.000000,229.710970,-9571.290400
489.605637,133.998066,114.855485,-9533.005238
489.606265,114.855485,76.570323,-9533.005238
489.606892,210.568389,19.142581,-9437.292334
489.607520,229.710970,38.285162,-9418.149754
489.608147,191.425808,95.712904,-9360.722011
489.608775,76.570323,95.712904,-9341.579430
489.609402,76.570323,76.570323,-9322.436850
489.610030,95.712904,114.855485,-9418.149754
489.610657,19.142581,229.710970,-9437.292334
489.611284,19.142581,229.710970,-9533.005238
489.611912,57.427742,287.138712,-9494.720077
489.612539,114.855485,172.283227,-9552.147819
489.613167,133.998066,76.570323,-9494.720077
489.613794,210.568389,133.998066,-9399.007173
489.614422,172.283227,76.570323,-9418.149754
489.615049,172.283227,153.140646,-9379.864592
489.615677,191.425808,114.855485,-9303.294269
489.616304,210.568389,95.712904,-9322.436850
489.616932,57.427742,153.140646,-9303.294269
489.617559,76.570323,229.710970,-9418.149754
489.618187,76.570323,210.568389,-9494.720077
489.618814,-38.285162,191.425808,-9513.862658
489.619442,76.570323,153.140646,-9533.005238
489.620069,76.570323,133.998066,-9552.147819
489.620697,76.570323,114.855485,-9533.005238
489.621324,76.570323,76.570323,-9533.005238
489.621952,172.283227,38.285162,-9399.007173
489.622579,153.140646,0.000000,-9360.722011
489.623207,133.998066,95.712904,-9341.579430
489.623834,153.140646,95.712904,-9341.579430
489.624462,153.140646,133.998066,-9399.007173
489.625089,133.998066,153.140646,-9418.149754
489.625716,19.142581,153.140646,-9437.292334
489.626344,57.427742,248.853550,-9552.147819
489.626971,57.427742,133.998066,-9552.147819
489.627599,76.570323,133.998066,-9533.005238
489.628226,133.998066,114.855485,-9533.005238
489.628854,210.568389,133.998066,-9437.292334
489.629481,172.283227,76.570323,-9456.434915
489.630109,210.568389,95.712904,-9245.866526
489.630736,172.283227,153.140646,-9265.009107
489.631364,172.283227,210.568389,-9265.009107
489.631991,95.712904,191.425808,-9341.579430
489.632619,133.998066,267.996131,-9341.579430
489.633246,57.427742,287.138712,-9456.434915
489.633874,0.000000,191.425808,-9533.005238
489.634501,57.427742,248.853550,-9552.147819
489.635129,153.140646,133.998066,-9513.862658
489.635756,153.140646,95.712904,-9552.147819
489.636384,114.855485,0.000000,-9437.292334
489.637011,172.283227,19.142581,-9418.149754
489.637639,210.568389,95.712904,-9341.579430
489.638266,95.712904,133.998066,-9341.579430
489.638893,95.712904,133.998066,-9341.579430
489.639521,76.570323,114.855485,-9418.149754
489.640148,76.570323,229.710970,-9418.149754
489.640776,38.285162,191.425808,-9533.005238
489.641403,95.712904,248.853550,-9552.147819
489.642031,57.427742,248.853550,-9552.147819
489.642658,76.570323,172.283227,-9456.434915
489.643286,153.140646,133.998066,-9494.720077
489.643913,210.568389,133.998066,-9379.864592
489.644541,172.283227,76.570323,-9418.149754
489.645168,191.425808,114.855485,-9303.294269
489.645796,172.283227,114.855485,-9303.294269
489.646423,95.712904,153.140646,-9341.579430
489.647051,76.570323,191.425808,-9418.149754
489.647678,76.570323,229.710970,-9494.720077
489.648306,-76.570323,267.996131,-9533.005238
489.648933,57.427742,153.140646,-9552.147819
489.649561,76.570323,133.998066,-9552.147819
489.650188,114.855485,133.998066,-9533.005238
489.650816,133.998066,76.570323,-9494.720077
489.651443,172.283227,57.427742,-9418.149754
489.652071,114.855485,19.142581,-9379.864592
489.652698,153.140646,0.000000,-9322.436850
489.653325,153.140646,95.712904,-9360.722011
489.653953,95.712904,133.998066,-9322.436850
489.654580,57.427742,248.853550,-9360.722011
489.655208,19.142581,229.710970,-9437.292334
489.655835,19.142581,210.568389,-9475.577496
489.656463,38.285162,210.568389,-9533.005238
489.657090,57.427742,172.283227,-9552.147819
489.657718,76.570323,153.140646,-9494.720077
489.658345,76.570323,114.855485,-9456.434915
489.658973,153.140646,95.712904,-9360.722011
489.659600,153.140646,57.427742,-9303.294269
489.660228,191.425808,95.712904,-9245.866526
489.660855,153.140646,95.712904,-9341.579430
489.661483,95.712904,248.853550,-9303.294269
489.662110,38.285162,172.283227,-9437.292334
489.662738,38.285162,153.140646,-9494.720077
489.663365,57.427742,191.425808,-9552.147819
489.663993,57.427742,172.283227,-9609.575562
489.664620,57.427742,133.998066,-9552.147819
489.665248,114.855485,133.998066,-9533.005238
489.665875,114.855485,95.712904,-9456.434915
489.666502,172.283227,38.285162,-9437.292334
489.667130,210.568389,95.712904,-9245.866526
489.667757,210.568389,76.570323,-9341.579430
489.668385,114.855485,172.283227,-9303.294269
489.669012,95.712904,191.425808,-9360.722011
489.669640,57.427742,210.568389,-9418.149754
489.670267,57.427742,229.710970,-9437.292334
489.670895,38.285162,229.710970,-9437.292334
489.671522,57.427742,287.138712,-9494.720077
489.672150,133.998066,210.568389,-9475.577496
489.672777,133.998066,153.140646,-9533.005238
489.673405,210.568389,133.998066,-9399.007173
489.674032,229.710970,57.427742,-9418.149754
489.674660,210.568389,95.712904,-9341.579430
489.675287,172.283227,114.855485,-9341.579430
489.675915,133.998066,76.570323,-9265.009107
489.676542,38.285162,191.425808,-9418.149754
489.677170,76.570323,229.710970,-9418.149754
489.677797,19.142581,267.996131,-9590.432981
489.678425,57.427742,172.283227,-9552.147819
489.679052,38.285162,153.140646,-9533.005238
489.679680,133.998066,114.855485,-9533.005238
489.680307,133.998066,76.570323,-9513.862658
489.680934,114.855485,95.712904,-9399.007173
489.681562,191.425808,76.570323,-9360.722011
489.682189,133.998066,95.712904,-9341.579430
489.682817,76.570323,76.570323,-9379.864592
489.683444,95.712904,153.140646,-9245.866526
489.684072,95.712904,248.853550,-9360.722011
489.684699,38.285162,248.853550,-9360.722011
489.685327,57.427742,229.710970,-9399.007173
489.685954,38.285162,210.568389,-9533.005238
489.686582,95.712904,133.998066,-9552.147819
489.687209,76.570323,153.140646,-9475.577496
489.687837,153.140646,133.998066,-9437.292334
489.688464,153.140646,133.998066,-9379.864592
489.689092,210.568389,95.712904,-9284.151688
489.689719,172.283227,114.855485,-9341.579430
489.690347,133.998066,95.712904,-9360.722011
489.690974,76.570323,133.998066,-9341.579430
489.691602,57.427742,172.283227,-9418.149754
489.692229,19.142581,210.568389,-9475.577496
489.692857,57.427742,153.140646,-9533.005238
489.693484,38.285162,172.283227,-9533.005238
489.694111,76.570323,133.998066,-9552.147819
489.694739,95.712904,133.998066,-9552.147819
489.695366,153.140646,114.855485,-9456.434915
489.695994,153.140646,133.998066,-9399.007173
489.696621,248.853550,95.712904,-9341.579430
489.697249,133.998066,76.570323,-9284.151688
489.697876,95.712904,133.998066,-9341.579430
489.698504,76.570323,153.140646,-9379.864592
489.699131,76.570323,210.568389,-9341.579430
489.699758,0.000000,267.996131,-9437.292334
489.700386,0.000000,267.996131,-9533.005238
489.701013,76.570323,248.853550,-9571.290400
489.701640,114.855485,172.283227,-9552.147819
489.702268,133.998066,114.855485,-9533.005238
489.702895,153.140646,133.998066,-9399.007173
489.703522,191.425808,114.855485,-9303.294269
489.704149,153.140646,95.712904,-9303.294269
489.704777,133.998066,76.570323,-9284.151688
489.705404,114.855485,133.998066,-9245.866526
489.706031,95.712904,133.998066,-9360.722011
489.706659,38.285162,114.855485,-9437.292334
489.707286,19.142581,229.710970,-9533.005238
489.707913,57.427742,229.710970,-9494.720077
489.708541,57.427742,191.425808,-9552.147819
489.709168,57.427742,133.998066,-9533.005238
489.709795,133.998066,114.855485,-9475.577496
489.710423,114.855485,76.570323,-9475.577496
489.711050,210.568389,76.570323,-9379.864592
489.711677,191.425808,95.712904,-9245.866526
489.712304,114.855485,133.998066,-9341.579430
489.712932,114.855485,133.998066,-9341.579430
489.713559,95.712904,229.710970,-9399.007173
489.714186,38.285162,191.425808,-9379.864592
489.714814,19.142581,210.568389,-9494.720077
489.715441,57.427742,287.138712,-9513.862658
489.716068,95.712904,248.853550,-9609.575562
489.716696,133.998066,114.855485,-9533.005238
489.717323,210.568389,133.998066,-9494.720077
489.717950,114.855485,95.712904,-9399.007173
489.718578,210.568389,57.427742,-9360.722011
489.719205,133.998066,76.570323,-9265.009107
489.719832,95.712904,76.570323,-9322.436850
489.720460,38.285162,76.570323,-9379.864592
489.721087,38.285162,172.283227,-9418.149754
489.721714,19.142581,172.283227,-9437.292334
489.722341,-38.285162,248.853550,-9437.292334
489.722969,38.285162,229.710970,-9533.005238
489.723596,57.427742,172.283227,-9609.575562
489.724223,95.712904,133.998066,-9552.147819
489.724851,153.140646,114.855485,-9456.434915
489.725478,191.425808,76.570323,-9418.149754
489.726105,191.425808,76.570323,-9360.722011
489.726733,153.140646,95.712904,-9303.294269
489.727360,114.855485,153.140646,-9341.579430
489.727987,95.712904,191.425808,-9322.436850
489.728615,133.998066,267.996131,-9379.864592
489.729242,0.000000,287.138712,-9399.007173
489.729869,38.285162,325.423874,-9571.290400
489.730496,38.285162,153.140646,-9533.005238
489.731124,76.570323,114.855485,-9533.005238
489.731751,172.283227,133.998066,-9552.147819
489.732378,153.140646,133.998066,-9456.434915
489.733006,191.425808,76.570323,-9418.149754
489.733633,248.853550,57.427742,-9341.579430
489.734260,191.425808,38.285162,-9341.579430
489.734888,76.570323,76.570323,-9341.579430
489.735515,95.712904,153.140646,-9360.722011
489.736142,38.285162,210.568389,-9418.149754
489.736770,76.570323,210.568389,-9533.005238
489.737397,0.000000,172.283227,-9609.575562
489.738024,57.427742,172.283227,-9552.147819
489.738651,76.570323,133.998066,-9533.005238
489.739279,210.568389,95.712904,-9552.147819
489.739906,210.568389,133.998066,-9379.864592
489.740533,210.568389,95.712904,-9303.294269
489.741161,210.568389,38.285162,-9284.151688
489.741788,76.570323,76.570323,-9265.009107
489.742415,57.427742,172.283227,-9226.723946
489.743043,57.427742,248.853550,-9341.579430
489.743670,76.570323,325.423874,-9379.864592
489.744297,-19.142581,267.996131,-9418.149754
489.744925,-19.142581,229.710970,-9571.290400
489.745552,76.570323,133.998066,-9590.432981
489.746179,172.283227,114.855485,-9571.290400
489.746807,172.283227,57.427742,-9513.862658
489.747434,191.425808,19.142581,-9437.292334
489.748061,210.568389,0.000000,-9341.579430
489.748688,133.998066,57.427742,-9284.151688
489.749316,76.570323,95.712904,-9379.864592
489.749943,95.712904,191.425808,-9360.722011
489.750570,38.285162,229.710970,-9418.149754
489.751198,76.570323,229.710970,-9494.720077
489.751825,-38.285162,306.281293,-9552.147819
489.752452,76.570323,229.710970,-9533.005238
489.753080,133.998066,114.855485,-9475.577496
489.753707,133.998066,114.855485,-9475.577496
489.754334,153.140646,133.998066,-9494.720077
489.754962,133.998066,95.712904,-9418.149754
489.755589,248.853550,38.285162,-9303.294269
489.756216,172.283227,57.427742,-9226.723946
489.756843,114.855485,133.998066,-9341.579430
489.757471,95.712904,133.998066,-9360.722011
489.758098,95.712904,248.853550,-9360.722011
489.758725,38.285162,287.138712,-9456.434915
489.759353,57.427742,248.853550,-9552.147819
489.759980,57.427742,153.140646,-9552.147819
489.760607,76.570323,114.855485,-9533.005238
489.761235,76.570323,114.855485,-9494.720077
489.761862,114.855485,38.285162,-9437.292334
489.762489,172.283227,57.427742,-9418.149754
489.763117,172.283227,76.570323,-9418.149754
489.763744,95.712904,133.998066,-9341.579430
489.764371,133.998066,76.570323,-9303.294269
489.764999,95.712904,133.998066,-9360.722011
489.765626,76.570323,153.140646,-9418.149754
489.766253,38.285162,229.710970,-9475.577496
489.766880,38.285162,229.710970,-9437.292334
489.767508,19.142581,191.425808,-9533.005238
489.768135,76.570323,191.425808,-9533.005238
489.768762,133.998066,114.855485,-9475.577496
489.769390,210.568389,114.855485,-9379.864592
489.770017,191.425808,76.570323,-9418.149754
489.770644,210.568389,114.855485,-9265.009107
489.771272,172.283227,114.855485,-9265.009107
489.771899,114.855485,153.140646,-9303.294269
489.772526,95.712904,191.425808,-9360.722011
489.773154,38.285162,229.710970,-9437.292334
489.773781,0.000000,191.425808,-9552.147819
489.774408,95.712904,153.140646,-9552.147819
489.775035,57.427742,172.283227,-9552.147819
489.775663,133.998066,114.855485,-9533.005238
489.776290,172.283227,95.712904,-9494.720077
489.776917,172.283227,38.285162,-9418.149754
489.777545,210.568389,95.712904,-9341.579430
489.778172,153.140646,38.285162,-9245.866526
489.778799,57.427742,76.570323,-9322.436850
489.779427,95.712904,114.855485,-9360.722011
489.780054,133.998066,229.710970,-9360.722011
489.780681,19.142581,229.710970,-9437.292334
489.781309,57.427742,229.710970,-9533.005238
489.781936,19.142581,191.425808,-9475.577496
489.782563,114.855485,191.425808,-9552.147819
489.783190,76.570323,153.140646,-9533.005238
489.783818,114.855485,95.712904,-9437.292334
489.784445,153.140646,114.855485,-9418.149754
489.785072,153.140646,95.712904,-9341.579430
489.785700,191.425808,95.712904,-9303.294269
489.786327,95.712904,153.140646,-9284.151688
489.786954,95.712904,172.283227,-9360.722011
489.787582,76.570323,229.710970,-9437.292334
489.788209,19.142581,229.710970,-9533.005238
489.788836,-38.285162,248.853550,-9513.862658
489.789464,-38.285162,172.283227,-9513.862658
489.790091,76.570323,133.998066,-9552.147819
489.790718,172.283227,153.140646,-9571.290400
489.791346,210.568389,57.427742,-9533.005238
489.791973,248.853550,76.570323,-9418.149754
489.792600,153.140646,38.285162,-9303.294269
489.793227,153.140646,57.427742,-9341.579430
489.793855,172.283227,172.283227,-9379.864592
489.794482,95.712904,172.283227,-9245.866526
489.795109,95.712904,267.996131,-9379.864592
489.795737,38.285162,229.710970,-9494.720077
489.796364,0.000000,287.138712,-9513.862658
489.796991,76.570323,172.283227,-9552.147819
489.797619,76.570323,210.568389,-9475.577496
489.798246,133.998066,114.855485,-9494.720077
489.798873,153.140646,133.998066,-9399.007173
489.799501,210.568389,133.998066,-9399.007173
489.800129,210.568389,95.712904,-9245.866526
489.800756,114.855485,114.855485,-9303.294269
489.801384,114.855485,133.998066,-9284.151688
489.802011,57.427742,172.283227,-9360.722011
489.802639,57.427742,229.710970,-9418.149754
489.803266,0.000000,248.853550,-9552.147819
489.803894,-19.142581,191.425808,-9552.147819
489.804521,57.427742,191.425808,-9590.432981
489.805149,172.283227,133.998066,-9552.147819
489.805776,191.425808,114.855485,-9571.290400
489.806404,248.853550,133.998066,-9494.720077
489.807031,191.425808,57.427742,-9418.149754
489.807659,76.570323,38.285162,-9322.436850
489.808286,133.998066,95.712904,-9284.151688
489.808914,57.427742,153.140646,-9284.151688
489.809541,57.427742,172.283227,-9341.579430
489.810169,0.000000,210.568389,-9360.722011
489.810796,-19.142581,267.996131,-9475.577496
489.811424,38.285162,210.568389,-9475.577496
489.812052,114.855485,172.283227,-9552.147819
489.812679,114.855485,133.998066,-9552.147819
489.813307,153.140646,76.570323,-9494.720077
489.813934,153.140646,95.712904,-9360.722011
489.814562,153.140646,133.998066,-9322.436850
489.815189,172.283227,114.855485,-9265.009107
489.815817,153.140646,95.712904,-9303.294269
489.816444,114.855485,133.998066,-9322.436850
489.817072,95.712904,114.855485,-9399.007173
489.817699,19.142581,172.283227,-9494.720077
489.818327,19.142581,114.855485,-9533.005238
489.818954,57.427742,191.425808,-9552.147819
489.819582,57.427742,133.998066,-9533.005238
489.820209,95.712904,133.998066,-9552.147819
489.820837,153.140646,76.570323,-9494.720077
489.821464,172.283227,57.427742,-9418.149754
489.822092,153.140646,57.427742,-9360.722011
489.822720,229.710970,114.855485,-9265.009107
489.823347,133.998066,133.998066,-9322.436850
489.823975,95.712904,153.140646,-9322.436850
489.824602,114.855485,287.138712,-9399.007173
489.825230,57.427742,306.281293,-9475.577496
489.825857,57.427742,267.996131,-9571.290400
489.826485,38.285162,210.568389,-9533.005238
489.827112,133.998066,153.140646,-9533.005238
489.827740,210.568389,172.283227,-9437.292334
489.828367,153.140646,133.998066,-9399.007173
489.828995,229.710970,57.427742,-9418.149754
489.829622,248.853550,95.712904,-9341.579430
489.830250,153.140646,95.712904,-9341.579430
489.830877,76.570323,76.570323,-9303.294269
489.831505,38.285162,114.855485,-9418.149754
489.832132,38.285162,191.425808,-9437.292334
489.832760,0.000000,191.425808,-9552.147819
489.833387,0.000000,172.283227,-9590.432981
489.834015,57.427742,191.425808,-9552.147819
489.834643,114.855485,95.712904,-9494.720077
489.835270,133.998066,76.570323,-9513.862658
489.835898,210.568389,133.998066,-9399.007173
489.836525,191.425808,114.855485,-9379.864592
489.837153,210.568389,95.712904,-9284.151688
489.837780,95.712904,133.998066,-9322.436850
489.838408,114.855485,153.140646,-9284.151688
489.839035,95.712904,133.998066,-9322.436850
489.839663,19.142581,229.710970,-9437.292334
489.840290,-38.285162,248.853550,-9513.862658
489.840918,57.427742,229.710970,-9437.292334
489.841545,133.998066,229.710970,-9475.577496
489.842173,133.998066,133.998066,-9513.862658
489.842800,210.568389,133.998066,-9494.720077
489.843428,229.710970,19.142581,-9418.149754
489.844055,114.855485,95.712904,-9379.864592
489.844683,153.140646,95.712904,-9360.722011
489.845311,114.855485,133.998066,-9322.436850
489.845938,95.712904,153.140646,-9360.722011
489.846566,57.427742,191.425808,-9418.149754
489.847193,38.285162,229.710970,-9533.005238
489.847821,-19.142581,114.855485,-9513.862658
489.848448,76.570323,248.853550,-9647.860723
489.849076,76.570323,172.283227,-9552.147819
489.849703,114.855485,133.998066,-9552.147819
489.850331,114.855485,38.285162,-9437.292334
489.850958,191.425808,76.570323,-9418.149754
489.851586,210.568389,95.712904,-9245.866526
489.852213,153.140646,95.712904,-9303.294269
489.852841,76.570323,133.998066,-9341.579430
489.853468,114.855485,153.140646,-9341.579430
489.854096,57.427742,191.425808,-9360.722011
489.854723,-57.427742,248.853550,-9513.862658
489.855351,19.142581,248.853550,-9513.862658
489.855978,57.427742,191.425808,-9552.147819
489.856606,114.855485,172.283227,-9552.147819
489.857234,133.998066,114.855485,-9533.005238
489.857861,172.283227,76.570323,-9475.577496
489.858489,210.568389,76.570323,-9418.149754
489.859116,248.853550,19.142581,-9341.579430
489.859744,95.712904,133.998066,-9341.579430
489.860371,133.998066,95.712904,-9341.579430
489.860999,76.570323,114.855485,-9418.149754
489.861626,95.712904,248.853550,-9360.722011
489.862254,57.427742,191.425808,-9552.147819
489.862881,-19.142581,191.425808,-9571.290400
489.863509,57.427742,172.283227,-9552.147819
489.864136,114.855485,153.140646,-9552.147819
489.864764,114.855485,133.998066,-9552.147819
489.865391,153.140646,114.855485,-9418.149754
489.866019,153.140646,95.712904,-9284.151688
489.866646,172.283227,95.712904,-9303.294269
489.867274,114.855485,76.570323,-9226.723946
489.867902,38.285162,153.140646,-9303.294269
489.868529,57.427742,229.710970,-9360.722011
489.869157,57.427742,248.853550,-9418.149754
489.869784,38.285162,267.996131,-9513.862658
489.870412,-19.142581,191.425808,-9552.147819
489.871039,57.427742,153.140646,-9552.147819
489.871667,76.570323,210.568389,-9533.005238
489.872294,133.998066,76.570323,-9494.720077
489.872922,172.283227,19.142581,-9418.149754
489.873549,114.855485,95.712904,-9399.007173
489.874177,153.140646,95.712904,-9341.579430
489.874804,95.712904,133.998066,-9341.579430
489.875432,95.712904,133.998066,-9360.722011
489.876059,76.570323,210.568389,-9437.292334
489.876687,57.427742,229.710970,-9437.292334
489.877314,19.142581,287.138712,-9552.147819
489.877942,0.000000,172.283227,-9552.147819
489.878569,57.427742,153.140646,-9552.147819
489.879197,133.998066,153.140646,-9437.292334
489.879825,133.998066,153.140646,-9418.149754
489.880452,191.425808,38.285162,-9418.149754
489.881080,210.568389,95.712904,-9245.866526
489.881707,153.140646,95.712904,-9245.866526
489.882335,57.427742,133.998066,-9322.436850
489.882962,95.712904,172.283227,-9245.866526
489.883590,95.712904,191.425808,-9418.149754
489.884217,19.142581,287.138712,-9494.720077
489.884845,57.427742,172.283227,-9552.147819
489.885472,76.570323,248.853550,-9552.147819
489.886100,95.712904,133.998066,-9533.005238
489.886727,133.998066,153.140646,-9533.005238
489.887355,133.998066,114.855485,-9437.292334
489.887982,210.568389,57.427742,-9360.722011
489.888610,76.570323,57.427742,-9322.436850
489.889237,133.998066,76.570323,-9379.864592
489.889865,76.570323,76.570323,-9379.864592
489.890493,57.427742,191.425808,-9360.722011
489.891120,0.000000,248.853550,-9418.149754
489.891748,19.142581,229.710970,-9533.005238
489.892375,57.427742,210.568389,-9475.577496
489.893003,133.998066,172.283227,-9533.005238
489.893630,153.140646,133.998066,-9437.292334
489.894258,153.140646,133.998066,-9494.720077
489.894885,210.568389,114.855485,-9379.864592
489.895513,210.568389,133.998066,-9399.007173
489.896140,210.568389,0.000000,-9303.294269
