#time,accel_x,accel_y,accel_z
522.563406,-38.285162,267.996131,-9456.434915
522.564033,-19.142581,248.853550,-9437.292334
522.564661,0.000000,287.138712,-9513.862658
522.565288,57.427742,248.853550,-9552.147819
522.565915,133.998066,114.855485,-9533.005238
522.566543,133.998066,95.712904,-9456.434915
522.567170,210.568389,57.427742,-9418.149754
522.567798,287.138712,57.427742,-9360.722011
522.568425,191.425808,0.000000,-9341.579430
522.569053,76.570323,76.570323,-9284.151688
522.569680,38.285162,76.570323,-9322.436850
522.570307,0.000000,248.853550,-9360.722011
522.570935,0.000000,306.281293,-9475.577496
522.571562,-76.570323,248.853550,-9494.720077
522.572190,19.142581,287.138712,-9552.147819
522.572817,57.427742,133.998066,-9552.147819
522.573445,133.998066,153.140646,-9456.434915
522.574072,191.425808,133.998066,-9437.292334
522.574700,191.425808,19.142581,-9418.149754
522.575327,248.853550,0.000000,-9284.151688
522.575954,191.425808,95.712904,-9303.294269
522.576582,114.855485,133.998066,-9245.866526
522.577209,95.712904,267.996131,-9322.436850
522.577837,19.142581,325.423874,-9284.151688
522.578464,0.000000,325.423874,-9533.005238
522.579092,-19.142581,287.138712,-9552.147819
522.579719,57.427742,191.425808,-9552.147819
522.580346,95.712904,133.998066,-9533.005238
522.580974,114.855485,114.855485,-9571.290400
522.581601,172.283227,95.712904,-9399.007173
522.582229,172.283227,38.285162,-9418.149754
522.582856,153.140646,0.000000,-9360.722011
522.583484,210.568389,-19.142581,-9245.866526
522.584111,76.570323,76.570323,-9322.436850
522.584738,57.427742,210.568389,-9360.722011
522.585366,38.285162,267.996131,-9379.864592
522.585993,0.000000,287.138712,-9475.577496
522.586621,-19.142581,267.996131,-9533.005238
522.587248,19.142581,267.996131,-9571.290400
522.587876,133.998066,114.855485,-9437.292334
522.588503,153.140646,114.855485,-9418.149754
522.589130,191.425808,38.285162,-9437.292334
522.589758,229.710970,19.142581,-9360.722011
522.590385,191.425808,57.427742,-9245.866526
522.591013,191.425808,57.427742,-9245.866526
522.591640,38.285162,210.568389,-9284.151688
522.592268,57.427742,248.853550,-9360.722011
522.592895,0.000000,306.281293,-9475.577496
522.593523,-76.570323,267.996131,-9533.005238
522.594150,-19.142581,248.853550,-9552.147819
522.594777,38.285162,210.568389,-9590.432981
522.595405,114.855485,95.712904,-9475.577496
522.596032,114.855485,38.285162,-9494.720077
522.596660,191.425808,19.142581,-9418.149754
522.597287,287.138712,-38.285162,-9360.722011
522.597915,248.853550,38.285162,-9245.866526
522.598542,95.712904,57.427742,-9399.007173
522.599169,76.570323,248.853550,-9322.436850
522.599797,38.285162,248.853550,-9360.722011
522.600424,-76.570323,325.423874,-9437.292334
522.601052,0.000000,363.709035,-9475.577496
522.601679,38.285162,267.996131,-9571.290400
522.602307,133.998066,229.710970,-9533.005238
522.602934,153.140646,114.855485,-9533.005238
522.603561,248.853550,133.998066,-9379.864592
522.604189,248.853550,114.855485,-9379.864592
522.604816,210.568389,95.712904,-9245.866526
522.605444,191.425808,114.855485,-9379.864592
522.606071,95.712904,133.998066,-9322.436850
522.606699,19.142581,229.710970,-9418.149754
522.607326,57.427742,306.281293,-9475.577496
522.607954,0.000000,248.853550,-9552.147819
522.608581,-38.285162,287.138712,-9552.147819
522.609208,57.427742,191.425808,-9609.575562
522.609836,114.855485,133.998066,-9533.005238
522.610463,153.140646,133.998066,-9513.862658
522.611091,153.140646,0.000000,-9399.007173
522.611718,210.568389,95.712904,-9341.579430
522.612346,248.853550,57.427742,-9322.436850
522.612973,153.140646,95.712904,-9341.579430
522.613600,95.712904,210.568389,-9341.579430
522.614228,38.285162,229.710970,-9360.722011
522.614855,0.000000,306.281293,-9456.434915
522.615483,-38.285162,363.709035,-9494.720077
522.616110,19.142581,267.996131,-9571.290400
522.616737,76.570323,191.425808,-9552.147819
522.617364,133.998066,153.140646,-9533.005238
522.617991,153.140646,95.712904,-9456.434915
522.618618,210.568389,0.000000,-9360.722011
522.619245,248.853550,95.712904,-9245.866526
522.619873,191.425808,95.712904,-9284.151688
522.620500,76.570323,76.570323,-9265.009107
522.621127,95.712904,248.853550,-9360.722011
522.621754,38.285162,229.710970,-9418.149754
522.622381,-38.285162,248.853550,-9513.862658
522.623008,-19.142581,229.710970,-9571.290400
522.623635,57.427742,191.425808,-9552.147819
522.624262,133.998066,210.568389,-9533.005238
522.624889,172.283227,95.712904,-9494.720077
522.625516,191.425808,38.285162,-9456.434915
522.626143,191.425808,19.142581,-9360.722011
522.626770,248.853550,95.712904,-9284.151688
522.627397,76.570323,76.570323,-9303.294269
522.628024,114.855485,191.425808,-9360.722011
522.628651,57.427742,248.853550,-9360.722011
522.629278,-38.285162,191.425808,-9418.149754
522.629905,-114.855485,325.423874,-9533.005238
522.630532,0.000000,229.710970,-9494.720077
522.631160,57.427742,248.853550,-9552.147819
522.631787,114.855485,229.710970,-9494.720077
522.632414,191.425808,76.570323,-9456.434915
522.633041,229.710970,0.000000,-9418.149754
522.633668,248.853550,0.000000,-9341.579430
522.634295,172.283227,95.712904,-9303.294269
522.634922,95.712904,133.998066,-9303.294269
522.635549,95.712904,191.425808,-9303.294269
522.636176,57.427742,248.853550,-9360.722011
522.636803,19.142581,306.281293,-9513.862658
522.637430,-57.427742,287.138712,-9609.575562
522.638057,57.427742,133.998066,-9590.432981
522.638684,95.712904,210.568389,-9552.147819
522.639311,133.998066,95.712904,-9533.005238
522.639938,229.710970,76.570323,-9456.434915
522.640565,210.568389,0.000000,-9360.722011
522.641192,229.710970,0.000000,-9303.294269
522.641820,153.140646,19.142581,-9322.436850
522.642447,114.855485,133.998066,-9303.294269
522.643074,76.570323,172.283227,-9418.149754
522.643701,0.000000,248.853550,-9418.149754
522.644328,-19.142581,267.996131,-9533.005238
522.644955,57.427742,325.423874,-9513.862658
522.645582,57.427742,248.853550,-9552.147819
522.646209,133.998066,153.140646,-9475.577496
522.646836,210.568389,133.998066,-9437.292334
522.647463,248.853550,76.570323,-9418.149754
522.648090,248.853550,57.427742,-9341.579430
522.648717,248.853550,38.285162,-9245.866526
522.649344,133.998066,76.570323,-9265.009107
522.649971,95.712904,210.568389,-9284.151688
522.650598,95.712904,248.853550,-9360.722011
522.651225,19.142581,229.710970,-9437.292334
522.651852,-95.712904,248.853550,-9513.862658
522.652479,19.142581,153.140646,-9552.147819
522.653107,57.427742,133.998066,-9609.575562
522.653734,153.140646,57.427742,-9513.862658
522.654361,172.283227,57.427742,-9533.005238
522.654988,229.710970,19.142581,-9456.434915
522.655615,248.853550,95.712904,-9360.722011
522.656242,248.853550,95.712904,-9245.866526
522.656869,95.712904,133.998066,-9303.294269
522.657496,38.285162,191.425808,-9322.436850
522.658123,38.285162,229.710970,-9418.149754
522.658750,-19.142581,267.996131,-9494.720077
522.659377,19.142581,325.423874,-9571.290400
522.660004,57.427742,248.853550,-9609.575562
522.660631,57.427742,172.283227,-9552.147819
522.661258,38.285162,114.855485,-9475.577496
522.661885,191.425808,57.427742,-9418.149754
522.662512,229.710970,19.142581,-9418.149754
522.663139,191.425808,0.000000,-9284.151688
522.663766,133.998066,57.427742,-9341.579430
522.664394,114.855485,38.285162,-9360.722011
522.665021,95.712904,153.140646,-9360.722011
522.665648,19.142581,229.710970,-9475.577496
522.666275,-19.142581,248.853550,-9533.005238
522.666902,-57.427742,210.568389,-9609.575562
522.667529,-19.142581,153.140646,-9647.860723
522.668156,95.712904,133.998066,-9552.147819
522.668783,191.425808,114.855485,-9513.862658
522.669410,229.710970,57.427742,-9456.434915
522.670037,248.853550,38.285162,-9341.579430
522.670664,210.568389,57.427742,-9303.294269
522.671291,95.712904,153.140646,-9303.294269
522.671918,38.285162,191.425808,-9303.294269
522.672545,95.712904,248.853550,-9360.722011
522.673172,0.000000,344.566454,-9456.434915
522.673799,-19.142581,325.423874,-9533.005238
522.674426,-38.285162,248.853550,-9513.862658
522.675054,57.427742,172.283227,-9552.147819
522.675681,172.283227,95.712904,-9494.720077
522.676308,114.855485,57.427742,-9456.434915
522.676935,248.853550,57.427742,-9456.434915
522.677562,248.853550,0.000000,-9245.866526
522.678189,133.998066,95.712904,-9303.294269
522.678816,133.998066,76.570323,-9322.436850
522.679443,38.285162,210.568389,-9322.436850
522.680070,-38.285162,248.853550,-9399.007173
522.680697,-76.570323,267.996131,-9533.005238
522.681324,-19.142581,229.710970,-9571.290400
522.681951,57.427742,172.283227,-9552.147819
522.682578,95.712904,133.998066,-9552.147819
522.683205,114.855485,38.285162,-9494.720077
522.683832,191.425808,76.570323,-9418.149754
522.684459,248.853550,19.142581,-9360.722011
522.685086,153.140646,0.000000,-9284.151688
522.685713,153.140646,95.712904,-9341.579430
522.686341,95.712904,133.998066,-9360.722011
522.686968,0.000000,248.853550,-9360.722011
522.687595,-38.285162,267.996131,-9456.434915
522.688222,-19.142581,267.996131,-9533.005238
522.688849,38.285162,267.996131,-9609.575562
522.689476,57.427742,248.853550,-9552.147819
522.690103,76.570323,114.855485,-9533.005238
522.690730,191.425808,76.570323,-9456.434915
522.691357,248.853550,-38.285162,-9418.149754
522.691984,248.853550,57.427742,-9341.579430
522.692611,153.140646,95.712904,-9322.436850
522.693238,95.712904,76.570323,-9322.436850
522.693865,76.570323,76.570323,-9379.864592
522.694492,0.000000,248.853550,-9360.722011
522.695119,-95.712904,248.853550,-9456.434915
522.695746,-95.712904,287.138712,-9552.147819
522.696373,19.142581,267.996131,-9571.290400
522.697000,57.427742,133.998066,-9609.575562
522.697628,133.998066,76.570323,-9571.290400
522.698255,114.855485,38.285162,-9437.292334
522.698882,210.568389,0.000000,-9341.579430
522.699509,172.283227,133.998066,-9245.866526
522.700136,172.283227,114.855485,-9284.151688
522.700763,95.712904,153.140646,-9245.866526
522.701390,0.000000,191.425808,-9322.436850
522.702017,19.142581,325.423874,-9379.864592
522.702644,-38.285162,267.996131,-9494.720077
522.703271,0.000000,229.710970,-9571.290400
522.703898,95.712904,248.853550,-9552.147819
522.704525,95.712904,172.283227,-9552.147819
522.705152,172.283227,133.998066,-9552.147819
522.705779,287.138712,-38.285162,-9418.149754
522.706406,248.853550,-38.285162,-9341.579430
522.707033,248.853550,-19.142581,-9245.866526
522.707660,133.998066,76.570323,-9379.864592
522.708288,38.285162,76.570323,-9379.864592
522.708915,57.427742,191.425808,-9360.722011
522.709542,-38.285162,248.853550,-9513.862658
522.710169,-76.570323,229.710970,-9571.290400
522.710796,-76.570323,229.710970,-9571.290400
522.711423,76.570323,191.425808,-9590.432981
522.712050,153.140646,95.712904,-9552.147819
522.712677,191.425808,19.142581,-9475.577496
522.713304,191.425808,38.285162,-9360.722011
522.713931,191.425808,114.855485,-9265.009107
522.714558,172.283227,114.855485,-9284.151688
522.715185,114.855485,172.283227,-9265.009107
522.715812,95.712904,248.853550,-9322.436850
522.716439,57.427742,248.853550,-9360.722011
522.717066,57.427742,287.138712,-9513.862658
522.717693,-19.142581,229.710970,-9571.290400
522.718320,-19.142581,153.140646,-9571.290400
522.718947,114.855485,133.998066,-9552.147819
522.719575,153.140646,38.285162,-9552.147819
522.720202,191.425808,57.427742,-9475.577496
522.720829,287.138712,-38.285162,-9418.149754
522.721456,153.140646,-19.142581,-9284.151688
522.722084,133.998066,0.000000,-9360.722011
522.722711,76.570323,133.998066,-9322.436850
522.723339,38.285162,191.425808,-9418.149754
522.723967,-38.285162,229.710970,-9437.292334
522.724595,-38.285162,248.853550,-9513.862658
522.725223,0.000000,325.423874,-9533.005238
522.725850,57.427742,172.283227,-9552.147819
522.726478,153.140646,114.855485,-9533.005238
522.727106,210.568389,133.998066,-9399.007173
522.727734,287.138712,57.427742,-9418.149754
522.728362,267.996131,38.285162,-9341.579430
522.728989,191.425808,95.712904,-9245.866526
522.729617,133.998066,57.427742,-9265.009107
522.730245,114.855485,191.425808,-9322.436850
522.730873,76.570323,267.996131,-9379.864592
522.731501,0.000000,287.138712,-9494.720077
522.732128,-76.570323,267.996131,-9475.577496
522.732756,-38.285162,191.425808,-9571.290400
522.733384,57.427742,153.140646,-9552.147819
522.734012,114.855485,133.998066,-9552.147819
522.734640,153.140646,57.427742,-9533.005238
522.735267,210.568389,0.000000,-9360.722011
522.735895,153.140646,38.285162,-9360.722011
522.736523,172.283227,95.712904,-9341.579430
522.737151,76.570323,76.570323,-9341.579430
522.737779,57.427742,191.425808,-9322.436850
522.738407,19.142581,210.568389,-9475.577496
522.739034,19.142581,248.853550,-9571.290400
522.739662,-38.285162,229.710970,-9552.147819
522.740290,19.142581,267.996131,-9571.290400
522.740918,114.855485,191.425808,-9552.147819
522.741546,210.568389,95.712904,-9552.147819
522.742173,229.710970,76.570323,-9418.149754
522.742801,287.138712,38.285162,-9341.579430
522.743429,248.853550,95.712904,-9245.866526
522.744057,133.998066,76.570323,-9265.009107
522.744685,114.855485,172.283227,-9322.436850
522.745312,38.285162,287.138712,-9360.722011
522.745940,-76.570323,229.710970,-9399.007173
522.746568,-19.142581,267.996131,-9533.005238
522.747196,-38.285162,248.853550,-9513.862658
522.747824,0.000000,114.855485,-9590.432981
522.748451,114.855485,172.283227,-9552.147819
522.749079,153.140646,95.712904,-9533.005238
522.749707,248.853550,19.142581,-9475.577496
522.750335,267.996131,-19.142581,-9284.151688
522.750963,191.425808,-19.142581,-9245.866526
522.751590,76.570323,76.570323,-9379.864592
522.752218,0.000000,133.998066,-9360.722011
522.752846,-38.285162,229.710970,-9418.149754
522.753474,-38.285162,210.568389,-9533.005238
522.754102,-57.427742,287.138712,-9552.147819
522.754730,19.142581,191.425808,-9513.862658
522.755357,114.855485,191.425808,-9552.147819
522.755985,172.283227,76.570323,-9456.434915
522.756613,210.568389,19.142581,-9456.434915
522.757241,210.568389,0.000000,-9341.579430
522.757869,191.425808,38.285162,-9284.151688
522.758496,133.998066,76.570323,-9284.151688
522.759124,114.855485,153.140646,-9284.151688
522.759752,114.855485,248.853550,-9360.722011
522.760380,19.142581,229.710970,-9437.292334
522.761008,-19.142581,229.710970,-9590.432981
522.761635,-19.142581,229.710970,-9571.290400
522.762263,19.142581,95.712904,-9590.432981
522.762891,133.998066,76.570323,-9571.290400
522.763519,172.283227,19.142581,-9456.434915
522.764147,229.710970,57.427742,-9418.149754
522.764774,248.853550,38.285162,-9341.579430
522.765402,153.140646,38.285162,-9341.579430
522.766030,76.570323,76.570323,-9379.864592
522.766658,-38.285162,76.570323,-9284.151688
522.767286,19.142581,267.996131,-9341.579430
522.767913,0.000000,306.281293,-9456.434915
522.768541,-19.142581,229.710970,-9513.862658
522.769169,0.000000,287.138712,-9513.862658
522.769797,76.570323,191.425808,-9552.147819
522.770425,153.140646,133.998066,-9456.434915
522.771053,191.425808,76.570323,-9456.434915
522.771680,191.425808,76.570323,-9418.149754
522.772308,210.568389,38.285162,-9284.151688
522.772936,210.568389,95.712904,-9265.009107
522.773564,114.855485,153.140646,-9245.866526
522.774192,19.142581,325.423874,-9284.151688
522.774819,-38.285162,325.423874,-9399.007173
522.775447,0.000000,267.996131,-9533.005238
522.776075,-57.427742,287.138712,-9552.147819
522.776703,0.000000,229.710970,-9571.290400
522.777331,76.570323,133.998066,-9552.147819
522.777958,76.570323,133.998066,-9552.147819
522.778586,191.425808,57.427742,-9418.149754
522.779214,248.853550,0.000000,-9284.151688
522.779842,191.425808,57.427742,-9245.866526
522.780470,114.855485,114.855485,-9322.436850
522.781097,95.712904,153.140646,-9284.151688
522.781725,38.285162,248.853550,-9418.149754
522.782353,19.142581,191.425808,-9456.434915
522.782981,19.142581,267.996131,-9571.290400
522.783609,95.712904,248.853550,-9571.290400
522.784236,114.855485,229.710970,-9513.862658
522.784864,172.283227,153.140646,-9571.290400
522.785492,172.283227,76.570323,-9418.149754
522.786120,153.140646,76.570323,-9379.864592
522.786748,248.853550,95.712904,-9341.579430
522.787376,191.425808,95.712904,-9245.866526
522.788003,133.998066,76.570323,-9265.009107
522.788631,95.712904,172.283227,-9360.722011
522.789259,57.427742,191.425808,-9418.149754
522.789887,-57.427742,248.853550,-9513.862658
522.790515,0.000000,229.710970,-9571.290400
522.791142,38.285162,172.283227,-9552.147819
522.791770,114.855485,133.998066,-9552.147819
522.792398,133.998066,114.855485,-9533.005238
522.793026,172.283227,57.427742,-9456.434915
522.793654,267.996131,57.427742,-9360.722011
522.794281,210.568389,57.427742,-9284.151688
522.794909,153.140646,57.427742,-9245.866526
522.795537,57.427742,153.140646,-9303.294269
522.796165,0.000000,248.853550,-9360.722011
522.796793,76.570323,267.996131,-9379.864592
522.797420,-76.570323,267.996131,-9533.005238
522.798048,-114.855485,306.281293,-9533.005238
522.798676,38.285162,248.853550,-9590.432981
522.799304,114.855485,248.853550,-9533.005238
522.799932,210.568389,172.283227,-9437.292334
522.800559,248.853550,95.712904,-9341.579430
522.801187,248.853550,57.427742,-9284.151688
522.801815,210.568389,76.570323,-9245.866526
522.802443,133.998066,76.570323,-9284.151688
522.803071,95.712904,153.140646,-9245.866526
522.803699,76.570323,210.568389,-9418.149754
522.804326,0.000000,287.138712,-9513.862658
522.804954,-19.142581,267.996131,-9533.005238
522.805582,-19.142581,210.568389,-9609.575562
522.806210,57.427742,133.998066,-9552.147819
522.806838,133.998066,95.712904,-9533.005238
522.807465,248.853550,19.142581,-9418.149754
522.808093,248.853550,57.427742,-9360.722011
522.808721,248.853550,0.000000,-9360.722011
522.809349,191.425808,57.427742,-9245.866526
522.809977,76.570323,210.568389,-9322.436850
522.810604,95.712904,191.425808,-9322.436850
522.811232,57.427742,267.996131,-9360.722011
522.811860,-19.142581,267.996131,-9533.005238
522.812488,-76.570323,325.423874,-9533.005238
522.813116,19.142581,267.996131,-9571.290400
522.813743,95.712904,191.425808,-9552.147819
522.814371,133.998066,114.855485,-9533.005238
522.814999,229.710970,133.998066,-9437.292334
522.815627,248.853550,0.000000,-9341.579430
522.816255,210.568389,38.285162,-9245.866526
522.816882,210.568389,114.855485,-9265.009107
522.817510,57.427742,133.998066,-9303.294269
522.818138,38.285162,153.140646,-9360.722011
522.818766,19.142581,210.568389,-9475.577496
522.819394,-19.142581,229.710970,-9571.290400
522.820022,57.427742,191.425808,-9628.718142
522.820649,114.855485,172.283227,-9552.147819
522.821277,133.998066,153.140646,-9533.005238
522.821905,191.425808,57.427742,-9456.434915
522.822533,287.138712,19.142581,-9418.149754
522.823161,267.996131,57.427742,-9284.151688
522.823789,248.853550,38.285162,-9245.866526
522.824416,133.998066,95.712904,-9303.294269
522.825044,95.712904,172.283227,-9303.294269
522.825672,57.427742,267.996131,-9360.722011
522.826300,38.285162,306.281293,-9475.577496
522.826928,-19.142581,325.423874,-9475.577496
522.827556,38.285162,267.996131,-9571.290400
522.828184,114.855485,248.853550,-9533.005238
522.828812,210.568389,133.998066,-9494.720077
522.829440,172.283227,76.570323,-9418.149754
522.830067,229.710970,57.427742,-9284.151688
522.830695,248.853550,95.712904,-9284.151688
522.831323,114.855485,133.998066,-9303.294269
522.831951,95.712904,133.998066,-9360.722011
522.832579,76.570323,210.568389,-9418.149754
522.833207,-38.285162,229.710970,-9418.149754
522.833835,-19.142581,287.138712,-9513.862658
522.834463,0.000000,210.568389,-9571.290400
522.835090,57.427742,172.283227,-9647.860723
522.835718,153.140646,76.570323,-9494.720077
522.836346,210.568389,95.712904,-9475.577496
522.836974,210.568389,0.000000,-9360.722011
522.837602,153.140646,95.712904,-9284.151688
522.838230,153.140646,95.712904,-9245.866526
522.838858,133.998066,57.427742,-9284.151688
522.839486,114.855485,229.710970,-9265.009107
522.840114,19.142581,267.996131,-9379.864592
522.840741,-19.142581,267.996131,-9533.005238
522.841369,-19.142581,325.423874,-9475.577496
522.841997,38.285162,248.853550,-9571.290400
522.842625,57.427742,172.283227,-9533.005238
522.843253,133.998066,114.855485,-9533.005238
522.843881,191.425808,57.427742,-9456.434915
522.844509,287.138712,76.570323,-9418.149754
522.845137,248.853550,0.000000,-9245.866526
522.845765,210.568389,38.285162,-9284.151688
522.846392,133.998066,76.570323,-9303.294269
522.847020,57.427742,248.853550,-9322.436850
522.847648,19.142581,229.710970,-9437.292334
522.848276,-19.142581,229.710970,-9571.290400
522.848904,0.000000,191.425808,-9552.147819
522.849532,0.000000,210.568389,-9609.575562
522.850160,76.570323,153.140646,-9533.005238
522.850788,172.283227,133.998066,-9533.005238
522.851415,229.710970,76.570323,-9456.434915
522.852043,191.425808,19.142581,-9341.579430
522.852671,248.853550,0.000000,-9341.579430
522.853299,114.855485,133.998066,-9303.294269
522.853927,95.712904,210.568389,-9303.294269
522.854555,133.998066,267.996131,-9379.864592
522.855183,19.142581,287.138712,-9494.720077
522.855811,-19.142581,306.281293,-9533.005238
522.856439,0.000000,287.138712,-9513.862658
522.857066,95.712904,114.855485,-9533.005238
522.857694,95.712904,114.855485,-9552.147819
522.858322,153.140646,57.427742,-9494.720077
522.858950,210.568389,57.427742,-9360.722011
522.859578,210.568389,95.712904,-9284.151688
522.860206,114.855485,57.427742,-9207.581365
522.860834,95.712904,133.998066,-9303.294269
522.861462,0.000000,153.140646,-9360.722011
522.862089,-38.285162,248.853550,-9456.434915
522.862717,-57.427742,267.996131,-9513.862658
522.863345,-76.570323,287.138712,-9609.575562
522.863973,0.000000,172.283227,-9552.147819
522.864601,38.285162,114.855485,-9533.005238
522.865229,114.855485,133.998066,-9533.005238
522.865857,210.568389,133.998066,-9399.007173
522.866485,248.853550,19.142581,-9360.722011
522.867113,248.853550,57.427742,-9303.294269
522.867740,153.140646,95.712904,-9245.866526
522.868368,114.855485,172.283227,-9341.579430
522.868996,95.712904,287.138712,-9399.007173
522.869624,0.000000,287.138712,-9399.007173
522.870252,-19.142581,325.423874,-9533.005238
522.870880,-76.570323,363.709035,-9533.005238
522.871508,95.712904,191.425808,-9552.147819
522.872136,153.140646,133.998066,-9494.720077
522.872764,210.568389,133.998066,-9437.292334
522.873391,267.996131,95.712904,-9360.722011
522.874019,287.138712,95.712904,-9322.436850
522.874647,248.853550,95.712904,-9245.866526
522.875275,133.998066,76.570323,-9341.579430
522.875903,57.427742,153.140646,-9322.436850
522.876531,38.285162,229.710970,-9437.292334
522.877159,-57.427742,248.853550,-9513.862658
522.877787,-38.285162,287.138712,-9552.147819
522.878414,0.000000,210.568389,-9647.860723
522.879042,76.570323,133.998066,-9552.147819
522.879670,114.855485,133.998066,-9533.005238
522.880298,191.425808,76.570323,-9418.149754
522.880926,191.425808,19.142581,-9418.149754
522.881554,210.568389,95.712904,-9245.866526
522.882182,210.568389,114.855485,-9322.436850
522.882810,76.570323,76.570323,-9284.151688
522.883438,95.712904,210.568389,-9322.436850
522.884065,0.000000,287.138712,-9456.434915
522.884693,-76.570323,363.709035,-9475.577496
522.885321,19.142581,229.710970,-9533.005238
522.885949,57.427742,248.853550,-9609.575562
522.886577,95.712904,153.140646,-9552.147819
522.887205,191.425808,114.855485,-9494.720077
522.887833,191.425808,57.427742,-9418.149754
522.888461,229.710970,-38.285162,-9360.722011
522.889088,191.425808,95.712904,-9245.866526
522.889716,172.283227,114.855485,-9303.294269
522.890344,95.712904,153.140646,-9341.579430
522.890972,76.570323,172.283227,-9418.149754
522.891600,38.285162,229.710970,-9475.577496
522.892228,-19.142581,267.996131,-9533.005238
522.892856,19.142581,287.138712,-9590.432981
522.893484,57.427742,191.425808,-9552.147819
522.894112,95.712904,172.283227,-9533.005238
522.894739,191.425808,76.570323,-9418.149754
522.895367,191.425808,19.142581,-9418.149754
522.895995,210.568389,95.712904,-9284.151688
522.896623,248.853550,95.712904,-9322.436850
522.897251,153.140646,114.855485,-9341.579430
522.897879,57.427742,248.853550,-9341.579430
522.898507,-19.142581,191.425808,-9360.722011
522.899135,0.000000,287.138712,-9513.862658
522.899763,-38.285162,287.138712,-9552.147819
522.900390,0.000000,267.996131,-9533.005238
522.901018,38.285162,114.855485,-9533.005238
522.901646,95.712904,133.998066,-9533.005238
522.902274,191.425808,76.570323,-9456.434915
522.902902,248.853550,0.000000,-9360.722011
522.903530,210.568389,95.712904,-9245.866526
522.904158,153.140646,57.427742,-9245.866526
522.904786,153.140646,133.998066,-9379.864592
522.905413,95.712904,248.853550,-9360.722011
522.906041,-38.285162,191.425808,-9437.292334
522.906669,-114.855485,267.996131,-9533.005238
522.907297,-19.142581,210.568389,-9571.290400
522.907925,57.427742,191.425808,-9552.147819
522.908553,95.712904,172.283227,-9475.577496
522.909181,153.140646,172.283227,-9437.292334
522.909809,210.568389,-19.142581,-9360.722011
522.910437,191.425808,-19.142581,-9303.294269
522.911064,210.568389,95.712904,-9303.294269
522.911692,95.712904,76.570323,-9322.436850
522.912320,57.427742,210.568389,-9303.294269
522.912948,38.285162,325.423874,-9379.864592
522.913576,0.000000,306.281293,-9399.007173
522.914204,-76.570323,267.996131,-9533.005238
522.914832,0.000000,229.710970,-9475.577496
522.915460,114.855485,133.998066,-9552.147819
522.916087,133.998066,76.570323,-9571.290400
522.916715,133.998066,57.427742,-9494.720077
522.917343,248.853550,-19.142581,-9360.722011
522.917971,248.853550,0.000000,-9341.579430
522.918599,153.140646,0.000000,-9303.294269
522.919227,133.998066,95.712904,-9284.151688
522.919855,0.000000,153.140646,-9322.436850
522.920483,19.142581,229.710970,-9418.149754
522.921111,-57.427742,306.281293,-9475.577496
522.921738,19.142581,267.996131,-9571.290400
522.922366,0.000000,191.425808,-9552.147819
522.922994,95.712904,210.568389,-9533.005238
522.923622,210.568389,133.998066,-9494.720077
522.924250,210.568389,133.998066,-9399.007173
522.924877,191.425808,38.285162,-9341.579430
522.925505,248.853550,95.712904,-9245.866526
522.926133,172.283227,114.855485,-9284.151688
522.926761,172.283227,172.283227,-9265.009107
522.927389,57.427742,248.853550,-9360.722011
522.928016,19.142581,229.710970,-9437.292334
522.928644,-19.142581,267.996131,-9533.005238
522.929272,57.427742,248.853550,-9552.147819
522.929900,57.427742,191.425808,-9590.432981
522.930527,133.998066,95.712904,-9533.005238
522.931155,114.855485,38.285162,-9513.862658
522.931783,287.138712,19.142581,-9360.722011
522.932411,287.138712,76.570323,-9360.722011
522.933039,248.853550,57.427742,-9284.151688
522.933666,133.998066,76.570323,-9341.579430
522.934294,57.427742,153.140646,-9322.436850
522.934922,19.142581,210.568389,-9418.149754
522.935550,-19.142581,325.423874,-9533.005238
522.936177,-114.855485,267.996131,-9533.005238
522.936805,-19.142581,210.568389,-9590.432981
522.937433,153.140646,172.283227,-9533.005238
522.938061,153.140646,133.998066,-9437.292334
522.938689,287.138712,57.427742,-9418.149754
522.939316,210.568389,38.285162,-9284.151688
522.939944,210.568389,0.000000,-9284.151688
522.940572,133.998066,95.712904,-9303.294269
522.941200,114.855485,133.998066,-9341.579430
522.941827,76.570323,267.996131,-9322.436850
522.942455,-38.285162,229.710970,-9437.292334
522.943083,-38.285162,248.853550,-9513.862658
522.943711,0.000000,229.710970,-9571.290400
522.944339,114.855485,133.998066,-9552.147819
522.944966,95.712904,133.998066,-9552.147819
522.945594,153.140646,76.570323,-9571.290400
522.946222,191.425808,57.427742,-9418.149754
522.946850,210.568389,57.427742,-9341.579430
522.947477,229.710970,0.000000,-9341.579430
522.948105,133.998066,38.285162,-9322.436850
522.948733,95.712904,153.140646,-9303.294269
522.949361,19.142581,229.710970,-9360.722011
522.949989,-57.427742,248.853550,-9475.577496
522.950616,-38.285162,287.138712,-9552.147819
522.951244,-76.570323,248.853550,-9533.005238
522.951872,57.427742,133.998066,-9552.147819
522.952500,114.855485,95.712904,-9513.862658
522.953127,210.568389,95.712904,-9341.579430
522.953755,210.568389,0.000000,-9360.722011
522.954383,229.710970,95.712904,-9284.151688
522.955011,191.425808,95.712904,-9303.294269
522.955639,172.283227,114.855485,-9265.009107
522.956266,38.285162,210.568389,-9360.722011
522.956894,-38.285162,229.710970,-9494.720077
522.957522,-38.285162,248.853550,-9571.290400
522.958150,-38.285162,229.710970,-9552.147819
522.958777,19.142581,191.425808,-9686.145885
522.959405,95.712904,133.998066,-9590.432981
522.960033,210.568389,38.285162,-9552.147819
522.960661,287.138712,19.142581,-9475.577496
522.961288,248.853550,0.000000,-9341.579430
522.961916,210.568389,38.285162,-9341.579430
522.962544,133.998066,57.427742,-9341.579430
522.963172,114.855485,133.998066,-9341.579430
522.963800,95.712904,191.425808,-9360.722011
522.964427,-38.285162,210.568389,-9475.577496
522.965055,-57.427742,267.996131,-9513.862658
522.965683,19.142581,248.853550,-9571.290400
522.966311,0.000000,229.710970,-9552.147819
522.966938,133.998066,153.140646,-9494.720077
522.967566,153.140646,114.855485,-9475.577496
522.968194,287.138712,76.570323,-9418.149754
522.968822,248.853550,57.427742,-9245.866526
522.969450,248.853550,95.712904,-9245.866526
522.970077,172.283227,114.855485,-9341.579430
522.970705,95.712904,248.853550,-9341.579430
522.971333,95.712904,248.853550,-9418.149754
522.971961,-38.285162,248.853550,-9513.862658
522.972588,-19.142581,248.853550,-9552.147819
522.973216,-19.142581,210.568389,-9609.575562
522.973844,38.285162,133.998066,-9571.290400
522.974472,114.855485,114.855485,-9533.005238
522.975100,172.283227,57.427742,-9475.577496
522.975727,287.138712,19.142581,-9360.722011
522.976355,248.853550,-19.142581,-9303.294269
522.976983,153.140646,38.285162,-9322.436850
522.977611,172.283227,76.570323,-9360.722011
522.978238,76.570323,210.568389,-9418.149754
522.978866,19.142581,267.996131,-9379.864592
522.979494,-38.285162,287.138712,-9552.147819
522.980122,-19.142581,267.996131,-9533.005238
522.980750,38.285162,210.568389,-9533.005238
522.981377,133.998066,248.853550,-9513.862658
522.982005,210.568389,172.283227,-9437.292334
522.982633,210.568389,57.427742,-9360.722011
522.983261,210.568389,95.712904,-9245.866526
522.983888,191.425808,95.712904,-9303.294269
522.984516,76.570323,133.998066,-9284.151688
522.985144,114.855485,153.140646,-9284.151688
522.985772,0.000000,248.853550,-9360.722011
522.986400,-76.570323,248.853550,-9533.005238
522.987027,-19.142581,287.138712,-9513.862658
522.987655,57.427742,191.425808,-9552.147819
522.988283,114.855485,133.998066,-9552.147819
522.988911,76.570323,153.140646,-9533.005238
522.989538,172.283227,-19.142581,-9399.007173
522.990166,191.425808,76.570323,-9418.149754
522.990794,267.996131,-19.142581,-9341.579430
522.991422,172.283227,57.427742,-9360.722011
522.992050,76.570323,76.570323,-9265.009107
522.992677,114.855485,133.998066,-9322.436850
522.993305,57.427742,229.710970,-9437.292334
522.993933,-19.142581,325.423874,-9533.005238
522.994561,-19.142581,306.281293,-9533.005238
522.995188,57.427742,191.425808,-9552.147819
522.995816,38.285162,153.140646,-9533.005238
522.996444,114.855485,133.998066,-9533.005238
522.997072,191.425808,76.570323,-9456.434915
522.997700,210.568389,95.712904,-9360.722011
522.998327,210.568389,0.000000,-9245.866526
522.998955,133.998066,95.712904,-9284.151688
522.999583,38.285162,153.140646,-9284.151688
523.000211,0.000000,210.568389,-9360.722011
523.000838,19.142581,287.138712,-9533.005238
523.001466,-57.427742,287.138712,-9552.147819
523.002094,57.427742,191.425808,-9609.575562
523.002722,0.000000,133.998066,-9647.860723
523.003350,57.427742,133.998066,-9533.005238
523.003977,191.425808,133.998066,-9494.720077
523.004605,248.853550,76.570323,-9456.434915
523.005233,248.853550,0.000000,-9245.866526
523.005861,133.998066,19.142581,-9341.579430
523.006488,76.570323,114.855485,-9360.722011
523.007116,95.712904,153.140646,-9303.294269
523.007744,0.000000,248.853550,-9341.579430
523.008372,0.000000,325.423874,-9533.005238
523.009000,0.000000,267.996131,-9494.720077
523.009627,57.427742,191.425808,-9552.147819
523.010255,19.142581,287.138712,-9533.005238
523.010883,210.568389,172.283227,-9494.720077
523.011511,153.140646,114.855485,-9418.149754
523.012138,229.710970,76.570323,-9341.579430
523.012766,191.425808,95.712904,-9265.009107
523.013394,172.283227,114.855485,-9284.151688
523.014022,95.712904,133.998066,-9360.722011
523.014650,57.427742,191.425808,-9360.722011
523.015277,19.142581,229.710970,-9456.434915
523.015905,57.427742,287.138712,-9513.862658
523.016533,19.142581,229.710970,-9609.575562
523.017161,57.427742,133.998066,-9609.575562
523.017788,133.998066,114.855485,-9533.005238
523.018416,172.283227,19.142581,-9494.720077
523.019044,248.853550,-38.285162,-9399.007173
523.019672,248.853550,0.000000,-9341.579430
523.020300,248.853550,0.000000,-9245.866526
523.020927,133.998066,76.570323,-9284.151688
523.021555,95.712904,210.568389,-9245.866526
523.022183,95.712904,287.138712,-9379.864592
523.022811,57.427742,306.281293,-9475.577496
523.023438,-38.285162,287.138712,-9552.147819
523.024066,-19.142581,325.423874,-9533.005238
523.024694,38.285162,153.140646,-9475.577496
523.025321,133.998066,114.855485,-9494.720077
523.025949,210.568389,76.570323,-9437.292334
523.026576,229.710970,57.427742,-9418.149754
523.027204,248.853550,57.427742,-9341.579430
523.027832,153.140646,57.427742,-9322.436850
523.028459,114.855485,133.998066,-9245.866526
523.029087,0.000000,153.140646,-9284.151688
523.029715,0.000000,287.138712,-9456.434915
523.030342,-38.285162,267.996131,-9571.290400
523.030970,38.285162,287.138712,-9571.290400
523.031598,0.000000,191.425808,-9590.432981
523.032225,38.285162,153.140646,-9533.005238
523.032853,210.568389,95.712904,-9609.575562
523.033481,229.710970,57.427742,-9418.149754
523.034108,248.853550,76.570323,-9360.722011
523.034736,248.853550,0.000000,-9245.866526
523.035363,133.998066,57.427742,-9341.579430
523.035991,57.427742,153.140646,-9341.579430
523.036619,57.427742,248.853550,-9360.722011
523.037246,-19.142581,287.138712,-9399.007173
523.037874,-19.142581,306.281293,-9513.862658
523.038502,-76.570323,267.996131,-9533.005238
523.039129,57.427742,229.710970,-9494.720077
523.039757,133.998066,114.855485,-9475.577496
523.040385,191.425808,57.427742,-9456.434915
523.041012,229.710970,57.427742,-9418.149754
523.041640,248.853550,-19.142581,-9245.866526
523.042267,248.853550,0.000000,-9245.866526
523.042895,172.283227,133.998066,-9360.722011
523.043523,95.712904,153.140646,-9303.294269
523.044150,57.427742,114.855485,-9437.292334
523.044778,-76.570323,325.423874,-9533.005238
523.045406,-19.142581,229.710970,-9571.290400
523.046033,57.427742,191.425808,-9552.147819
523.046661,95.712904,172.283227,-9533.005238
523.047289,114.855485,133.998066,-9552.147819
523.047916,191.425808,76.570323,-9418.149754
523.048544,229.710970,57.427742,-9360.722011
523.049172,210.568389,95.712904,-9303.294269
523.049799,153.140646,57.427742,-9284.151688
523.050427,114.855485,114.855485,-9265.009107
523.051054,57.427742,248.853550,-9341.579430
523.051682,57.427742,267.996131,-9399.007173
523.052310,-19.142581,267.996131,-9494.720077
523.052937,19.142581,248.853550,-9571.290400
523.053565,57.427742,229.710970,-9513.862658
523.054193,114.855485,210.568389,-9513.862658
523.054820,153.140646,133.998066,-9437.292334
523.055448,229.710970,76.570323,-9418.149754
523.056076,210.568389,38.285162,-9284.151688
523.056703,210.568389,57.427742,-9245.866526
523.057331,133.998066,38.285162,-9284.151688
523.057958,76.570323,76.570323,-9341.579430
523.058586,38.285162,191.425808,-9418.149754
523.059214,19.142581,229.710970,-9475.577496
523.059841,-19.142581,267.996131,-9533.005238
523.060469,0.000000,191.425808,-9552.147819
523.061097,57.427742,153.140646,-9552.147819
523.061724,133.998066,153.140646,-9533.005238
523.062352,191.425808,76.570323,-9456.434915
523.062980,229.710970,19.142581,-9360.722011
523.063607,267.996131,-19.142581,-9245.866526
523.064235,172.283227,38.285162,-9226.723946
523.064863,95.712904,133.998066,-9245.866526
523.065490,57.427742,248.853550,-9341.579430
523.066118,19.142581,325.423874,-9341.579430
523.066745,-76.570323,344.566454,-9533.005238
523.067373,-19.142581,267.996131,-9533.005238
523.068001,38.285162,229.710970,-9533.005238
523.068628,76.570323,114.855485,-9533.005238
523.069256,133.998066,76.570323,-9571.290400
523.069884,210.568389,19.142581,-9456.434915
523.070511,210.568389,0.000000,-9245.866526
523.071139,191.425808,19.142581,-9341.579430
523.071767,133.998066,38.285162,-9303.294269
523.072394,95.712904,153.140646,-9303.294269
523.073022,57.427742,210.568389,-9360.722011
523.073649,0.000000,287.138712,-9456.434915
523.074277,-38.285162,287.138712,-9552.147819
523.074905,38.285162,229.710970,-9533.005238
523.075532,57.427742,133.998066,-9590.432981
523.076160,76.570323,210.568389,-9475.577496
523.076788,191.425808,76.570323,-9456.434915
523.077415,287.138712,76.570323,-9360.722011
523.078043,210.568389,0.000000,-9284.151688
523.078671,229.710970,38.285162,-9226.723946
523.079298,172.283227,114.855485,-9265.009107
523.079926,95.712904,248.853550,-9245.866526
523.080554,38.285162,267.996131,-9379.864592
523.081181,-19.142581,287.138712,-9513.862658
523.081809,-57.427742,287.138712,-9609.575562
523.082436,-19.142581,210.568389,-9571.290400
523.083064,172.283227,133.998066,-9475.577496
523.083692,133.998066,114.855485,-9533.005238
523.084319,191.425808,57.427742,-9456.434915
523.084947,229.710970,19.142581,-9360.722011
523.085575,191.425808,-19.142581,-9284.151688
523.086202,153.140646,0.000000,-9303.294269
523.086830,133.998066,172.283227,-9418.149754
523.087458,95.712904,153.140646,-9360.722011
523.088085,19.142581,229.710970,-9437.292334
523.088713,-57.427742,267.996131,-9533.005238
523.089341,-38.285162,248.853550,-9513.862658
523.089968,38.285162,267.996131,-9571.290400
523.090596,76.570323,153.140646,-9533.005238
523.091223,133.998066,114.855485,-9475.577496
523.091851,229.710970,0.000000,-9341.579430
523.092479,248.853550,57.427742,-9245.866526
523.093106,153.140646,95.712904,-9245.866526
523.093734,133.998066,114.855485,-9226.723946
523.094362,114.855485,153.140646,-9284.151688
523.094989,38.285162,229.710970,-9418.149754
523.095617,38.285162,229.710970,-9418.149754
523.096245,57.427742,287.138712,-9494.720077
523.096872,19.142581,229.710970,-9533.005238
523.097500,57.427742,191.425808,-9552.147819
523.098127,76.570323,114.855485,-9533.005238
523.098755,191.425808,76.570323,-9418.149754
523.099383,248.853550,0.000000,-9360.722011
523.100010,248.853550,95.712904,-9341.579430
523.100638,133.998066,0.000000,-9245.866526
523.101266,95.712904,76.570323,-9284.151688
523.101893,57.427742,172.283227,-9360.722011
523.102521,57.427742,210.568389,-9360.722011
523.103149,-57.427742,248.853550,-9513.862658
523.103776,-57.427742,229.710970,-9571.290400
523.104404,0.000000,153.140646,-9571.290400
523.105032,38.285162,191.425808,-9533.005238
523.105659,133.998066,114.855485,-9475.577496
523.106287,191.425808,38.285162,-9418.149754
523.106914,229.710970,-19.142581,-9341.579430
523.107542,248.853550,57.427742,-9284.151688
523.108170,95.712904,95.712904,-9265.009107
523.108797,76.570323,153.140646,-9245.866526
523.109425,76.570323,267.996131,-9284.151688
523.110053,38.285162,229.710970,-9437.292334
523.110680,0.000000,306.281293,-9513.862658
523.111308,38.285162,248.853550,-9571.290400
523.111936,57.427742,153.140646,-9552.147819
523.112563,114.855485,172.283227,-9533.005238
523.113191,210.568389,38.285162,-9552.147819
523.113818,229.710970,19.142581,-9418.149754
523.114446,191.425808,-19.142581,-9284.151688
523.115074,153.140646,57.427742,-9245.866526
523.115701,76.570323,76.570323,-9322.436850
523.116329,114.855485,172.283227,-9322.436850
523.116957,0.000000,248.853550,-9360.722011
523.117584,-19.142581,287.138712,-9513.862658
523.118212,-38.285162,287.138712,-9552.147819
523.118840,57.427742,229.710970,-9513.862658
523.119467,114.855485,248.853550,-9533.005238
523.120095,153.140646,133.998066,-9513.862658
523.120723,191.425808,57.427742,-9418.149754
523.121350,191.425808,38.285162,-9418.149754
523.121978,267.996131,95.712904,-9245.866526
523.122605,210.568389,114.855485,-9265.009107
523.123233,95.712904,153.140646,-9245.866526
523.123860,38.285162,287.138712,-9399.007173
523.124488,-19.142581,248.853550,-9360.722011
523.125115,-95.712904,306.281293,-9552.147819
523.125743,-19.142581,267.996131,-9552.147819
523.126370,19.142581,191.425808,-9571.290400
523.126997,95.712904,133.998066,-9533.005238
523.127625,133.998066,57.427742,-9513.862658
523.128252,191.425808,-38.285162,-9475.577496
523.128879,248.853550,-114.855485,-9399.007173
523.129507,133.998066,0.000000,-9341.579430
523.130134,76.570323,19.142581,-9284.151688
523.130762,38.285162,153.140646,-9322.436850
523.131389,0.000000,229.710970,-9322.436850
523.132016,-38.285162,229.710970,-9437.292334
523.132644,19.142581,229.710970,-9494.720077
523.133271,-38.285162,229.710970,-9552.147819
523.133898,0.000000,153.140646,-9571.290400
523.134526,133.998066,153.140646,-9533.005238
523.135153,191.425808,114.855485,-9494.720077
523.135781,248.853550,76.570323,-9418.149754
523.136408,248.853550,95.712904,-9303.294269
523.137035,248.853550,95.712904,-9245.866526
523.137663,114.855485,172.283227,-9245.866526
523.138290,95.712904,248.853550,-9322.436850
523.138917,95.712904,229.710970,-9399.007173
523.139545,0.000000,306.281293,-9475.577496
523.140172,-38.285162,287.138712,-9609.575562
523.140800,0.000000,172.283227,-9590.432981
523.141427,114.855485,133.998066,-9552.147819
523.142054,114.855485,133.998066,-9533.005238
523.142682,191.425808,57.427742,-9399.007173
523.143309,191.425808,57.427742,-9360.722011
523.143936,248.853550,38.285162,-9341.579430
523.144564,172.283227,114.855485,-9341.579430
523.145191,133.998066,76.570323,-9322.436850
523.145819,19.142581,172.283227,-9418.149754
523.146446,-38.285162,267.996131,-9456.434915
523.147073,-19.142581,325.423874,-9533.005238
523.147701,19.142581,267.996131,-9571.290400
523.148328,38.285162,229.710970,-9552.147819
523.148955,76.570323,210.568389,-9475.577496
523.149583,153.140646,114.855485,-9418.149754
523.150210,210.568389,95.712904,-9284.151688
523.150838,248.853550,0.000000,-9284.151688
523.151465,248.853550,95.712904,-9245.866526
523.152092,133.998066,76.570323,-9284.151688
523.152720,95.712904,153.140646,-9303.294269
523.153347,57.427742,248.853550,-9360.722011
523.153974,-19.142581,229.710970,-9475.577496
523.154602,-38.285162,210.568389,-9513.862658
523.155229,19.142581,267.996131,-9590.432981
523.155856,57.427742,172.283227,-9590.432981
523.156484,114.855485,133.998066,-9552.147819
523.157111,191.425808,57.427742,-9475.577496
523.157739,172.283227,95.712904,-9399.007173
523.158366,210.568389,0.000000,-9245.866526
523.158993,153.140646,38.285162,-9341.579430
523.159621,133.998066,76.570323,-9284.151688
523.160248,95.712904,153.140646,-9341.579430
523.160875,38.285162,229.710970,-9437.292334
523.161503,0.000000,325.423874,-9533.005238
523.162130,57.427742,287.138712,-9513.862658
523.162758,57.427742,172.283227,-9533.005238
523.163385,76.570323,210.568389,-9475.577496
523.164012,95.712904,38.285162,-9399.007173
523.164640,191.425808,76.570323,-9418.149754
523.165267,248.853550,57.427742,-9360.722011
523.165894,229.710970,95.712904,-9265.009107
523.166522,210.568389,95.712904,-9322.436850
523.167149,114.855485,229.710970,-9303.294269
523.167777,76.570323,210.568389,-9418.149754
523.168404,38.285162,287.138712,-9418.149754
523.169031,-19.142581,287.138712,-9475.577496
523.169659,38.285162,267.996131,-9571.290400
523.170286,38.285162,248.853550,-9571.290400
523.170913,133.998066,114.855485,-9533.005238
523.171541,172.283227,95.712904,-9494.720077
523.172168,229.710970,0.000000,-9360.722011
523.172796,248.853550,0.000000,-9341.579430
523.173423,248.853550,38.285162,-9341.579430
523.174050,153.140646,95.712904,-9245.866526
523.174678,57.427742,133.998066,-9322.436850
523.175305,38.285162,229.710970,-9418.149754
523.175932,19.142581,229.710970,-9533.005238
523.176560,-38.285162,287.138712,-9552.147819
523.177187,76.570323,306.281293,-9513.862658
523.177815,95.712904,191.425808,-9552.147819
523.178442,133.998066,153.140646,-9437.292334
523.179069,248.853550,19.142581,-9418.149754
523.179697,267.996131,95.712904,-9341.579430
523.180324,248.853550,57.427742,-9245.866526
523.180951,248.853550,95.712904,-9303.294269
523.181579,133.998066,133.998066,-9322.436850
523.182206,57.427742,191.425808,-9360.722011
523.182834,38.285162,248.853550,-9418.149754
523.183461,-19.142581,267.996131,-9533.005238
523.184088,-38.285162,267.996131,-9571.290400
523.184716,0.000000,153.140646,-9571.290400
523.185343,114.855485,133.998066,-9552.147819
523.185970,153.140646,38.285162,-9475.577496
523.186598,191.425808,76.570323,-9360.722011
523.187225,287.138712,76.570323,-9360.722011
523.187853,248.853550,38.285162,-9245.866526
523.188480,153.140646,95.712904,-9245.866526
523.189107,95.712904,153.140646,-9245.866526
523.189735,76.570323,267.996131,-9379.864592
523.190362,0.000000,287.138712,-9456.434915
523.190989,-19.142581,306.281293,-9475.577496
523.191617,-38.285162,287.138712,-9552.147819
523.192244,0.000000,210.568389,-9552.147819
523.192872,153.140646,133.998066,-9513.862658
523.193499,191.425808,76.570323,-9456.434915
523.194126,229.710970,57.427742,-9360.722011
523.194754,248.853550,57.427742,-9341.579430
523.195381,191.425808,95.712904,-9303.294269
523.196008,133.998066,95.712904,-9245.866526
523.196636,95.712904,153.140646,-9245.866526
523.197263,19.142581,248.853550,-9399.007173
523.197890,-38.285162,229.710970,-9533.005238
523.198518,-57.427742,153.140646,-9513.862658
523.199145,0.000000,172.283227,-9552.147819
523.199773,76.570323,172.283227,-9552.147819
523.200400,172.283227,114.855485,-9571.290400
523.201027,114.855485,38.285162,-9437.292334
523.201655,191.425808,76.570323,-9418.149754
523.202282,248.853550,0.000000,-9341.579430
523.202909,191.425808,95.712904,-9322.436850
523.203537,76.570323,76.570323,-9303.294269
523.204164,95.712904,153.140646,-9322.436850
523.204792,38.285162,229.710970,-9418.149754
523.205419,0.000000,344.566454,-9475.577496
523.206046,76.570323,229.710970,-9475.577496
523.206674,57.427742,191.425808,-9533.005238
523.207301,114.855485,153.140646,-9513.862658
523.207928,133.998066,114.855485,-9418.149754
523.208556,191.425808,19.142581,-9418.149754
523.209183,248.853550,-19.142581,-9284.151688
523.209811,248.853550,0.000000,-9303.294269
523.210438,133.998066,38.285162,-9341.579430
523.211065,95.712904,133.998066,-9341.579430
523.211693,0.000000,210.568389,-9360.722011
523.212320,19.142581,229.710970,-9533.005238
523.212947,19.142581,210.568389,-9552.147819
523.213575,-19.142581,229.710970,-9571.290400
523.214202,76.570323,172.283227,-9590.432981
523.214830,133.998066,114.855485,-9533.005238
523.215457,172.283227,38.285162,-9513.862658
523.216084,267.996131,38.285162,-9341.579430
523.216712,248.853550,0.000000,-9284.151688
523.217339,133.998066,95.712904,-9303.294269
523.217966,95.712904,133.998066,-9360.722011
523.218594,57.427742,248.853550,-9245.866526
523.219221,38.285162,287.138712,-9399.007173
523.219849,19.142581,229.710970,-9533.005238
523.220476,-38.285162,287.138712,-9552.147819
523.221103,-19.142581,267.996131,-9475.577496
523.221731,38.285162,153.140646,-9533.005238
523.222358,76.570323,114.855485,-9533.005238
523.222985,153.140646,133.998066,-9399.007173
523.223613,210.568389,95.712904,-9341.579430
523.224240,210.568389,-19.142581,-9322.436850
523.224868,133.998066,57.427742,-9303.294269
523.225495,76.570323,76.570323,-9322.436850
523.226122,38.285162,172.283227,-9418.149754
523.226750,19.142581,229.710970,-9418.149754
523.227377,57.427742,287.138712,-9571.290400
523.228004,19.142581,191.425808,-9513.862658
523.228632,0.000000,210.568389,-9571.290400
523.229259,114.855485,153.140646,-9552.147819
523.229886,210.568389,38.285162,-9475.577496
523.230514,210.568389,0.000000,-9360.722011
523.231141,267.996131,0.000000,-9284.151688
523.231768,248.853550,95.712904,-9284.151688
523.232396,114.855485,133.998066,-9303.294269
523.233023,133.998066,191.425808,-9341.579430
523.233651,57.427742,248.853550,-9360.722011
523.234278,0.000000,287.138712,-9494.720077
523.234905,-19.142581,363.709035,-9475.577496
523.235533,38.285162,267.996131,-9571.290400
523.236160,76.570323,191.425808,-9552.147819
523.236787,229.710970,76.570323,-9475.577496
523.237415,210.568389,95.712904,-9533.005238
523.238042,191.425808,76.570323,-9418.149754
523.238669,210.568389,-19.142581,-9341.579430
523.239297,172.283227,0.000000,-9245.866526
523.239924,114.855485,153.140646,-9322.436850
523.240551,38.285162,133.998066,-9341.579430
523.241179,57.427742,114.855485,-9418.149754
523.241806,-38.285162,229.710970,-9533.005238
523.242434,-38.285162,287.138712,-9552.147819
523.243061,38.285162,267.996131,-9590.432981
523.243688,95.712904,114.855485,-9533.005238
523.244316,153.140646,114.855485,-9456.434915
523.244943,191.425808,57.427742,-9456.434915
523.245570,210.568389,0.000000,-9284.151688
523.246198,210.568389,0.000000,-9284.151688
523.246825,210.568389,114.855485,-9284.151688
523.247452,76.570323,133.998066,-9265.009107
523.248080,57.427742,267.996131,-9303.294269
523.248707,19.142581,267.996131,-9379.864592
523.249334,-38.285162,287.138712,-9552.147819
523.249962,0.000000,191.425808,-9475.577496
523.250589,95.712904,210.568389,-9533.005238
523.251217,153.140646,114.855485,-9533.005238
523.251844,172.283227,76.570323,-9475.577496
523.252471,191.425808,57.427742,-9418.149754
523.253099,210.568389,-57.427742,-9322.436850
523.253726,210.568389,0.000000,-9360.722011
523.254353,153.140646,38.285162,-9322.436850
523.254981,114.855485,172.283227,-9379.864592
523.255608,76.570323,172.283227,-9418.149754
523.256235,19.142581,229.710970,-9533.005238
523.256863,0.000000,267.996131,-9552.147819
523.257490,0.000000,172.283227,-9552.147819
523.258117,57.427742,172.283227,-9552.147819
523.258745,76.570323,114.855485,-9533.005238
523.259372,191.425808,57.427742,-9418.149754
523.260000,248.853550,38.285162,-9284.151688
523.260627,267.996131,38.285162,-9245.866526
523.261254,153.140646,95.712904,-9245.866526
523.261882,133.998066,172.283227,-9226.723946
523.262509,114.855485,248.853550,-9303.294269
523.263136,57.427742,267.996131,-9379.864592
523.263764,-57.427742,306.281293,-9437.292334
523.264391,-57.427742,306.281293,-9552.147819
523.265018,38.285162,267.996131,-9628.718142
523.265646,191.425808,153.140646,-9571.290400
523.266273,153.140646,114.855485,-9475.577496
523.266900,172.283227,76.570323,-9456.434915
523.267528,191.425808,57.427742,-9418.149754
523.268155,248.853550,95.712904,-9360.722011
523.268783,133.998066,76.570323,-9379.864592
523.269410,114.855485,133.998066,-9284.151688
523.270037,95.712904,172.283227,-9360.722011
523.270665,-38.285162,229.710970,-9437.292334
523.271292,-76.570323,210.568389,-9513.862658
523.271919,19.142581,248.853550,-9571.290400
523.272547,0.000000,153.140646,-9571.290400
523.273174,191.425808,114.855485,-9571.290400
523.273801,133.998066,114.855485,-9418.149754
523.274429,248.853550,95.712904,-9360.722011
523.275056,191.425808,76.570323,-9341.579430
523.275683,191.425808,38.285162,-9284.151688
523.276311,114.855485,114.855485,-9265.009107
523.276938,19.142581,210.568389,-9303.294269
523.277566,57.427742,287.138712,-9379.864592
523.278193,0.000000,306.281293,-9475.577496
523.278820,-38.285162,306.281293,-9552.147819
523.279448,38.285162,267.996131,-9571.290400
523.280075,95.712904,153.140646,-9552.147819
523.280702,172.283227,114.855485,-9571.290400
523.281330,229.710970,19.142581,-9533.005238
523.281957,191.425808,76.570323,-9418.149754
523.282584,210.568389,38.285162,-9284.151688
523.283212,133.998066,76.570323,-9265.009107
523.283839,153.140646,95.712904,-9360.722011
523.284467,95.712904,153.140646,-9360.722011
523.285094,19.142581,229.710970,-9456.434915
523.285721,19.142581,267.996131,-9571.290400
523.286349,19.142581,267.996131,-9571.290400
523.286976,19.142581,287.138712,-9552.147819
523.287603,153.140646,172.283227,-9437.292334
523.288231,153.140646,172.283227,-9494.720077
523.288858,191.425808,38.285162,-9437.292334
523.289485,287.138712,57.427742,-9360.722011
523.290113,210.568389,57.427742,-9245.866526
523.290740,133.998066,76.570323,-9284.151688
523.291367,57.427742,153.140646,-9303.294269
523.291995,38.285162,191.425808,-9360.722011
523.292622,-38.285162,229.710970,-9475.577496
523.293250,-38.285162,306.281293,-9533.005238
523.293877,-57.427742,191.425808,-9494.720077
523.294504,57.427742,133.998066,-9552.147819
523.295132,133.998066,133.998066,-9513.862658
523.295759,172.283227,133.998066,-9552.147819
523.296386,287.138712,57.427742,-9418.149754
523.297014,248.853550,38.285162,-9341.579430
523.297641,153.140646,38.285162,-9284.151688
523.298268,153.140646,95.712904,-9341.579430
523.298896,114.855485,191.425808,-9284.151688
523.299523,19.142581,325.423874,-9379.864592
523.300150,-76.570323,267.996131,-9494.720077
523.300778,-38.285162,287.138712,-9552.147819
523.301405,0.000000,287.138712,-9513.862658
523.302033,114.855485,191.425808,-9552.147819
523.302660,133.998066,114.855485,-9475.577496
523.303287,248.853550,76.570323,-9418.149754
523.303915,172.283227,76.570323,-9360.722011
523.304542,153.140646,95.712904,-9284.151688
523.305169,248.853550,95.712904,-9245.866526
523.305797,76.570323,76.570323,-9322.436850
523.306424,57.427742,153.140646,-9322.436850
523.307051,57.427742,229.710970,-9437.292334
523.307679,-57.427742,248.853550,-9513.862658
523.308306,-76.570323,287.138712,-9609.575562
523.308933,38.285162,248.853550,-9590.432981
523.309561,76.570323,133.998066,-9552.147819
523.310188,114.855485,95.712904,-9513.862658
523.310816,191.425808,38.285162,-9456.434915
523.311443,229.710970,57.427742,-9418.149754
523.312070,191.425808,95.712904,-9341.579430
523.312698,133.998066,76.570323,-9341.579430
523.313325,76.570323,76.570323,-9322.436850
523.313952,-19.142581,210.568389,-9322.436850
523.314580,-19.142581,325.423874,-9418.149754
523.315207,19.142581,287.138712,-9533.005238
523.315834,-38.285162,248.853550,-9513.862658
523.316462,133.998066,267.996131,-9571.290400
523.317089,114.855485,191.425808,-9552.147819
523.317716,191.425808,57.427742,-9456.434915
523.318344,229.710970,0.000000,-9341.579430
523.318971,267.996131,95.712904,-9341.579430
523.319599,210.568389,114.855485,-9379.864592
523.320226,133.998066,76.570323,-9322.436850
523.320853,95.712904,210.568389,-9322.436850
523.321481,19.142581,191.425808,-9418.149754
523.322108,-76.570323,267.996131,-9533.005238
523.322735,-76.570323,287.138712,-9552.147819
523.323363,0.000000,153.140646,-9552.147819
523.323990,172.283227,114.855485,-9571.290400
523.324617,76.570323,57.427742,-9571.290400
523.325245,172.283227,38.285162,-9494.720077
523.325872,229.710970,38.285162,-9360.722011
523.326499,248.853550,0.000000,-9322.436850
523.327126,153.140646,95.712904,-9303.294269
523.327754,76.570323,76.570323,-9379.864592
523.328381,57.427742,191.425808,-9341.579430
523.329008,0.000000,248.853550,-9360.722011
523.329636,0.000000,287.138712,-9513.862658
523.330263,-19.142581,363.709035,-9513.862658
523.330890,19.142581,287.138712,-9552.147819
523.331518,95.712904,172.283227,-9533.005238
523.332145,133.998066,153.140646,-9437.292334
523.332772,248.853550,38.285162,-9360.722011
523.333399,248.853550,0.000000,-9284.151688
523.334027,267.996131,38.285162,-9303.294269
523.334654,133.998066,38.285162,-9341.579430
523.335281,114.855485,191.425808,-9284.151688
523.335909,95.712904,248.853550,-9360.722011
523.336536,57.427742,287.138712,-9494.720077
523.337163,-114.855485,229.710970,-9571.290400
523.337790,0.000000,191.425808,-9552.147819
523.338418,57.427742,133.998066,-9552.147819
523.339045,76.570323,133.998066,-9552.147819
523.339672,172.283227,95.712904,-9437.292334
523.340300,172.283227,57.427742,-9418.149754
523.340927,191.425808,57.427742,-9341.579430
523.341554,153.140646,0.000000,-9245.866526
523.342181,38.285162,76.570323,-9303.294269
523.342809,114.855485,210.568389,-9341.579430
523.343436,95.712904,229.710970,-9418.149754
523.344063,-38.285162,229.710970,-9494.720077
523.344691,-19.142581,267.996131,-9533.005238
523.345318,19.142581,229.710970,-9533.005238
523.345945,114.855485,191.425808,-9552.147819
523.346572,153.140646,172.283227,-9399.007173
523.347200,172.283227,95.712904,-9437.292334
523.347827,248.853550,95.712904,-9341.579430
523.348454,267.996131,57.427742,-9284.151688
523.349082,153.140646,95.712904,-9245.866526
523.349709,76.570323,133.998066,-9265.009107
523.350336,57.427742,191.425808,-9341.579430
523.350963,0.000000,267.996131,-9437.292334
523.351591,0.000000,287.138712,-9475.577496
523.352218,0.000000,248.853550,-9552.147819
523.352845,95.712904,153.140646,-9609.575562
523.353473,95.712904,76.570323,-9571.290400
523.354100,172.283227,114.855485,-9513.862658
523.354727,191.425808,76.570323,-9456.434915
523.355354,229.710970,19.142581,-9418.149754
523.355982,210.568389,-19.142581,-9245.866526
523.356609,133.998066,95.712904,-9341.579430
523.357236,57.427742,133.998066,-9341.579430
523.357864,38.285162,248.853550,-9341.579430
523.358491,57.427742,287.138712,-9399.007173
523.359118,57.427742,287.138712,-9513.862658
523.359746,95.712904,229.710970,-9494.720077
523.360373,57.427742,172.283227,-9533.005238
523.361000,153.140646,153.140646,-9494.720077
523.361627,191.425808,57.427742,-9475.577496
523.362255,229.710970,57.427742,-9418.149754
523.362882,191.425808,38.285162,-9341.579430
523.363509,191.425808,95.712904,-9322.436850
523.364137,76.570323,133.998066,-9284.151688
523.364764,95.712904,153.140646,-9322.436850
523.365391,19.142581,191.425808,-9418.149754
523.366018,-76.570323,267.996131,-9494.720077
523.366646,19.142581,287.138712,-9533.005238
523.367273,0.000000,229.710970,-9513.862658
523.367900,57.427742,133.998066,-9552.147819
523.368528,133.998066,114.855485,-9475.577496
523.369155,191.425808,57.427742,-9456.434915
523.369782,191.425808,38.285162,-9418.149754
523.370409,210.568389,38.285162,-9360.722011
523.371037,153.140646,95.712904,-9245.866526
523.371664,172.283227,114.855485,-9303.294269
523.372291,57.427742,248.853550,-9360.722011
523.372919,38.285162,267.996131,-9379.864592
523.373546,38.285162,306.281293,-9475.577496
523.374173,0.000000,325.423874,-9494.720077
523.374800,0.000000,153.140646,-9590.432981
523.375428,95.712904,133.998066,-9533.005238
523.376055,133.998066,114.855485,-9456.434915
523.376682,133.998066,57.427742,-9379.864592
523.377310,287.138712,38.285162,-9418.149754
523.377937,191.425808,114.855485,-9303.294269
523.378564,153.140646,95.712904,-9303.294269
523.379191,95.712904,133.998066,-9341.579430
523.379819,57.427742,153.140646,-9360.722011
523.380446,-38.285162,191.425808,-9456.434915
523.381073,0.000000,210.568389,-9571.290400
523.381701,-76.570323,229.710970,-9571.290400
523.382328,38.285162,229.710970,-9533.005238
523.382955,114.855485,210.568389,-9552.147819
523.383582,210.568389,172.283227,-9494.720077
523.384210,229.710970,76.570323,-9418.149754
523.384837,210.568389,95.712904,-9341.579430
523.385464,229.710970,76.570323,-9245.866526
523.386092,172.283227,114.855485,-9284.151688
523.386719,95.712904,191.425808,-9341.579430
523.387346,153.140646,248.853550,-9399.007173
523.387973,57.427742,287.138712,-9399.007173
523.388601,0.000000,287.138712,-9513.862658
523.389228,76.570323,229.710970,-9533.005238
523.389855,76.570323,210.568389,-9475.577496
523.390483,133.998066,114.855485,-9418.149754
523.391110,210.568389,133.998066,-9399.007173
523.391737,248.853550,57.427742,-9418.149754
523.392365,210.568389,0.000000,-9245.866526
523.392992,153.140646,57.427742,-9322.436850
523.393619,95.712904,133.998066,-9341.579430
523.394246,38.285162,191.425808,-9418.149754
523.394874,38.285162,229.710970,-9418.149754
523.395501,-19.142581,267.996131,-9552.147819
523.396128,-38.285162,210.568389,-9552.147819
523.396756,0.000000,191.425808,-9552.147819
523.397383,114.855485,153.140646,-9533.005238
523.398010,153.140646,76.570323,-9494.720077
523.398637,191.425808,19.142581,-9418.149754
523.399265,248.853550,95.712904,-9360.722011
523.399892,248.853550,76.570323,-9226.723946
523.400519,191.425808,95.712904,-9303.294269
523.401147,95.712904,191.425808,-9245.866526
523.401774,57.427742,267.996131,-9341.579430
523.402401,76.570323,229.710970,-9437.292334
523.403028,38.285162,229.710970,-9533.005238
523.403656,38.285162,267.996131,-9571.290400
523.404283,57.427742,172.283227,-9552.147819
523.404910,114.855485,172.283227,-9552.147819
523.405538,248.853550,38.285162,-9475.577496
523.406165,210.568389,19.142581,-9437.292334
523.406792,210.568389,-38.285162,-9379.864592
523.407419,191.425808,38.285162,-9341.579430
523.408047,38.285162,38.285162,-9379.864592
523.408674,57.427742,172.283227,-9437.292334
523.409301,38.285162,191.425808,-9418.149754
523.409929,57.427742,287.138712,-9475.577496
523.410556,0.000000,287.138712,-9513.862658
523.411183,57.427742,191.425808,-9552.147819
523.411810,95.712904,133.998066,-9552.147819
523.412438,133.998066,114.855485,-9437.292334
523.413065,172.283227,-38.285162,-9475.577496
523.413692,210.568389,95.712904,-9360.722011
523.414320,210.568389,95.712904,-9245.866526
523.414947,153.140646,95.712904,-9303.294269
523.415574,114.855485,248.853550,-9341.579430
523.416201,57.427742,191.425808,-9341.579430
523.416829,19.142581,267.996131,-9399.007173
523.417456,-19.142581,325.423874,-9475.577496
523.418083,0.000000,325.423874,-9513.862658
523.418711,76.570323,267.996131,-9571.290400
523.419338,95.712904,133.998066,-9475.577496
523.419965,172.283227,114.855485,-9571.290400
523.420592,191.425808,19.142581,-9437.292334
523.421220,229.710970,-38.285162,-9399.007173
523.421847,248.853550,57.427742,-9360.722011
523.422474,153.140646,95.712904,-9341.579430
523.423102,76.570323,76.570323,-9379.864592
523.423729,19.142581,172.283227,-9418.149754
523.424356,57.427742,287.138712,-9475.577496
523.424983,0.000000,153.140646,-9552.147819
523.425610,-38.285162,287.138712,-9590.432981
523.426238,95.712904,210.568389,-9533.005238
523.426865,133.998066,114.855485,-9533.005238
523.427492,153.140646,133.998066,-9437.292334
523.428119,191.425808,19.142581,-9418.149754
523.428746,248.853550,38.285162,-9360.722011
523.429373,210.568389,114.855485,-9245.866526
523.430000,76.570323,76.570323,-9265.009107
523.430627,57.427742,210.568389,-9245.866526
523.431254,57.427742,248.853550,-9303.294269
523.431881,0.000000,287.138712,-9475.577496
523.432509,19.142581,267.996131,-9571.290400
523.433136,0.000000,191.425808,-9552.147819
523.433763,76.570323,172.283227,-9552.147819
523.434390,210.568389,133.998066,-9399.007173
523.435017,172.283227,95.712904,-9456.434915
523.435644,191.425808,57.427742,-9418.149754
523.436271,267.996131,57.427742,-9341.579430
523.436898,172.283227,0.000000,-9322.436850
523.437525,57.427742,133.998066,-9322.436850
523.438152,57.427742,248.853550,-9322.436850
523.438780,95.712904,191.425808,-9360.722011
523.439407,19.142581,267.996131,-9571.290400
523.440034,19.142581,248.853550,-9513.862658
523.440661,57.427742,133.998066,-9609.575562
523.441288,114.855485,153.140646,-9533.005238
523.441915,153.140646,133.998066,-9456.434915
523.442542,191.425808,76.570323,-9456.434915
523.443169,210.568389,95.712904,-9284.151688
523.443796,210.568389,95.712904,-9245.866526
523.444424,95.712904,153.140646,-9284.151688
523.445051,95.712904,133.998066,-9245.866526
523.445678,38.285162,153.140646,-9341.579430
523.446305,-38.285162,287.138712,-9418.149754
523.446932,-19.142581,325.423874,-9475.577496
523.447559,19.142581,267.996131,-9571.290400
523.448186,57.427742,153.140646,-9552.147819
523.448813,153.140646,133.998066,-9494.720077
523.449440,114.855485,38.285162,-9437.292334
523.450067,191.425808,76.570323,-9418.149754
523.450695,229.710970,38.285162,-9360.722011
523.451322,210.568389,95.712904,-9341.579430
523.451949,133.998066,95.712904,-9303.294269
523.452576,95.712904,133.998066,-9341.579430
523.453203,57.427742,153.140646,-9360.722011
523.453830,38.285162,229.710970,-9533.005238
523.454457,-38.285162,191.425808,-9494.720077
523.455084,38.285162,153.140646,-9533.005238
523.455711,95.712904,114.855485,-9533.005238
523.456338,210.568389,133.998066,-9494.720077
523.456966,172.283227,57.427742,-9456.434915
523.457593,229.710970,38.285162,-9341.579430
523.458220,248.853550,95.712904,-9245.866526
523.458847,210.568389,114.855485,-9284.151688
523.459474,114.855485,172.283227,-9265.009107
523.460101,57.427742,191.425808,-9322.436850
523.460728,38.285162,248.853550,-9379.864592
523.461355,19.142581,229.710970,-9533.005238
523.461982,76.570323,267.996131,-9571.290400
523.462610,38.285162,210.568389,-9609.575562
523.463237,76.570323,76.570323,-9571.290400
523.463864,172.283227,95.712904,-9571.290400
523.464491,114.855485,38.285162,-9437.292334
523.465118,229.710970,19.142581,-9418.149754
523.465745,210.568389,95.712904,-9341.579430
523.466372,76.570323,76.570323,-9341.579430
523.466999,95.712904,133.998066,-9341.579430
523.467626,38.285162,248.853550,-9303.294269
523.468253,-57.427742,287.138712,-9418.149754
523.468881,0.000000,248.853550,-9533.005238
523.469508,38.285162,229.710970,-9533.005238
523.470135,38.285162,153.140646,-9552.147819
523.470762,133.998066,114.855485,-9533.005238
523.471389,133.998066,114.855485,-9437.292334
523.472016,229.710970,133.998066,-9399.007173
523.472643,248.853550,95.712904,-9284.151688
523.473270,133.998066,95.712904,-9245.866526
523.473897,114.855485,114.855485,-9265.009107
523.474525,95.712904,133.998066,-9284.151688
523.475152,95.712904,248.853550,-9322.436850
523.475779,19.142581,229.710970,-9437.292334
523.476406,-19.142581,267.996131,-9533.005238
523.477033,57.427742,210.568389,-9571.290400
523.477660,95.712904,172.283227,-9590.432981
523.478287,153.140646,76.570323,-9494.720077
523.478914,76.570323,38.285162,-9399.007173
523.479541,191.425808,-38.285162,-9418.149754
523.480168,248.853550,57.427742,-9245.866526
523.480796,133.998066,38.285162,-9284.151688
523.481423,57.427742,76.570323,-9284.151688
523.482050,57.427742,153.140646,-9360.722011
523.482677,0.000000,287.138712,-9399.007173
523.483304,-38.285162,287.138712,-9494.720077
523.483931,0.000000,267.996131,-9475.577496
523.484558,38.285162,210.568389,-9494.720077
523.485185,114.855485,133.998066,-9533.005238
523.485812,76.570323,114.855485,-9418.149754
523.486439,191.425808,38.285162,-9360.722011
523.487067,248.853550,57.427742,-9341.579430
523.487694,229.710970,114.855485,-9265.009107
523.488321,95.712904,133.998066,-9303.294269
523.488948,57.427742,95.712904,-9379.864592
523.489575,57.427742,210.568389,-9360.722011
523.490202,0.000000,191.425808,-9360.722011
523.490829,19.142581,267.996131,-9571.290400
523.491456,57.427742,191.425808,-9552.147819
523.492083,76.570323,133.998066,-9552.147819
523.492711,95.712904,133.998066,-9590.432981
523.493338,133.998066,19.142581,-9571.290400
523.493965,172.283227,19.142581,-9418.149754
523.494592,229.710970,19.142581,-9341.579430
523.495219,133.998066,38.285162,-9322.436850
523.495846,76.570323,76.570323,-9322.436850
523.496473,95.712904,210.568389,-9341.579430
523.497100,57.427742,191.425808,-9360.722011
523.497727,57.427742,325.423874,-9379.864592
523.498354,0.000000,287.138712,-9513.862658
523.498982,57.427742,229.710970,-9513.862658
523.499609,76.570323,248.853550,-9552.147819
523.500236,210.568389,133.998066,-9513.862658
523.500863,172.283227,57.427742,-9437.292334
523.501490,248.853550,38.285162,-9322.436850
523.502117,210.568389,95.712904,-9284.151688
523.502744,133.998066,19.142581,-9245.866526
523.503371,57.427742,133.998066,-9341.579430
523.503998,95.712904,153.140646,-9360.722011
523.504625,19.142581,229.710970,-9418.149754
523.505253,57.427742,229.710970,-9513.862658
523.505880,19.142581,248.853550,-9571.290400
523.506507,57.427742,191.425808,-9552.147819
523.507134,76.570323,133.998066,-9552.147819
523.507761,153.140646,95.712904,-9552.147819
523.508388,172.283227,57.427742,-9456.434915
523.509015,191.425808,76.570323,-9437.292334
523.509642,210.568389,57.427742,-9284.151688
523.510269,191.425808,95.712904,-9303.294269
523.510897,76.570323,133.998066,-9265.009107
523.511524,0.000000,248.853550,-9322.436850
523.512151,38.285162,248.853550,-9360.722011
523.512778,-19.142581,363.709035,-9533.005238
523.513405,0.000000,210.568389,-9571.290400
523.514032,57.427742,248.853550,-9552.147819
523.514659,191.425808,114.855485,-9494.720077
523.515286,229.710970,76.570323,-9475.577496
523.515913,248.853550,38.285162,-9360.722011
523.516540,229.710970,57.427742,-9341.579430
523.517168,191.425808,38.285162,-9284.151688
523.517795,95.712904,133.998066,-9360.722011
523.518422,57.427742,153.140646,-9303.294269
523.519049,38.285162,267.996131,-9399.007173
523.519676,-38.285162,248.853550,-9456.434915
523.520303,-19.142581,267.996131,-9475.577496
523.520930,38.285162,248.853550,-9571.290400
523.521557,76.570323,153.140646,-9552.147819
523.522184,172.283227,114.855485,-9513.862658
523.522811,172.283227,57.427742,-9418.149754
523.523439,248.853550,76.570323,-9418.149754
523.524066,248.853550,95.712904,-9360.722011
523.524693,95.712904,133.998066,-9284.151688
523.525320,57.427742,133.998066,-9360.722011
523.525947,95.712904,248.853550,-9322.436850
523.526575,19.142581,325.423874,-9379.864592
523.527202,-19.142581,267.996131,-9494.720077
523.527829,0.000000,287.138712,-9513.862658
523.528456,0.000000,210.568389,-9571.290400
523.529084,114.855485,172.283227,-9533.005238
523.529711,95.712904,114.855485,-9533.005238
523.530338,210.568389,133.998066,-9399.007173
523.530965,229.710970,76.570323,-9437.292334
523.531593,229.710970,95.712904,-9360.722011
523.532220,210.568389,114.855485,-9341.579430
523.532847,114.855485,133.998066,-9322.436850
523.533475,76.570323,191.425808,-9418.149754
523.534102,-38.285162,229.710970,-9533.005238
523.534729,-19.142581,229.710970,-9513.862658
523.535356,-19.142581,229.710970,-9571.290400
523.535984,57.427742,133.998066,-9609.575562
523.536611,76.570323,76.570323,-9609.575562
523.537238,172.283227,76.570323,-9475.577496
523.537865,191.425808,38.285162,-9418.149754
523.538493,210.568389,0.000000,-9341.579430
523.539120,248.853550,57.427742,-9245.866526
523.539747,76.570323,76.570323,-9265.009107
523.540375,114.855485,133.998066,-9245.866526
523.541002,95.712904,248.853550,-9360.722011
523.541629,19.142581,267.996131,-9399.007173
523.542256,0.000000,344.566454,-9513.862658
523.542884,0.000000,229.710970,-9513.862658
523.543511,76.570323,172.283227,-9552.147819
523.544138,133.998066,153.140646,-9475.577496
523.544765,114.855485,153.140646,-9533.005238
523.545393,229.710970,19.142581,-9418.149754
523.546020,172.283227,19.142581,-9360.722011
523.546647,210.568389,57.427742,-9341.579430
523.547275,133.998066,76.570323,-9303.294269
523.547902,114.855485,114.855485,-9284.151688
523.548529,19.142581,210.568389,-9418.149754
523.549156,0.000000,287.138712,-9456.434915
523.549784,-38.285162,248.853550,-9571.290400
523.550411,57.427742,191.425808,-9552.147819
523.551038,76.570323,133.998066,-9590.432981
523.551665,191.425808,76.570323,-9418.149754
523.552293,114.855485,95.712904,-9399.007173
523.552920,191.425808,57.427742,-9418.149754
523.553547,210.568389,95.712904,-9284.151688
523.554175,191.425808,95.712904,-9341.579430
523.554802,172.283227,172.283227,-9379.864592
523.555429,57.427742,267.996131,-9265.009107
523.556056,76.570323,267.996131,-9322.436850
523.556684,0.000000,229.710970,-9494.720077
523.557311,57.427742,287.138712,-9513.862658
523.557938,38.285162,153.140646,-9533.005238
523.558565,95.712904,172.283227,-9475.577496
523.559193,210.568389,133.998066,-9437.292334
523.559820,172.283227,57.427742,-9456.434915
523.560447,172.283227,76.570323,-9418.149754
523.561074,248.853550,95.712904,-9284.151688
523.561702,76.570323,38.285162,-9284.151688
523.562329,76.570323,76.570323,-9322.436850
523.562956,38.285162,191.425808,-9418.149754
523.563584,0.000000,287.138712,-9399.007173
523.564211,19.142581,210.568389,-9533.005238
523.564838,0.000000,210.568389,-9571.290400
523.565465,57.427742,191.425808,-9552.147819
523.566093,191.425808,114.855485,-9513.862658
523.566720,172.283227,114.855485,-9494.720077
523.567347,229.710970,76.570323,-9418.149754
523.567974,191.425808,57.427742,-9341.579430
523.568602,172.283227,114.855485,-9265.009107
523.569229,38.285162,76.570323,-9265.009107
523.569856,95.712904,210.568389,-9245.866526
523.570484,76.570323,229.710970,-9360.722011
523.571111,-38.285162,267.996131,-9379.864592
523.571738,-76.570323,229.710970,-9571.290400
523.572365,-38.285162,191.425808,-9513.862658
523.572993,57.427742,153.140646,-9552.147819
523.573620,76.570323,95.712904,-9475.577496
523.574247,191.425808,57.427742,-9456.434915
523.574874,229.710970,0.000000,-9418.149754
523.575502,248.853550,57.427742,-9284.151688
523.576129,153.140646,95.712904,-9284.151688
523.576756,76.570323,76.570323,-9322.436850
523.577384,76.570323,114.855485,-9418.149754
523.578011,38.285162,229.710970,-9418.149754
523.578638,-19.142581,287.138712,-9513.862658
523.579265,19.142581,210.568389,-9533.005238
523.579893,38.285162,172.283227,-9533.005238
523.580520,76.570323,153.140646,-9533.005238
523.581147,210.568389,133.998066,-9437.292334
523.581774,191.425808,76.570323,-9418.149754
523.582402,229.710970,76.570323,-9418.149754
523.583029,248.853550,95.712904,-9245.866526
523.583656,114.855485,114.855485,-9265.009107
523.584284,76.570323,76.570323,-9303.294269
523.584911,57.427742,172.283227,-9360.722011
523.585538,19.142581,229.710970,-9494.720077
523.586165,19.142581,191.425808,-9475.577496
523.586793,19.142581,153.140646,-9533.005238
523.587420,57.427742,191.425808,-9552.147819
523.588047,76.570323,114.855485,-9475.577496
523.588674,191.425808,76.570323,-9475.577496
523.589302,191.425808,76.570323,-9437.292334
523.589929,210.568389,19.142581,-9418.149754
523.590556,153.140646,76.570323,-9379.864592
523.591184,76.570323,38.285162,-9322.436850
523.591811,38.285162,133.998066,-9360.722011
523.592438,19.142581,172.283227,-9418.149754
523.593065,19.142581,229.710970,-9494.720077
523.593693,19.142581,172.283227,-9533.005238
523.594320,57.427742,191.425808,-9533.005238
523.594947,172.283227,191.425808,-9552.147819
523.595574,153.140646,133.998066,-9494.720077
523.596202,191.425808,57.427742,-9456.434915
523.596829,229.710970,57.427742,-9418.149754
523.597456,210.568389,57.427742,-9303.294269
523.598083,153.140646,95.712904,-9245.866526
523.598711,95.712904,153.140646,-9303.294269
523.599338,95.712904,248.853550,-9245.866526
523.599965,57.427742,248.853550,-9360.722011
523.600593,-19.142581,287.138712,-9475.577496
523.601220,19.142581,306.281293,-9552.147819
523.601847,95.712904,191.425808,-9552.147819
523.602474,95.712904,76.570323,-9571.290400
523.603102,114.855485,95.712904,-9513.862658
523.603729,210.568389,95.712904,-9533.005238
523.604356,191.425808,57.427742,-9456.434915
523.604983,210.568389,95.712904,-9284.151688
523.605611,133.998066,38.285162,-9303.294269
523.606238,76.570323,76.570323,-9379.864592
523.606865,38.285162,210.568389,-9418.149754
523.607493,76.570323,287.138712,-9418.149754
523.608120,0.000000,306.281293,-9513.862658
523.608747,0.000000,325.423874,-9533.005238
523.609374,19.142581,267.996131,-9571.290400
523.610002,76.570323,153.140646,-9456.434915
523.610629,133.998066,114.855485,-9418.149754
523.611256,153.140646,38.285162,-9360.722011
523.611883,210.568389,95.712904,-9341.579430
523.612511,191.425808,114.855485,-9265.009107
523.613138,172.283227,114.855485,-9284.151688
523.613765,95.712904,210.568389,-9284.151688
523.614393,95.712904,191.425808,-9360.722011
523.615020,76.570323,210.568389,-9418.149754
523.615647,-38.285162,248.853550,-9475.577496
523.616274,0.000000,191.425808,-9552.147819
523.616902,114.855485,133.998066,-9552.147819
523.617529,172.283227,133.998066,-9533.005238
523.618156,114.855485,133.998066,-9552.147819
523.618783,210.568389,76.570323,-9399.007173
523.619411,153.140646,0.000000,-9341.579430
523.620038,153.140646,95.712904,-9341.579430
523.620665,76.570323,76.570323,-9322.436850
523.621293,57.427742,153.140646,-9341.579430
523.621920,95.712904,248.853550,-9341.579430
523.622547,19.142581,229.710970,-9437.292334
523.623174,19.142581,210.568389,-9533.005238
523.623802,19.142581,229.710970,-9533.005238
523.624429,133.998066,210.568389,-9533.005238
523.625056,191.425808,76.570323,-9437.292334
523.625684,172.283227,76.570323,-9418.149754
523.626311,248.853550,38.285162,-9360.722011
523.626939,248.853550,95.712904,-9284.151688
523.627566,172.283227,133.998066,-9245.866526
523.628194,95.712904,133.998066,-9341.579430
523.628821,0.000000,133.998066,-9360.722011
523.629449,38.285162,210.568389,-9418.149754
523.630076,19.142581,229.710970,-9494.720077
523.630704,0.000000,210.568389,-9590.432981
523.631332,76.570323,210.568389,-9552.147819
523.631959,114.855485,133.998066,-9552.147819
523.632587,172.283227,38.285162,-9513.862658
523.633214,210.568389,133.998066,-9494.720077
523.633842,229.710970,76.570323,-9418.149754
523.634469,153.140646,0.000000,-9341.579430
523.635097,95.712904,133.998066,-9341.579430
523.635724,114.855485,172.283227,-9303.294269
523.636352,95.712904,133.998066,-9322.436850
523.636979,19.142581,229.710970,-9494.720077
523.637607,0.000000,248.853550,-9533.005238
523.638234,0.000000,248.853550,-9475.577496
523.638862,76.570323,267.996131,-9513.862658
523.639490,133.998066,114.855485,-9533.005238
523.640117,210.568389,133.998066,-9494.720077
523.640745,172.283227,76.570323,-9437.292334
523.641372,172.283227,76.570323,-9360.722011
523.642000,191.425808,95.712904,-9284.151688
523.642627,133.998066,95.712904,-9245.866526
523.643255,114.855485,153.140646,-9341.579430
523.643882,38.285162,229.710970,-9418.149754
523.644510,38.285162,229.710970,-9418.149754
523.645137,38.285162,287.138712,-9533.005238
523.645765,38.285162,153.140646,-9533.005238
523.646392,19.142581,133.998066,-9513.862658
523.647020,133.998066,95.712904,-9533.005238
523.647648,114.855485,0.000000,-9494.720077
523.648275,153.140646,38.285162,-9360.722011
523.648903,191.425808,19.142581,-9341.579430
523.649530,133.998066,76.570323,-9341.579430
523.650158,172.283227,114.855485,-9303.294269
523.650785,114.855485,133.998066,-9322.436850
523.651413,76.570323,229.710970,-9418.149754
523.652040,-76.570323,325.423874,-9533.005238
523.652668,-38.285162,267.996131,-9494.720077
523.653295,76.570323,210.568389,-9533.005238
523.653923,114.855485,191.425808,-9552.147819
523.654551,153.140646,133.998066,-9513.862658
523.655178,210.568389,133.998066,-9437.292334
523.655806,229.710970,38.285162,-9456.434915
523.656433,210.568389,76.570323,-9341.579430
523.657061,153.140646,95.712904,-9303.294269
523.657688,38.285162,210.568389,-9341.579430
523.658316,38.285162,210.568389,-9418.149754
523.658943,-38.285162,229.710970,-9418.149754
523.659571,-38.285162,248.853550,-9494.720077
523.660198,0.000000,153.140646,-9571.290400
523.660826,57.427742,133.998066,-9609.575562
523.661453,133.998066,114.855485,-9533.005238
523.662081,191.425808,76.570323,-9533.005238
523.662709,191.425808,19.142581,-9456.434915
523.663336,172.283227,38.285162,-9379.864592
523.663964,153.140646,57.427742,-9284.151688
523.664591,95.712904,133.998066,-9341.579430
523.665219,57.427742,133.998066,-9341.579430
523.665846,57.427742,248.853550,-9360.722011
523.666474,0.000000,306.281293,-9399.007173
523.667101,-19.142581,267.996131,-9475.577496
523.667729,57.427742,229.710970,-9513.862658
523.668356,114.855485,191.425808,-9552.147819
523.668984,133.998066,153.140646,-9418.149754
523.669611,133.998066,114.855485,-9475.577496
523.670239,248.853550,133.998066,-9399.007173
523.670867,248.853550,38.285162,-9284.151688
523.671494,153.140646,57.427742,-9303.294269
523.672122,76.570323,38.285162,-9303.294269
523.672749,95.712904,133.998066,-9341.579430
523.673377,38.285162,229.710970,-9418.149754
523.674004,19.142581,287.138712,-9437.292334
523.674632,-19.142581,210.568389,-9571.290400
523.675259,57.427742,191.425808,-9552.147819
523.675887,114.855485,153.140646,-9533.005238
523.676514,133.998066,114.855485,-9494.720077
523.677142,210.568389,38.285162,-9418.149754
523.677770,172.283227,57.427742,-9418.149754
523.678397,172.283227,38.285162,-9360.722011
523.679025,133.998066,76.570323,-9265.009107
523.679652,57.427742,172.283227,-9303.294269
523.680280,57.427742,248.853550,-9322.436850
523.680907,38.285162,267.996131,-9379.864592
523.681535,-38.285162,248.853550,-9494.720077
523.682162,38.285162,267.996131,-9513.862658
523.682790,133.998066,229.710970,-9533.005238
523.683417,153.140646,191.425808,-9494.720077
523.684045,133.998066,95.712904,-9475.577496
523.684672,191.425808,57.427742,-9475.577496
523.685300,210.568389,0.000000,-9360.722011
523.685928,153.140646,133.998066,-9322.436850
523.686555,76.570323,76.570323,-9284.151688
523.687183,57.427742,133.998066,-9341.579430
523.687810,57.427742,153.140646,-9418.149754
523.688438,19.142581,153.140646,-9399.007173
523.689065,-19.142581,248.853550,-9475.577496
523.689693,0.000000,114.855485,-9571.290400
523.690320,76.570323,133.998066,-9552.147819
523.690948,114.855485,191.425808,-9552.147819
523.691575,114.855485,133.998066,-9552.147819
523.692203,172.283227,19.142581,-9418.149754
523.692830,191.425808,76.570323,-9418.149754
523.693458,191.425808,114.855485,-9322.436850
523.694086,133.998066,95.712904,-9341.579430
523.694713,95.712904,133.998066,-9284.151688
523.695341,95.712904,248.853550,-9322.436850
523.695968,0.000000,229.710970,-9475.577496
523.696596,0.000000,248.853550,-9552.147819
523.697223,57.427742,248.853550,-9552.147819
523.697851,57.427742,133.998066,-9533.005238
523.698478,133.998066,114.855485,-9475.577496
523.699106,210.568389,133.998066,-9494.720077
523.699733,229.710970,19.142581,-9418.149754
523.700361,229.710970,57.427742,-9360.722011
523.700988,191.425808,95.712904,-9303.294269
523.701616,114.855485,95.712904,-9322.436850
523.702244,95.712904,172.283227,-9360.722011
523.702871,95.712904,248.853550,-9360.722011
523.703499,-38.285162,248.853550,-9494.720077
523.704126,38.285162,210.568389,-9533.005238
523.704754,95.712904,172.283227,-9533.005238
523.705381,95.712904,114.855485,-9533.005238
523.706009,172.283227,114.855485,-9513.862658
523.706636,172.283227,57.427742,-9418.149754
523.707264,210.568389,95.712904,-9341.579430
523.707891,248.853550,95.712904,-9245.866526
523.708519,153.140646,95.712904,-9303.294269
523.709147,172.283227,153.140646,-9265.009107
523.709774,57.427742,248.853550,-9322.436850
523.710402,0.000000,287.138712,-9379.864592
523.711029,57.427742,287.138712,-9513.862658
523.711657,38.285162,229.710970,-9533.005238
523.712284,0.000000,191.425808,-9552.147819
523.712912,114.855485,95.712904,-9513.862658
523.713539,153.140646,76.570323,-9571.290400
523.714167,229.710970,57.427742,-9418.149754
523.714794,172.283227,76.570323,-9360.722011
523.715422,153.140646,95.712904,-9341.579430
523.716049,133.998066,76.570323,-9379.864592
523.716677,76.570323,76.570323,-9322.436850
523.717305,0.000000,210.568389,-9360.722011
523.717932,-38.285162,248.853550,-9456.434915
523.718560,19.142581,229.710970,-9533.005238
523.719187,0.000000,191.425808,-9552.147819
523.719815,133.998066,172.283227,-9533.005238
523.720442,153.140646,133.998066,-9513.862658
523.721070,172.283227,57.427742,-9437.292334
523.721697,191.425808,57.427742,-9360.722011
523.722325,210.568389,38.285162,-9284.151688
523.722952,210.568389,95.712904,-9303.294269
523.723580,38.285162,153.140646,-9284.151688
523.724207,57.427742,172.283227,-9245.866526
523.724835,0.000000,229.710970,-9322.436850
523.725463,-38.285162,248.853550,-9456.434915
523.726090,57.427742,248.853550,-9590.432981
523.726718,76.570323,267.996131,-9571.290400
523.727345,95.712904,191.425808,-9552.147819
523.727973,95.712904,114.855485,-9552.147819
523.728600,153.140646,38.285162,-9513.862658
523.729228,114.855485,38.285162,-9399.007173
523.729855,191.425808,57.427742,-9360.722011
523.730483,191.425808,95.712904,-9322.436850
523.731110,95.712904,133.998066,-9360.722011
523.731738,57.427742,172.283227,-9360.722011
523.732365,95.712904,210.568389,-9437.292334
523.732993,19.142581,210.568389,-9437.292334
523.733621,-19.142581,229.710970,-9571.290400
523.734248,38.285162,172.283227,-9552.147819
523.734876,95.712904,153.140646,-9552.147819
523.735503,172.283227,133.998066,-9533.005238
523.736131,248.853550,76.570323,-9475.577496
523.736758,287.138712,76.570323,-9418.149754
523.737386,248.853550,38.285162,-9303.294269
523.738013,95.712904,172.283227,-9284.151688
523.738641,57.427742,248.853550,-9245.866526
523.739268,57.427742,153.140646,-9341.579430
523.739896,57.427742,229.710970,-9418.149754
523.740523,0.000000,229.710970,-9494.720077
523.741151,38.285162,210.568389,-9475.577496
523.741778,38.285162,114.855485,-9533.005238
523.742406,172.283227,76.570323,-9456.434915
523.743034,153.140646,76.570323,-9513.862658
523.743661,191.425808,19.142581,-9456.434915
523.744289,229.710970,38.285162,-9418.149754
523.744916,153.140646,38.285162,-9303.294269
523.745544,133.998066,76.570323,-9303.294269
523.746171,38.285162,76.570323,-9379.864592
523.746799,76.570323,191.425808,-9418.149754
523.747426,38.285162,229.710970,-9418.149754
523.748054,-38.285162,248.853550,-9513.862658
523.748681,19.142581,229.710970,-9552.147819
523.749309,76.570323,172.283227,-9552.147819
523.749936,172.283227,114.855485,-9513.862658
523.750564,210.568389,172.283227,-9399.007173
523.751192,229.710970,76.570323,-9418.149754
523.751819,229.710970,114.855485,-9284.151688
523.752447,133.998066,76.570323,-9322.436850
523.753074,95.712904,191.425808,-9245.866526
523.753702,38.285162,133.998066,-9322.436850
523.754329,57.427742,210.568389,-9418.149754
523.754957,57.427742,287.138712,-9456.434915
523.755584,57.427742,287.138712,-9513.862658
523.756212,38.285162,210.568389,-9533.005238
523.756839,95.712904,114.855485,-9552.147819
523.757467,133.998066,76.570323,-9571.290400
523.758094,172.283227,57.427742,-9456.434915
523.758722,248.853550,95.712904,-9341.579430
523.759349,153.140646,38.285162,-9284.151688
523.759977,76.570323,76.570323,-9303.294269
523.760605,114.855485,153.140646,-9303.294269
523.761232,38.285162,210.568389,-9360.722011
523.761860,19.142581,229.710970,-9475.577496
523.762487,0.000000,287.138712,-9494.720077
523.763115,19.142581,287.138712,-9494.720077
523.763742,19.142581,172.283227,-9533.005238
523.764370,133.998066,172.283227,-9533.005238
523.764997,133.998066,114.855485,-9456.434915
523.765625,210.568389,95.712904,-9341.579430
523.766252,248.853550,95.712904,-9341.579430
523.766880,210.568389,114.855485,-9265.009107
523.767507,95.712904,133.998066,-9303.294269
523.768135,76.570323,248.853550,-9341.579430
523.768762,172.283227,172.283227,-9322.436850
523.769390,57.427742,287.138712,-9399.007173
523.770018,-76.570323,267.996131,-9533.005238
523.770645,0.000000,229.710970,-9571.290400
523.771273,95.712904,133.998066,-9590.432981
523.771900,172.283227,114.855485,-9571.290400
523.772528,172.283227,114.855485,-9571.290400
523.773155,114.855485,38.285162,-9399.007173
523.773783,191.425808,57.427742,-9360.722011
523.774410,172.283227,95.712904,-9360.722011
523.775038,76.570323,114.855485,-9418.149754
523.775665,38.285162,191.425808,-9341.579430
523.776293,0.000000,248.853550,-9360.722011
523.776920,0.000000,287.138712,-9456.434915
523.777548,-76.570323,267.996131,-9533.005238
523.778176,76.570323,248.853550,-9552.147819
523.778803,133.998066,153.140646,-9437.292334
523.779431,153.140646,133.998066,-9494.720077
523.780058,229.710970,133.998066,-9494.720077
523.780686,172.283227,76.570323,-9360.722011
523.781313,191.425808,114.855485,-9265.009107
523.781941,172.283227,114.855485,-9265.009107
523.782568,57.427742,210.568389,-9360.722011
523.783196,57.427742,248.853550,-9360.722011
523.783823,57.427742,229.710970,-9437.292334
523.784451,0.000000,248.853550,-9552.147819
523.785078,0.000000,248.853550,-9552.147819
523.785706,57.427742,172.283227,-9609.575562
523.786333,172.283227,114.855485,-9571.290400
523.786961,114.855485,95.712904,-9437.292334
523.787589,191.425808,76.570323,-9418.149754
523.788216,191.425808,0.000000,-9418.149754
523.788844,153.140646,95.712904,-9303.294269
523.789471,114.855485,114.855485,-9322.436850
523.790099,114.855485,153.140646,-9303.294269
523.790726,95.712904,191.425808,-9360.722011
523.791354,19.142581,210.568389,-9437.292334
523.791981,-19.142581,267.996131,-9475.577496
523.792609,95.712904,248.853550,-9571.290400
523.793236,95.712904,153.140646,-9533.005238
523.793864,114.855485,133.998066,-9533.005238
523.794491,172.283227,76.570323,-9475.577496
523.795119,172.283227,76.570323,-9418.149754
523.795747,210.568389,38.285162,-9341.579430
523.796374,248.853550,57.427742,-9245.866526
523.797002,76.570323,76.570323,-9265.009107
523.797629,114.855485,153.140646,-9303.294269
523.798257,57.427742,248.853550,-9360.722011
523.798884,19.142581,210.568389,-9418.149754
523.799512,-38.285162,248.853550,-9513.862658
523.800139,57.427742,133.998066,-9552.147819
523.800767,114.855485,133.998066,-9533.005238
523.801394,153.140646,133.998066,-9513.862658
523.802022,153.140646,38.285162,-9475.577496
523.802649,210.568389,0.000000,-9418.149754
523.803277,153.140646,95.712904,-9284.151688
523.803904,153.140646,0.000000,-9341.579430
523.804532,114.855485,153.140646,-9322.436850
523.805160,95.712904,191.425808,-9303.294269
523.805787,0.000000,191.425808,-9360.722011
523.806415,0.000000,325.423874,-9494.720077
523.807042,-38.285162,210.568389,-9533.005238
523.807670,38.285162,229.710970,-9533.005238
523.808297,95.712904,172.283227,-9475.577496
523.808925,153.140646,133.998066,-9399.007173
523.809552,133.998066,114.855485,-9418.149754
523.810180,210.568389,95.712904,-9341.579430
523.810807,153.140646,95.712904,-9284.151688
523.811435,114.855485,114.855485,-9341.579430
523.812062,172.283227,114.855485,-9379.864592
523.812690,57.427742,172.283227,-9360.722011
523.813318,19.142581,229.710970,-9418.149754
523.813945,19.142581,229.710970,-9513.862658
523.814573,0.000000,172.283227,-9552.147819
523.815200,0.000000,172.283227,-9571.290400
523.815828,133.998066,76.570323,-9571.290400
523.816455,153.140646,95.712904,-9533.005238
523.817083,191.425808,76.570323,-9456.434915
523.817710,210.568389,57.427742,-9360.722011
523.818338,172.283227,114.855485,-9322.436850
523.818965,76.570323,153.140646,-9322.436850
523.819593,95.712904,210.568389,-9284.151688
523.820220,95.712904,267.996131,-9360.722011
523.820848,0.000000,287.138712,-9399.007173
523.821475,-19.142581,325.423874,-9475.577496
523.822103,0.000000,248.853550,-9475.577496
523.822731,114.855485,172.283227,-9552.147819
523.823358,153.140646,133.998066,-9456.434915
523.823986,210.568389,76.570323,-9475.577496
523.824613,191.425808,57.427742,-9418.149754
523.825241,248.853550,95.712904,-9284.151688
523.825868,172.283227,114.855485,-9284.151688
523.826496,57.427742,133.998066,-9303.294269
523.827123,95.712904,133.998066,-9341.579430
523.827751,76.570323,172.283227,-9418.149754
523.828378,38.285162,172.283227,-9494.720077
523.829006,0.000000,248.853550,-9552.147819
523.829634,95.712904,133.998066,-9590.432981
523.830261,76.570323,76.570323,-9571.290400
523.830889,172.283227,114.855485,-9513.862658
523.831516,172.283227,76.570323,-9456.434915
523.832144,191.425808,76.570323,-9360.722011
523.832771,153.140646,95.712904,-9284.151688
523.833399,153.140646,95.712904,-9322.436850
523.834027,95.712904,133.998066,-9284.151688
523.834654,95.712904,248.853550,-9360.722011
523.835282,114.855485,287.138712,-9399.007173
523.835909,-19.142581,306.281293,-9456.434915
523.836537,19.142581,287.138712,-9533.005238
523.837164,19.142581,248.853550,-9513.862658
523.837792,153.140646,172.283227,-9399.007173
523.838419,153.140646,133.998066,-9437.292334
523.839047,229.710970,76.570323,-9456.434915
523.839675,229.710970,19.142581,-9418.149754
523.840302,153.140646,95.712904,-9284.151688
523.840930,172.283227,114.855485,-9379.864592
523.841557,57.427742,133.998066,-9341.579430
523.842185,57.427742,229.710970,-9418.149754
523.842812,57.427742,229.710970,-9418.149754
523.843440,-19.142581,191.425808,-9552.147819
523.844067,57.427742,191.425808,-9552.147819
523.844695,76.570323,191.425808,-9552.147819
523.845323,172.283227,133.998066,-9475.577496
523.845950,172.283227,57.427742,-9456.434915
523.846578,191.425808,76.570323,-9360.722011
523.847205,191.425808,114.855485,-9322.436850
523.847833,191.425808,114.855485,-9265.009107
523.848460,153.140646,76.570323,-9360.722011
523.849088,95.712904,210.568389,-9341.579430
523.849716,57.427742,248.853550,-9284.151688
523.850343,19.142581,287.138712,-9437.292334
523.850971,38.285162,229.710970,-9475.577496
523.851598,57.427742,229.710970,-9475.577496
523.852226,114.855485,191.425808,-9533.005238
523.852853,76.570323,114.855485,-9533.005238
523.853481,153.140646,38.285162,-9533.005238
523.854108,191.425808,57.427742,-9418.149754
523.854736,210.568389,95.712904,-9341.579430
523.855364,133.998066,95.712904,-9360.722011
523.855991,95.712904,95.712904,-9399.007173
523.856619,38.285162,95.712904,-9322.436850
523.857246,38.285162,210.568389,-9418.149754
523.857874,-38.285162,191.425808,-9513.862658
523.858501,38.285162,229.710970,-9533.005238
523.859129,95.712904,248.853550,-9552.147819
523.859757,153.140646,191.425808,-9494.720077
523.860384,114.855485,133.998066,-9552.147819
523.861012,191.425808,76.570323,-9456.434915
523.861639,229.710970,76.570323,-9418.149754
523.862267,191.425808,114.855485,-9265.009107
523.862894,172.283227,114.855485,-9284.151688
523.863522,95.712904,133.998066,-9303.294269
523.864149,76.570323,248.853550,-9360.722011
523.864777,95.712904,248.853550,-9418.149754
523.865405,57.427742,306.281293,-9494.720077
523.866032,38.285162,210.568389,-9494.720077
523.866660,19.142581,191.425808,-9571.290400
523.867287,76.570323,133.998066,-9552.147819
523.867915,172.283227,95.712904,-9494.720077
523.868542,191.425808,76.570323,-9360.722011
523.869170,114.855485,0.000000,-9379.864592
523.869797,153.140646,38.285162,-9341.579430
523.870425,133.998066,76.570323,-9379.864592
523.871053,76.570323,191.425808,-9360.722011
523.871680,38.285162,229.710970,-9418.149754
523.872308,19.142581,229.710970,-9437.292334
523.872935,-76.570323,267.996131,-9475.577496
523.873563,19.142581,172.283227,-9513.862658
523.874190,114.855485,153.140646,-9552.147819
523.874818,191.425808,153.140646,-9513.862658
523.875446,153.140646,133.998066,-9494.720077
523.876073,191.425808,19.142581,-9418.149754
523.876701,210.568389,95.712904,-9284.151688
523.877328,172.283227,114.855485,-9284.151688
523.877956,57.427742,153.140646,-9245.866526
523.878583,76.570323,172.283227,-9226.723946
523.879211,38.285162,267.996131,-9379.864592
523.879838,-19.142581,267.996131,-9437.292334
523.880466,-76.570323,267.996131,-9533.005238
523.881094,38.285162,210.568389,-9533.005238
523.881721,76.570323,114.855485,-9533.005238
523.882349,76.570323,95.712904,-9494.720077
523.882976,172.283227,76.570323,-9418.149754
523.883604,172.283227,38.285162,-9399.007173
523.884231,153.140646,95.712904,-9360.722011
523.884859,114.855485,133.998066,-9341.579430
523.885487,57.427742,95.712904,-9399.007173
523.886114,57.427742,153.140646,-9360.722011
523.886742,38.285162,229.710970,-9418.149754
523.887369,-19.142581,267.996131,-9533.005238
523.887997,-38.285162,248.853550,-9513.862658
523.888624,19.142581,210.568389,-9533.005238
523.889252,133.998066,172.283227,-9533.005238
523.889879,133.998066,114.855485,-9456.434915
523.890507,172.283227,76.570323,-9360.722011
523.891135,153.140646,57.427742,-9322.436850
523.891762,248.853550,95.712904,-9245.866526
523.892390,95.712904,133.998066,-9245.866526
523.893017,114.855485,133.998066,-9245.866526
523.893645,76.570323,210.568389,-9418.149754
523.894272,-38.285162,210.568389,-9399.007173
523.894900,-57.427742,248.853550,-9494.720077
523.895527,-19.142581,210.568389,-9571.290400
523.896155,114.855485,172.283227,-9552.147819
523.896783,133.998066,133.998066,-9494.720077
523.897410,114.855485,95.712904,-9513.862658
523.898038,191.425808,38.285162,-9456.434915
523.898665,248.853550,95.712904,-9341.579430
523.899293,210.568389,95.712904,-9360.722011
523.899920,133.998066,76.570323,-9322.436850
523.900548,57.427742,153.140646,-9341.579430
523.901176,57.427742,172.283227,-9360.722011
523.901803,0.000000,287.138712,-9399.007173
523.902431,38.285162,267.996131,-9571.290400
523.903058,-38.285162,210.568389,-9552.147819
523.903686,95.712904,114.855485,-9456.434915
523.904313,133.998066,114.855485,-9494.720077
523.904941,191.425808,76.570323,-9456.434915
523.905568,248.853550,114.855485,-9322.436850
523.906196,153.140646,38.285162,-9265.009107
523.906824,153.140646,95.712904,-9245.866526
523.907451,95.712904,153.140646,-9245.866526
523.908079,114.855485,210.568389,-9379.864592
523.908706,57.427742,248.853550,-9360.722011
523.909334,95.712904,248.853550,-9552.147819
523.909961,0.000000,191.425808,-9552.147819
523.910589,57.427742,172.283227,-9552.147819
523.911217,114.855485,133.998066,-9552.147819
523.911844,172.283227,76.570323,-9533.005238
523.912472,248.853550,133.998066,-9494.720077
523.913099,172.283227,38.285162,-9418.149754
523.913727,153.140646,57.427742,-9245.866526
523.914354,133.998066,95.712904,-9341.579430
523.914982,0.000000,133.998066,-9341.579430
523.915609,38.285162,172.283227,-9418.149754
523.916237,0.000000,133.998066,-9360.722011
523.916865,-19.142581,267.996131,-9475.577496
523.917492,57.427742,191.425808,-9552.147819
523.918120,57.427742,172.283227,-9552.147819
523.918747,133.998066,210.568389,-9533.005238
523.919375,191.425808,114.855485,-9513.862658
523.920002,210.568389,133.998066,-9399.007173
523.920630,267.996131,57.427742,-9284.151688
523.921257,191.425808,114.855485,-9303.294269
523.921885,133.998066,76.570323,-9265.009107
523.922513,38.285162,191.425808,-9303.294269
523.923140,95.712904,191.425808,-9303.294269
523.923768,57.427742,267.996131,-9399.007173
523.924395,-19.142581,267.996131,-9533.005238
523.925023,0.000000,191.425808,-9552.147819
523.925650,57.427742,133.998066,-9647.860723
523.926278,133.998066,114.855485,-9533.005238
523.926906,172.283227,38.285162,-9494.720077
523.927533,191.425808,38.285162,-9456.434915
523.928161,153.140646,95.712904,-9360.722011
523.928788,114.855485,133.998066,-9303.294269
523.929416,0.000000,133.998066,-9341.579430
523.930044,114.855485,114.855485,-9322.436850
523.930671,76.570323,153.140646,-9360.722011
523.931299,-19.142581,267.996131,-9494.720077
523.931927,0.000000,325.423874,-9533.005238
523.932554,38.285162,229.710970,-9533.005238
523.933182,114.855485,210.568389,-9552.147819
523.933809,133.998066,114.855485,-9533.005238
523.934437,210.568389,95.712904,-9360.722011
523.935065,248.853550,95.712904,-9284.151688
523.935692,248.853550,95.712904,-9341.579430
523.936320,172.283227,114.855485,-9303.294269
523.936948,76.570323,76.570323,-9379.864592
523.937575,114.855485,153.140646,-9360.722011
523.938203,57.427742,210.568389,-9418.149754
523.938830,0.000000,248.853550,-9552.147819
523.939458,-38.285162,287.138712,-9552.147819
523.940086,95.712904,172.283227,-9552.147819
523.940713,114.855485,133.998066,-9552.147819
523.941341,133.998066,76.570323,-9571.290400
523.941969,191.425808,76.570323,-9418.149754
523.942596,191.425808,19.142581,-9418.149754
523.943224,191.425808,76.570323,-9341.579430
523.943851,133.998066,95.712904,-9245.866526
523.944479,95.712904,153.140646,-9341.579430
523.945107,38.285162,248.853550,-9360.722011
523.945734,19.142581,229.710970,-9437.292334
523.946362,0.000000,287.138712,-9494.720077
523.946990,19.142581,210.568389,-9475.577496
523.947617,57.427742,172.283227,-9552.147819
523.948245,133.998066,172.283227,-9494.720077
523.948872,133.998066,114.855485,-9456.434915
523.949500,191.425808,57.427742,-9456.434915
523.950128,267.996131,95.712904,-9284.151688
523.950755,172.283227,114.855485,-9265.009107
523.951383,95.712904,133.998066,-9245.866526
523.952010,95.712904,248.853550,-9322.436850
523.952638,19.142581,229.710970,-9418.149754
523.953266,19.142581,229.710970,-9533.005238
523.953893,0.000000,248.853550,-9609.575562
523.954521,57.427742,172.283227,-9552.147819
523.955149,57.427742,172.283227,-9552.147819
523.955776,153.140646,95.712904,-9552.147819
523.956404,191.425808,38.285162,-9475.577496
523.957031,191.425808,57.427742,-9418.149754
523.957659,153.140646,38.285162,-9341.579430
523.958287,153.140646,114.855485,-9341.579430
523.958914,95.712904,153.140646,-9245.866526
523.959542,19.142581,248.853550,-9341.579430
523.960170,76.570323,229.710970,-9418.149754
523.960797,19.142581,229.710970,-9418.149754
523.961425,-38.285162,267.996131,-9494.720077
523.962052,76.570323,210.568389,-9533.005238
523.962680,172.283227,114.855485,-9571.290400
523.963308,133.998066,114.855485,-9475.577496
523.963935,191.425808,114.855485,-9379.864592
523.964563,248.853550,95.712904,-9360.722011
523.965191,153.140646,95.712904,-9341.579430
523.965818,114.855485,114.855485,-9265.009107
523.966446,38.285162,133.998066,-9284.151688
523.967073,38.285162,172.283227,-9418.149754
523.967701,57.427742,287.138712,-9494.720077
523.968329,-38.285162,191.425808,-9475.577496
523.968956,-38.285162,191.425808,-9513.862658
523.969584,57.427742,153.140646,-9552.147819
523.970212,133.998066,114.855485,-9533.005238
523.970839,133.998066,114.855485,-9475.577496
523.971467,114.855485,57.427742,-9399.007173
523.972094,172.283227,95.712904,-9399.007173
523.972722,210.568389,114.855485,-9284.151688
523.973350,172.283227,114.855485,-9303.294269
523.973977,95.712904,133.998066,-9322.436850
523.974605,0.000000,248.853550,-9360.722011
523.975233,-38.285162,267.996131,-9379.864592
523.975860,-76.570323,267.996131,-9437.292334
523.976488,19.142581,229.710970,-9552.147819
523.977115,114.855485,210.568389,-9513.862658
523.977743,153.140646,114.855485,-9533.005238
523.978371,191.425808,76.570323,-9475.577496
523.978998,248.853550,76.570323,-9418.149754
523.979626,210.568389,95.712904,-9360.722011
523.980253,76.570323,76.570323,-9341.579430
523.980881,76.570323,76.570323,-9322.436850
523.981509,57.427742,172.283227,-9360.722011
523.982136,76.570323,191.425808,-9418.149754
523.982764,-76.570323,191.425808,-9571.290400
523.983392,19.142581,210.568389,-9552.147819
523.984019,38.285162,133.998066,-9552.147819
523.984647,38.285162,114.855485,-9533.005238
523.985274,210.568389,114.855485,-9571.290400
523.985902,172.283227,76.570323,-9360.722011
523.986530,248.853550,95.712904,-9360.722011
523.987157,229.710970,114.855485,-9303.294269
523.987785,153.140646,57.427742,-9245.866526
523.988413,76.570323,133.998066,-9303.294269
523.989040,133.998066,210.568389,-9245.866526
523.989668,-38.285162,267.996131,-9341.579430
523.990295,57.427742,287.138712,-9456.434915
523.990923,-19.142581,267.996131,-9533.005238
523.991551,38.285162,191.425808,-9513.862658
523.992178,114.855485,210.568389,-9533.005238
523.992806,172.283227,133.998066,-9533.005238
523.993434,153.140646,95.712904,-9360.722011
523.994061,191.425808,57.427742,-9418.149754
523.994689,191.425808,76.570323,-9360.722011
523.995316,133.998066,76.570323,-9379.864592
523.995944,133.998066,114.855485,-9341.579430
523.996572,38.285162,248.853550,-9360.722011
523.997199,19.142581,153.140646,-9437.292334
523.997827,-38.285162,248.853550,-9513.862658
523.998455,-76.570323,153.140646,-9571.290400
523.999082,57.427742,133.998066,-9552.147819
523.999710,95.712904,114.855485,-9533.005238
524.000337,172.283227,114.855485,-9494.720077
524.000965,153.140646,57.427742,-9379.864592
524.001593,172.283227,0.000000,-9379.864592
524.002220,172.283227,114.855485,-9379.864592
524.002848,95.712904,153.140646,-9245.866526
524.003476,57.427742,248.853550,-9245.866526
524.004103,0.000000,248.853550,-9360.722011
524.004731,0.000000,287.138712,-9456.434915
524.005358,0.000000,325.423874,-9494.720077
524.005986,19.142581,191.425808,-9533.005238
524.006614,19.142581,133.998066,-9513.862658
524.007241,153.140646,133.998066,-9475.577496
524.007869,172.283227,76.570323,-9437.292334
524.008496,191.425808,57.427742,-9418.149754
524.009124,229.710970,57.427742,-9360.722011
524.009752,95.712904,133.998066,-9303.294269
524.010379,38.285162,76.570323,-9322.436850
524.011007,57.427742,133.998066,-9341.579430
524.011635,38.285162,210.568389,-9437.292334
524.012262,-57.427742,191.425808,-9456.434915
524.012890,19.142581,248.853550,-9513.862658
524.013517,19.142581,248.853550,-9609.575562
524.014145,114.855485,172.283227,-9552.147819
524.014773,114.855485,133.998066,-9552.147819
524.015400,172.283227,76.570323,-9456.434915
524.016028,229.710970,76.570323,-9360.722011
524.016656,153.140646,95.712904,-9284.151688
524.017283,133.998066,95.712904,-9245.866526
524.017911,57.427742,153.140646,-9284.151688
524.018538,57.427742,191.425808,-9341.579430
524.019166,0.000000,248.853550,-9360.722011
524.019794,38.285162,287.138712,-9418.149754
524.020421,0.000000,248.853550,-9552.147819
524.021049,57.427742,133.998066,-9552.147819
524.021677,153.140646,114.855485,-9475.577496
524.022304,191.425808,95.712904,-9552.147819
524.022932,229.710970,57.427742,-9418.149754
524.023559,191.425808,76.570323,-9360.722011
524.024187,153.140646,95.712904,-9284.151688
524.024815,133.998066,38.285162,-9360.722011
524.025442,38.285162,133.998066,-9303.294269
524.026070,38.285162,229.710970,-9418.149754
524.026698,19.142581,229.710970,-9437.292334
524.027325,-38.285162,248.853550,-9513.862658
524.027953,57.427742,191.425808,-9552.147819
524.028580,95.712904,172.283227,-9533.005238
524.029208,133.998066,114.855485,-9475.577496
524.029836,172.283227,76.570323,-9418.149754
524.030463,210.568389,95.712904,-9303.294269
524.031091,191.425808,114.855485,-9322.436850
524.031719,191.425808,114.855485,-9284.151688
524.032346,95.712904,191.425808,-9341.579430
524.032974,114.855485,153.140646,-9303.294269
524.033601,95.712904,267.996131,-9360.722011
524.034229,57.427742,229.710970,-9418.149754
524.034857,57.427742,287.138712,-9513.862658
524.035484,0.000000,191.425808,-9552.147819
524.036112,114.855485,133.998066,-9552.147819
524.036739,172.283227,76.570323,-9533.005238
524.037367,114.855485,38.285162,-9437.292334
524.037994,172.283227,57.427742,-9437.292334
524.038622,191.425808,0.000000,-9303.294269
524.039250,153.140646,95.712904,-9303.294269
524.039877,76.570323,114.855485,-9418.149754
524.040505,57.427742,153.140646,-9322.436850
524.041132,38.285162,229.710970,-9437.292334
524.041760,19.142581,248.853550,-9513.862658
524.042388,0.000000,248.853550,-9475.577496
524.043015,95.712904,153.140646,-9533.005238
524.043643,114.855485,172.283227,-9533.005238
524.044270,153.140646,133.998066,-9437.292334
524.044898,172.283227,76.570323,-9360.722011
524.045526,153.140646,95.712904,-9341.579430
524.046153,133.998066,76.570323,-9303.294269
524.046781,95.712904,133.998066,-9245.866526
524.047408,114.855485,133.998066,-9360.722011
524.048036,57.427742,210.568389,-9418.149754
524.048664,19.142581,210.568389,-9437.292334
524.049291,0.000000,287.138712,-9494.720077
524.049919,57.427742,191.425808,-9609.575562
524.050546,95.712904,133.998066,-9552.147819
524.051174,114.855485,133.998066,-9552.147819
524.051802,153.140646,57.427742,-9571.290400
524.052429,172.283227,76.570323,-9418.149754
524.053057,210.568389,95.712904,-9341.579430
524.053684,191.425808,95.712904,-9341.579430
524.054312,133.998066,133.998066,-9379.864592
524.054940,95.712904,133.998066,-9341.579430
524.055567,38.285162,229.710970,-9418.149754
524.056195,76.570323,287.138712,-9475.577496
524.056822,-38.285162,191.425808,-9475.577496
524.057450,57.427742,191.425808,-9552.147819
524.058078,95.712904,153.140646,-9533.005238
524.058705,133.998066,172.283227,-9533.005238
524.059333,133.998066,114.855485,-9418.149754
524.059960,153.140646,0.000000,-9360.722011
524.060588,191.425808,153.140646,-9284.151688
524.061216,153.140646,95.712904,-9245.866526
524.061843,57.427742,153.140646,-9284.151688
524.062471,38.285162,248.853550,-9341.579430
524.063098,0.000000,191.425808,-9379.864592
524.063726,-38.285162,248.853550,-9513.862658
524.064354,0.000000,248.853550,-9590.432981
524.064981,76.570323,114.855485,-9533.005238
524.065609,114.855485,76.570323,-9533.005238
524.066236,114.855485,95.712904,-9513.862658
524.066864,191.425808,76.570323,-9456.434915
524.067491,191.425808,38.285162,-9418.149754
524.068119,210.568389,95.712904,-9284.151688
524.068747,114.855485,114.855485,-9379.864592
524.069374,114.855485,191.425808,-9379.864592
524.070002,57.427742,191.425808,-9360.722011
524.070629,95.712904,287.138712,-9399.007173
524.071257,0.000000,287.138712,-9399.007173
524.071885,19.142581,229.710970,-9475.577496
524.072512,19.142581,172.283227,-9513.862658
524.073140,76.570323,153.140646,-9456.434915
524.073767,114.855485,95.712904,-9399.007173
524.074395,153.140646,133.998066,-9399.007173
524.075023,210.568389,95.712904,-9360.722011
524.075650,191.425808,38.285162,-9341.579430
524.076278,133.998066,76.570323,-9265.009107
524.076905,95.712904,133.998066,-9245.866526
524.077533,95.712904,191.425808,-9360.722011
524.078161,38.285162,229.710970,-9475.577496
524.078788,95.712904,287.138712,-9513.862658
524.079416,0.000000,248.853550,-9552.147819
524.080043,57.427742,133.998066,-9552.147819
524.080671,153.140646,133.998066,-9475.577496
524.081299,114.855485,95.712904,-9494.720077
524.081926,153.140646,133.998066,-9399.007173
524.082554,229.710970,57.427742,-9360.722011
524.083181,210.568389,114.855485,-9303.294269
524.083809,114.855485,133.998066,-9303.294269
524.084437,95.712904,248.853550,-9360.722011
524.085064,95.712904,229.710970,-9418.149754
524.085692,38.285162,210.568389,-9437.292334
524.086319,19.142581,267.996131,-9513.862658
524.086947,57.427742,191.425808,-9552.147819
524.087575,76.570323,191.425808,-9552.147819
524.088202,133.998066,153.140646,-9475.577496
524.088830,172.283227,38.285162,-9418.149754
524.089457,210.568389,95.712904,-9360.722011
524.090085,229.710970,76.570323,-9360.722011
524.090713,210.568389,95.712904,-9341.579430
524.091340,95.712904,114.855485,-9379.864592
524.091968,57.427742,191.425808,-9360.722011
524.092595,76.570323,210.568389,-9418.149754
524.093223,0.000000,229.710970,-9513.862658
524.093851,38.285162,229.710970,-9533.005238
524.094478,95.712904,172.283227,-9552.147819
524.095106,76.570323,133.998066,-9552.147819
524.095733,114.855485,133.998066,-9475.577496
524.096361,172.283227,76.570323,-9456.434915
524.096989,210.568389,57.427742,-9418.149754
524.097616,153.140646,38.285162,-9341.579430
524.098244,191.425808,114.855485,-9303.294269
524.098871,114.855485,210.568389,-9284.151688
524.099499,95.712904,191.425808,-9303.294269
524.100126,57.427742,248.853550,-9418.149754
524.100754,-38.285162,267.996131,-9456.434915
524.101382,19.142581,229.710970,-9533.005238
524.102009,76.570323,248.853550,-9552.147819
524.102637,114.855485,133.998066,-9475.577496
524.103264,133.998066,133.998066,-9494.720077
524.103892,133.998066,114.855485,-9418.149754
524.104520,210.568389,38.285162,-9245.866526
524.105147,210.568389,114.855485,-9379.864592
524.105775,114.855485,133.998066,-9303.294269
524.106402,95.712904,133.998066,-9284.151688
524.107030,95.712904,191.425808,-9360.722011
524.107658,57.427742,210.568389,-9494.720077
524.108285,0.000000,248.853550,-9552.147819
524.108913,57.427742,153.140646,-9552.147819
524.109540,114.855485,172.283227,-9552.147819
524.110168,114.855485,172.283227,-9533.005238
524.110796,114.855485,38.285162,-9437.292334
524.111423,153.140646,38.285162,-9360.722011
524.112051,133.998066,76.570323,-9379.864592
524.112678,153.140646,95.712904,-9303.294269
524.113306,19.142581,76.570323,-9322.436850
524.113934,57.427742,248.853550,-9322.436850
524.114561,95.712904,287.138712,-9399.007173
524.115189,0.000000,287.138712,-9399.007173
524.115816,0.000000,325.423874,-9513.862658
524.116444,38.285162,325.423874,-9571.290400
524.117072,114.855485,191.425808,-9552.147819
524.117699,133.998066,114.855485,-9494.720077
524.118327,248.853550,95.712904,-9533.005238
524.118954,210.568389,133.998066,-9399.007173
524.119582,114.855485,114.855485,-9322.436850
524.120210,153.140646,95.712904,-9341.579430
524.120837,76.570323,76.570323,-9322.436850
524.121465,57.427742,153.140646,-9322.436850
524.122092,0.000000,248.853550,-9360.722011
524.122720,19.142581,172.283227,-9437.292334
524.123348,0.000000,153.140646,-9552.147819
524.123975,95.712904,172.283227,-9552.147819
524.124603,172.283227,133.998066,-9552.147819
524.125230,153.140646,133.998066,-9513.862658
524.125858,172.283227,57.427742,-9418.149754
524.126486,210.568389,38.285162,-9360.722011
524.127113,172.283227,114.855485,-9322.436850
524.127741,133.998066,95.712904,-9245.866526
524.128368,95.712904,153.140646,-9245.866526
524.128996,95.712904,172.283227,-9322.436850
524.129623,0.000000,287.138712,-9399.007173
524.130251,38.285162,287.138712,-9456.434915
524.130878,57.427742,287.138712,-9513.862658
524.131506,95.712904,153.140646,-9533.005238
524.132134,95.712904,133.998066,-9533.005238
524.132761,76.570323,95.712904,-9513.862658
524.133389,114.855485,57.427742,-9399.007173
524.134016,210.568389,95.712904,-9341.579430
524.134644,210.568389,57.427742,-9360.722011
524.135271,153.140646,95.712904,-9418.149754
524.135899,76.570323,172.283227,-9418.149754
524.136526,19.142581,191.425808,-9418.149754
524.137154,19.142581,210.568389,-9437.292334
524.137781,-38.285162,191.425808,-9475.577496
524.138409,-19.142581,153.140646,-9590.432981
524.139037,114.855485,172.283227,-9552.147819
524.139664,76.570323,114.855485,-9533.005238
524.140292,153.140646,114.855485,-9456.434915
524.140919,153.140646,95.712904,-9341.579430
524.141547,210.568389,57.427742,-9245.866526
524.142174,133.998066,76.570323,-9265.009107
524.142802,95.712904,133.998066,-9341.579430
524.143429,114.855485,191.425808,-9245.866526
524.144057,57.427742,248.853550,-9322.436850
524.144685,57.427742,229.710970,-9437.292334
524.145312,38.285162,229.710970,-9533.005238
524.145940,76.570323,210.568389,-9533.005238
524.146567,114.855485,133.998066,-9552.147819
524.147195,153.140646,133.998066,-9513.862658
524.147822,191.425808,76.570323,-9475.577496
524.148450,172.283227,76.570323,-9418.149754
524.149077,191.425808,38.285162,-9303.294269
524.149705,133.998066,57.427742,-9360.722011
524.150332,57.427742,95.712904,-9399.007173
524.150960,95.712904,153.140646,-9360.722011
524.151588,-19.142581,210.568389,-9399.007173
524.152215,-19.142581,267.996131,-9494.720077
524.152843,57.427742,191.425808,-9552.147819
524.153470,133.998066,153.140646,-9552.147819
524.154098,95.712904,153.140646,-9533.005238
524.154725,76.570323,114.855485,-9475.577496
524.155353,210.568389,133.998066,-9456.434915
524.155980,248.853550,133.998066,-9399.007173
524.156608,172.283227,114.855485,-9265.009107
524.157236,76.570323,76.570323,-9265.009107
524.157863,95.712904,210.568389,-9284.151688
524.158491,57.427742,248.853550,-9341.579430
524.159118,38.285162,325.423874,-9379.864592
524.159746,-38.285162,267.996131,-9513.862658
524.160373,57.427742,248.853550,-9552.147819
524.161001,114.855485,210.568389,-9513.862658
524.161628,172.283227,114.855485,-9571.290400
524.162256,133.998066,76.570323,-9513.862658
524.162883,191.425808,76.570323,-9437.292334
524.163511,287.138712,76.570323,-9360.722011
524.164139,210.568389,95.712904,-9341.579430
524.164766,153.140646,95.712904,-9360.722011
524.165394,172.283227,153.140646,-9379.864592
524.166021,38.285162,153.140646,-9418.149754
524.166649,19.142581,210.568389,-9475.577496
524.167276,-19.142581,287.138712,-9513.862658
524.167904,57.427742,191.425808,-9533.005238
524.168531,95.712904,133.998066,-9552.147819
524.169159,133.998066,114.855485,-9475.577496
524.169787,172.283227,76.570323,-9418.149754
524.170414,191.425808,76.570323,-9360.722011
524.171042,210.568389,95.712904,-9341.579430
524.171669,153.140646,95.712904,-9245.866526
524.172297,57.427742,191.425808,-9284.151688
524.172924,0.000000,248.853550,-9303.294269
524.173552,19.142581,267.996131,-9379.864592
524.174179,19.142581,229.710970,-9533.005238
524.174807,57.427742,248.853550,-9609.575562
524.175434,57.427742,248.853550,-9609.575562
524.176062,172.283227,133.998066,-9552.147819
524.176690,133.998066,114.855485,-9456.434915
524.177317,172.283227,76.570323,-9456.434915
524.177945,172.283227,76.570323,-9418.149754
524.178572,248.853550,57.427742,-9322.436850
524.179200,153.140646,57.427742,-9303.294269
524.179827,38.285162,76.570323,-9322.436850
524.180455,57.427742,153.140646,-9360.722011
524.181082,19.142581,172.283227,-9418.149754
524.181710,19.142581,229.710970,-9494.720077
524.182338,19.142581,210.568389,-9533.005238
524.182965,57.427742,191.425808,-9552.147819
524.183593,133.998066,114.855485,-9533.005238
524.184220,133.998066,76.570323,-9513.862658
524.184848,210.568389,133.998066,-9418.149754
524.185475,248.853550,19.142581,-9341.579430
524.186103,248.853550,95.712904,-9245.866526
524.186730,114.855485,114.855485,-9265.009107
524.187358,114.855485,133.998066,-9245.866526
524.187985,38.285162,210.568389,-9418.149754
524.188613,38.285162,229.710970,-9437.292334
524.189241,19.142581,229.710970,-9533.005238
524.189868,38.285162,210.568389,-9533.005238
524.190496,57.427742,172.283227,-9647.860723
524.191123,95.712904,133.998066,-9533.005238
524.191751,172.283227,57.427742,-9475.577496
524.192378,229.710970,19.142581,-9456.434915
524.193006,191.425808,57.427742,-9456.434915
524.193633,191.425808,95.712904,-9341.579430
524.194261,133.998066,95.712904,-9341.579430
524.194889,38.285162,210.568389,-9341.579430
524.195516,76.570323,191.425808,-9418.149754
524.196144,38.285162,210.568389,-9456.434915
524.196771,57.427742,287.138712,-9475.577496
524.197399,57.427742,248.853550,-9552.147819
524.198026,114.855485,153.140646,-9552.147819
524.198654,133.998066,153.140646,-9437.292334
524.199281,153.140646,133.998066,-9399.007173
524.199909,133.998066,57.427742,-9379.864592
524.200536,153.140646,95.712904,-9284.151688
524.201164,210.568389,114.855485,-9265.009107
524.201792,95.712904,133.998066,-9341.579430
524.202419,95.712904,191.425808,-9360.722011
524.203047,38.285162,248.853550,-9360.722011
524.203674,-19.142581,248.853550,-9437.292334
524.204302,0.000000,287.138712,-9513.862658
524.204929,57.427742,248.853550,-9552.147819
524.205557,114.855485,153.140646,-9552.147819
524.206184,114.855485,38.285162,-9513.862658
524.206812,191.425808,76.570323,-9456.434915
524.207440,191.425808,57.427742,-9418.149754
524.208067,133.998066,76.570323,-9322.436850
524.208695,133.998066,95.712904,-9360.722011
524.209322,57.427742,153.140646,-9341.579430
524.209950,57.427742,172.283227,-9360.722011
524.210577,76.570323,210.568389,-9418.149754
524.211205,38.285162,229.710970,-9533.005238
524.211832,57.427742,287.138712,-9456.434915
524.212460,95.712904,191.425808,-9533.005238
524.213087,114.855485,133.998066,-9533.005238
524.213715,172.283227,95.712904,-9513.862658
524.214343,191.425808,76.570323,-9418.149754
524.214970,153.140646,95.712904,-9341.579430
524.215598,210.568389,114.855485,-9265.009107
524.216225,153.140646,95.712904,-9303.294269
524.216853,95.712904,210.568389,-9284.151688
524.217480,114.855485,229.710970,-9341.579430
524.218108,38.285162,229.710970,-9418.149754
524.218735,0.000000,229.710970,-9571.290400
524.219363,19.142581,229.710970,-9533.005238
524.219991,38.285162,172.283227,-9533.005238
524.220618,172.283227,153.140646,-9571.290400
524.221246,172.283227,114.855485,-9513.862658
524.221873,172.283227,76.570323,-9418.149754
524.222501,210.568389,57.427742,-9284.151688
524.223128,153.140646,95.712904,-9322.436850
524.223756,76.570323,76.570323,-9379.864592
524.224383,0.000000,172.283227,-9360.722011
524.225011,95.712904,248.853550,-9360.722011
524.225638,76.570323,229.710970,-9437.292334
524.226266,57.427742,287.138712,-9494.720077
524.226894,57.427742,287.138712,-9513.862658
524.227521,95.712904,172.283227,-9552.147819
524.228149,191.425808,76.570323,-9533.005238
524.228776,95.712904,133.998066,-9533.005238
524.229404,172.283227,57.427742,-9418.149754
