#time,accel_x,accel_y,accel_z
421.027545,95.712904,229.710970,-9399.007173
421.028172,95.712904,191.425808,-9360.722011
421.028799,76.570323,172.283227,-9341.579430
421.029425,0.000000,191.425808,-9341.579430
421.030052,19.142581,229.710970,-9418.149754
421.030678,-38.285162,153.140646,-9399.007173
421.031305,38.285162,172.283227,-9360.722011
421.031931,38.285162,114.855485,-9475.577496
421.032558,133.998066,133.998066,-9456.434915
421.033184,133.998066,133.998066,-9494.720077
421.033811,248.853550,133.998066,-9437.292334
421.034437,248.853550,95.712904,-9533.005238
421.035064,210.568389,133.998066,-9399.007173
421.035691,133.998066,114.855485,-9475.577496
421.036317,172.283227,95.712904,-9399.007173
421.036944,153.140646,153.140646,-9437.292334
421.037570,38.285162,210.568389,-9360.722011
421.038197,38.285162,172.283227,-9418.149754
421.038823,76.570323,210.568389,-9245.866526
421.039450,0.000000,248.853550,-9341.579430
421.040076,57.427742,153.140646,-9418.149754
421.040703,95.712904,191.425808,-9360.722011
421.041329,0.000000,172.283227,-9360.722011
421.041956,133.998066,114.855485,-9418.149754
421.042583,133.998066,153.140646,-9456.434915
421.043209,172.283227,76.570323,-9418.149754
421.043836,248.853550,133.998066,-9456.434915
421.044462,172.283227,95.712904,-9513.862658
421.045089,172.283227,76.570323,-9533.005238
421.045715,248.853550,76.570323,-9456.434915
421.046342,153.140646,210.568389,-9437.292334
421.046968,76.570323,153.140646,-9437.292334
421.047595,19.142581,210.568389,-9418.149754
421.048221,57.427742,153.140646,-9341.579430
421.048848,57.427742,172.283227,-9360.722011
421.049475,19.142581,229.710970,-9418.149754
421.050101,38.285162,153.140646,-9360.722011
421.050728,95.712904,153.140646,-9341.579430
421.051354,19.142581,172.283227,-9456.434915
421.051981,95.712904,95.712904,-9399.007173
421.052607,114.855485,95.712904,-9475.577496
421.053234,172.283227,76.570323,-9456.434915
421.053860,172.283227,38.285162,-9533.005238
421.054487,172.283227,95.712904,-9513.862658
421.055113,248.853550,133.998066,-9494.720077
421.055740,210.568389,133.998066,-9494.720077
421.056367,153.140646,172.283227,-9494.720077
421.056993,95.712904,95.712904,-9379.864592
421.057620,95.712904,133.998066,-9360.722011
421.058246,57.427742,210.568389,-9418.149754
421.058873,19.142581,210.568389,-9418.149754
421.059499,38.285162,153.140646,-9418.149754
421.060126,19.142581,191.425808,-9399.007173
421.060752,57.427742,191.425808,-9360.722011
421.061379,57.427742,95.712904,-9437.292334
421.062005,57.427742,95.712904,-9494.720077
421.062632,114.855485,95.712904,-9494.720077
421.063259,210.568389,76.570323,-9533.005238
421.063885,114.855485,76.570323,-9533.005238
421.064512,172.283227,95.712904,-9456.434915
421.065138,172.283227,76.570323,-9475.577496
421.065765,153.140646,153.140646,-9456.434915
421.066391,76.570323,114.855485,-9418.149754
421.067018,38.285162,114.855485,-9418.149754
421.067644,76.570323,210.568389,-9360.722011
421.068271,57.427742,191.425808,-9360.722011
421.068897,0.000000,248.853550,-9418.149754
421.069524,-19.142581,210.568389,-9379.864592
421.070151,57.427742,133.998066,-9341.579430
421.070777,76.570323,172.283227,-9360.722011
421.071404,114.855485,95.712904,-9475.577496
421.072030,114.855485,95.712904,-9399.007173
421.072657,172.283227,76.570323,-9475.577496
421.073283,172.283227,76.570323,-9475.577496
421.073910,229.710970,38.285162,-9475.577496
421.074536,191.425808,76.570323,-9475.577496
421.075163,153.140646,95.712904,-9475.577496
421.075789,153.140646,153.140646,-9494.720077
421.076416,76.570323,114.855485,-9418.149754
421.077042,19.142581,114.855485,-9418.149754
421.077669,0.000000,210.568389,-9341.579430
421.078296,76.570323,210.568389,-9418.149754
421.078922,38.285162,210.568389,-9360.722011
421.079549,-38.285162,114.855485,-9418.149754
421.080175,76.570323,172.283227,-9418.149754
421.080802,95.712904,133.998066,-9418.149754
421.081428,76.570323,114.855485,-9418.149754
421.082055,153.140646,133.998066,-9456.434915
421.082681,210.568389,95.712904,-9552.147819
421.083308,229.710970,38.285162,-9475.577496
421.083935,210.568389,95.712904,-9552.147819
421.084561,191.425808,76.570323,-9533.005238
421.085188,210.568389,76.570323,-9456.434915
421.085815,153.140646,133.998066,-9399.007173
421.086441,153.140646,153.140646,-9399.007173
421.087068,76.570323,248.853550,-9399.007173
421.087694,95.712904,191.425808,-9341.579430
421.088321,38.285162,172.283227,-9418.149754
421.088948,38.285162,172.283227,-9418.149754
421.089574,76.570323,153.140646,-9418.149754
421.090201,76.570323,229.710970,-9418.149754
421.090828,38.285162,114.855485,-9456.434915
421.091454,95.712904,153.140646,-9437.292334
421.092081,153.140646,114.855485,-9533.005238
421.092708,191.425808,153.140646,-9475.577496
421.093334,172.283227,95.712904,-9571.290400
421.093961,229.710970,76.570323,-9475.577496
421.094587,191.425808,76.570323,-9533.005238
421.095214,210.568389,76.570323,-9456.434915
421.095841,95.712904,172.283227,-9418.149754
421.096467,57.427742,172.283227,-9456.434915
421.097094,133.998066,172.283227,-9399.007173
421.097721,95.712904,191.425808,-9341.579430
421.098347,76.570323,267.996131,-9322.436850
421.098974,-19.142581,172.283227,-9360.722011
421.099600,-38.285162,133.998066,-9399.007173
421.100227,38.285162,191.425808,-9360.722011
421.100854,38.285162,153.140646,-9437.292334
421.101480,76.570323,172.283227,-9475.577496
421.102107,153.140646,133.998066,-9399.007173
421.102734,210.568389,76.570323,-9533.005238
421.103360,153.140646,95.712904,-9533.005238
421.103987,172.283227,76.570323,-9533.005238
421.104613,172.283227,38.285162,-9475.577496
421.105240,153.140646,153.140646,-9399.007173
421.105867,38.285162,153.140646,-9418.149754
421.106493,76.570323,114.855485,-9418.149754
421.107120,57.427742,191.425808,-9360.722011
421.107747,57.427742,191.425808,-9360.722011
421.108373,0.000000,153.140646,-9284.151688
421.109000,19.142581,210.568389,-9418.149754
421.109626,95.712904,172.283227,-9341.579430
421.110253,38.285162,172.283227,-9418.149754
421.110880,95.712904,114.855485,-9418.149754
421.111506,133.998066,114.855485,-9494.720077
421.112133,210.568389,133.998066,-9494.720077
421.112760,191.425808,76.570323,-9533.005238
421.113386,191.425808,76.570323,-9456.434915
421.114013,229.710970,19.142581,-9475.577496
421.114639,172.283227,76.570323,-9418.149754
421.115266,95.712904,95.712904,-9399.007173
421.115893,38.285162,114.855485,-9360.722011
421.116519,0.000000,248.853550,-9341.579430
421.117146,57.427742,133.998066,-9303.294269
421.117773,-19.142581,287.138712,-9322.436850
421.118399,38.285162,229.710970,-9322.436850
421.119026,57.427742,153.140646,-9360.722011
421.119653,57.427742,133.998066,-9360.722011
421.120279,38.285162,172.283227,-9418.149754
421.120906,38.285162,153.140646,-9418.149754
421.121532,133.998066,153.140646,-9533.005238
421.122159,172.283227,76.570323,-9475.577496
421.122786,210.568389,57.427742,-9552.147819
421.123412,191.425808,76.570323,-9494.720077
421.124039,210.568389,133.998066,-9513.862658
421.124666,153.140646,133.998066,-9494.720077
421.125292,133.998066,133.998066,-9437.292334
421.125919,76.570323,172.283227,-9418.149754
421.126545,133.998066,229.710970,-9418.149754
421.127172,19.142581,229.710970,-9418.149754
421.127799,-76.570323,248.853550,-9399.007173
421.128425,57.427742,248.853550,-9360.722011
421.129052,-19.142581,210.568389,-9303.294269
421.129679,76.570323,210.568389,-9437.292334
421.130305,76.570323,114.855485,-9418.149754
421.130932,133.998066,153.140646,-9437.292334
421.131558,172.283227,114.855485,-9513.862658
421.132185,229.710970,19.142581,-9475.577496
421.132812,210.568389,95.712904,-9533.005238
421.133438,229.710970,76.570323,-9533.005238
421.134065,191.425808,76.570323,-9456.434915
421.134692,114.855485,76.570323,-9418.149754
421.135318,76.570323,114.855485,-9456.434915
421.135945,76.570323,172.283227,-9418.149754
421.136571,38.285162,210.568389,-9360.722011
421.137198,0.000000,248.853550,-9360.722011
421.137825,-38.285162,229.710970,-9360.722011
421.138451,57.427742,172.283227,-9322.436850
421.139078,38.285162,210.568389,-9360.722011
421.139705,57.427742,133.998066,-9360.722011
421.140331,38.285162,114.855485,-9418.149754
421.140958,153.140646,133.998066,-9475.577496
421.141584,191.425808,57.427742,-9475.577496
421.142211,191.425808,38.285162,-9475.577496
421.142838,229.710970,114.855485,-9513.862658
421.143464,172.283227,114.855485,-9571.290400
421.144091,153.140646,172.283227,-9418.149754
421.144718,153.140646,210.568389,-9437.292334
421.145344,57.427742,229.710970,-9418.149754
421.145971,19.142581,191.425808,-9322.436850
421.146598,57.427742,210.568389,-9322.436850
421.147224,38.285162,229.710970,-9418.149754
421.147851,0.000000,229.710970,-9284.151688
421.148477,38.285162,229.710970,-9456.434915
421.149104,57.427742,172.283227,-9284.151688
421.149731,76.570323,210.568389,-9418.149754
421.150357,114.855485,95.712904,-9475.577496
421.150984,153.140646,114.855485,-9475.577496
421.151611,191.425808,76.570323,-9418.149754
421.152237,191.425808,76.570323,-9533.005238
421.152864,172.283227,57.427742,-9475.577496
421.153490,172.283227,76.570323,-9475.577496
421.154117,153.140646,133.998066,-9437.292334
421.154744,133.998066,172.283227,-9399.007173
421.155370,38.285162,172.283227,-9418.149754
421.155997,95.712904,133.998066,-9360.722011
421.156624,19.142581,172.283227,-9418.149754
421.157250,38.285162,210.568389,-9456.434915
421.157877,-19.142581,191.425808,-9303.294269
421.158503,57.427742,191.425808,-9360.722011
421.159130,133.998066,229.710970,-9418.149754
421.159757,38.285162,153.140646,-9418.149754
421.160383,153.140646,114.855485,-9437.292334
421.161010,229.710970,114.855485,-9571.290400
421.161637,191.425808,57.427742,-9475.577496
421.162263,172.283227,76.570323,-9475.577496
421.162890,153.140646,133.998066,-9513.862658
421.163516,172.283227,114.855485,-9494.720077
421.164143,172.283227,76.570323,-9456.434915
421.164770,38.285162,114.855485,-9418.149754
421.165396,76.570323,172.283227,-9418.149754
421.166023,38.285162,229.710970,-9360.722011
421.166650,38.285162,248.853550,-9322.436850
421.167276,0.000000,229.710970,-9399.007173
421.167903,38.285162,229.710970,-9418.149754
421.168530,114.855485,191.425808,-9341.579430
421.169156,38.285162,114.855485,-9418.149754
421.169783,76.570323,114.855485,-9418.149754
421.170409,114.855485,133.998066,-9552.147819
421.171036,248.853550,133.998066,-9513.862658
421.171663,210.568389,133.998066,-9475.577496
421.172289,229.710970,19.142581,-9494.720077
421.172916,191.425808,76.570323,-9418.149754
421.173543,191.425808,76.570323,-9418.149754
421.174169,76.570323,172.283227,-9437.292334
421.174796,76.570323,210.568389,-9360.722011
421.175422,95.712904,248.853550,-9284.151688
421.176049,95.712904,191.425808,-9341.579430
421.176676,19.142581,229.710970,-9418.149754
421.177302,0.000000,133.998066,-9418.149754
421.177929,19.142581,153.140646,-9456.434915
421.178556,76.570323,210.568389,-9399.007173
421.179182,38.285162,114.855485,-9437.292334
421.179809,172.283227,76.570323,-9533.005238
421.180435,133.998066,76.570323,-9571.290400
421.181062,210.568389,133.998066,-9494.720077
421.181689,210.568389,133.998066,-9494.720077
421.182315,153.140646,76.570323,-9494.720077
421.182942,153.140646,133.998066,-9456.434915
421.183569,153.140646,133.998066,-9456.434915
421.184196,95.712904,95.712904,-9399.007173
421.184822,57.427742,210.568389,-9456.434915
421.185449,38.285162,229.710970,-9360.722011
421.186076,0.000000,210.568389,-9341.579430
421.186703,-19.142581,229.710970,-9379.864592
421.187330,0.000000,172.283227,-9360.722011
421.187956,57.427742,172.283227,-9360.722011
421.188583,95.712904,172.283227,-9360.722011
421.189210,114.855485,95.712904,-9475.577496
421.189837,153.140646,133.998066,-9456.434915
421.190464,229.710970,19.142581,-9456.434915
421.191090,172.283227,76.570323,-9475.577496
421.191717,172.283227,76.570323,-9456.434915
421.192344,210.568389,133.998066,-9513.862658
421.192971,172.283227,76.570323,-9456.434915
421.193598,133.998066,114.855485,-9475.577496
421.194224,19.142581,210.568389,-9437.292334
421.194851,38.285162,210.568389,-9418.149754
421.195478,0.000000,191.425808,-9360.722011
421.196105,0.000000,191.425808,-9360.722011
421.196731,-19.142581,229.710970,-9379.864592
421.197358,38.285162,153.140646,-9418.149754
421.197985,38.285162,114.855485,-9418.149754
421.198612,19.142581,172.283227,-9399.007173
421.199239,76.570323,114.855485,-9418.149754
421.199865,210.568389,95.712904,-9533.005238
421.200492,76.570323,153.140646,-9437.292334
421.201119,153.140646,114.855485,-9533.005238
421.201746,172.283227,38.285162,-9494.720077
421.202373,114.855485,133.998066,-9475.577496
421.202999,153.140646,133.998066,-9494.720077
421.203626,133.998066,172.283227,-9456.434915
421.204253,76.570323,153.140646,-9418.149754
421.204880,57.427742,229.710970,-9399.007173
421.205506,0.000000,191.425808,-9360.722011
421.206133,38.285162,229.710970,-9418.149754
421.206760,0.000000,248.853550,-9322.436850
421.207387,0.000000,210.568389,-9399.007173
421.208014,76.570323,191.425808,-9360.722011
421.208640,38.285162,153.140646,-9418.149754
421.209267,153.140646,133.998066,-9456.434915
421.209894,191.425808,76.570323,-9456.434915
421.210521,191.425808,133.998066,-9513.862658
421.211148,172.283227,38.285162,-9437.292334
421.211774,210.568389,133.998066,-9513.862658
421.212401,191.425808,76.570323,-9418.149754
421.213028,133.998066,153.140646,-9399.007173
421.213655,38.285162,114.855485,-9418.149754
421.214282,95.712904,153.140646,-9360.722011
421.214908,38.285162,191.425808,-9456.434915
421.215535,0.000000,191.425808,-9360.722011
421.216162,-19.142581,191.425808,-9341.579430
421.216789,0.000000,191.425808,-9360.722011
421.217415,38.285162,210.568389,-9360.722011
421.218042,38.285162,153.140646,-9418.149754
421.218669,95.712904,114.855485,-9437.292334
421.219296,210.568389,76.570323,-9456.434915
421.219923,153.140646,76.570323,-9513.862658
421.220549,248.853550,133.998066,-9513.862658
421.221176,172.283227,76.570323,-9456.434915
421.221803,172.283227,38.285162,-9475.577496
421.222430,114.855485,95.712904,-9494.720077
421.223057,133.998066,172.283227,-9437.292334
421.223683,38.285162,114.855485,-9418.149754
421.224310,19.142581,153.140646,-9360.722011
421.224937,0.000000,153.140646,-9360.722011
421.225564,19.142581,306.281293,-9341.579430
421.226191,-38.285162,210.568389,-9379.864592
421.226817,19.142581,191.425808,-9399.007173
421.227444,0.000000,133.998066,-9360.722011
421.228071,76.570323,153.140646,-9418.149754
421.228698,133.998066,114.855485,-9437.292334
421.229324,133.998066,114.855485,-9456.434915
421.229951,153.140646,133.998066,-9399.007173
421.230578,191.425808,76.570323,-9533.005238
421.231205,248.853550,57.427742,-9475.577496
421.231832,172.283227,19.142581,-9456.434915
421.232458,210.568389,133.998066,-9437.292334
421.233085,76.570323,153.140646,-9494.720077
421.233712,38.285162,114.855485,-9475.577496
421.234339,19.142581,229.710970,-9418.149754
421.234966,-19.142581,191.425808,-9303.294269
421.235592,0.000000,191.425808,-9284.151688
421.236219,38.285162,191.425808,-9303.294269
421.236846,-57.427742,191.425808,-9399.007173
421.237473,95.712904,248.853550,-9360.722011
421.238099,76.570323,114.855485,-9418.149754
421.238726,153.140646,172.283227,-9456.434915
421.239353,153.140646,153.140646,-9437.292334
421.239980,172.283227,114.855485,-9513.862658
421.240607,191.425808,114.855485,-9494.720077
421.241233,172.283227,76.570323,-9437.292334
421.241860,172.283227,95.712904,-9399.007173
421.242487,191.425808,153.140646,-9494.720077
421.243114,38.285162,172.283227,-9418.149754
421.243741,38.285162,248.853550,-9322.436850
421.244367,57.427742,248.853550,-9360.722011
421.244994,38.285162,248.853550,-9360.722011
421.245621,57.427742,287.138712,-9399.007173
421.246248,57.427742,172.283227,-9322.436850
421.246875,38.285162,172.283227,-9360.722011
421.247501,114.855485,172.283227,-9360.722011
421.248128,38.285162,114.855485,-9437.292334
421.248755,76.570323,114.855485,-9418.149754
421.249382,172.283227,76.570323,-9456.434915
421.250008,210.568389,133.998066,-9475.577496
421.250635,248.853550,95.712904,-9552.147819
421.251262,248.853550,95.712904,-9533.005238
421.251889,114.855485,95.712904,-9399.007173
421.252516,114.855485,95.712904,-9456.434915
421.253142,38.285162,114.855485,-9437.292334
421.253769,19.142581,191.425808,-9418.149754
421.254396,-38.285162,229.710970,-9418.149754
421.255023,-19.142581,267.996131,-9418.149754
421.255650,38.285162,248.853550,-9322.436850
421.256276,0.000000,153.140646,-9360.722011
421.256903,38.285162,153.140646,-9437.292334
421.257530,76.570323,114.855485,-9475.577496
421.258157,133.998066,114.855485,-9456.434915
421.258784,191.425808,76.570323,-9475.577496
421.259410,191.425808,133.998066,-9437.292334
421.260037,248.853550,95.712904,-9475.577496
421.260664,172.283227,76.570323,-9437.292334
421.261291,191.425808,76.570323,-9456.434915
421.261917,153.140646,133.998066,-9399.007173
421.262544,95.712904,95.712904,-9399.007173
421.263171,57.427742,210.568389,-9360.722011
421.263798,38.285162,210.568389,-9418.149754
421.264425,19.142581,248.853550,-9399.007173
421.265051,19.142581,229.710970,-9418.149754
421.265678,19.142581,210.568389,-9418.149754
421.266305,57.427742,172.283227,-9360.722011
421.266932,95.712904,133.998066,-9360.722011
421.267559,38.285162,153.140646,-9437.292334
421.268185,114.855485,76.570323,-9418.149754
421.268812,210.568389,133.998066,-9494.720077
421.269439,172.283227,57.427742,-9494.720077
421.270066,248.853550,76.570323,-9456.434915
421.270692,248.853550,76.570323,-9437.292334
421.271319,210.568389,76.570323,-9456.434915
421.271946,133.998066,133.998066,-9399.007173
421.272573,114.855485,153.140646,-9360.722011
421.273200,76.570323,210.568389,-9418.149754
421.273826,57.427742,248.853550,-9360.722011
421.274453,57.427742,248.853550,-9341.579430
421.275080,38.285162,287.138712,-9379.864592
421.275707,19.142581,153.140646,-9418.149754
421.276334,76.570323,172.283227,-9437.292334
421.276960,76.570323,153.140646,-9418.149754
421.277587,153.140646,133.998066,-9437.292334
421.278214,133.998066,114.855485,-9475.577496
421.278841,191.425808,76.570323,-9533.005238
421.279468,248.853550,133.998066,-9494.720077
421.280094,191.425808,114.855485,-9513.862658
421.280721,210.568389,133.998066,-9494.720077
421.281348,210.568389,133.998066,-9494.720077
421.281975,153.140646,133.998066,-9437.292334
421.282601,95.712904,172.283227,-9360.722011
421.283228,38.285162,229.710970,-9418.149754
421.283855,0.000000,153.140646,-9341.579430
421.284482,38.285162,229.710970,-9418.149754
421.285109,76.570323,191.425808,-9379.864592
421.285735,19.142581,210.568389,-9360.722011
421.286362,38.285162,229.710970,-9418.149754
421.286989,19.142581,114.855485,-9456.434915
421.287616,114.855485,95.712904,-9494.720077
421.288243,191.425808,76.570323,-9533.005238
421.288871,172.283227,76.570323,-9533.005238
421.289499,210.568389,38.285162,-9475.577496
421.290126,153.140646,133.998066,-9399.007173
421.290754,210.568389,153.140646,-9494.720077
421.291382,153.140646,133.998066,-9437.292334
421.292009,114.855485,95.712904,-9437.292334
421.292637,76.570323,172.283227,-9418.149754
421.293264,38.285162,229.710970,-9360.722011
421.293892,19.142581,229.710970,-9418.149754
421.294520,0.000000,306.281293,-9399.007173
421.295147,38.285162,248.853550,-9360.722011
421.295775,57.427742,248.853550,-9360.722011
421.296403,76.570323,248.853550,-9418.149754
421.297030,57.427742,133.998066,-9418.149754
421.297658,153.140646,133.998066,-9399.007173
421.298286,210.568389,133.998066,-9494.720077
421.298913,172.283227,57.427742,-9475.577496
421.299541,191.425808,76.570323,-9418.149754
421.300168,210.568389,57.427742,-9533.005238
421.300796,172.283227,76.570323,-9475.577496
421.301424,191.425808,133.998066,-9399.007173
421.302051,38.285162,114.855485,-9418.149754
421.302679,57.427742,133.998066,-9418.149754
421.303307,95.712904,153.140646,-9360.722011
421.303934,19.142581,191.425808,-9437.292334
421.304562,38.285162,267.996131,-9322.436850
421.305189,38.285162,153.140646,-9418.149754
421.305817,38.285162,191.425808,-9360.722011
421.306445,133.998066,114.855485,-9418.149754
421.307072,153.140646,114.855485,-9437.292334
421.307700,114.855485,95.712904,-9494.720077
421.308328,172.283227,57.427742,-9437.292334
421.308955,210.568389,133.998066,-9475.577496
421.309583,153.140646,114.855485,-9475.577496
421.310211,210.568389,133.998066,-9494.720077
421.310838,153.140646,133.998066,-9399.007173
421.311466,76.570323,172.283227,-9437.292334
421.312093,57.427742,191.425808,-9341.579430
421.312721,38.285162,229.710970,-9341.579430
421.313349,95.712904,267.996131,-9360.722011
421.313976,57.427742,287.138712,-9399.007173
421.314604,57.427742,248.853550,-9341.579430
421.315232,95.712904,191.425808,-9360.722011
421.315859,57.427742,191.425808,-9360.722011
421.316487,76.570323,114.855485,-9437.292334
421.317114,153.140646,114.855485,-9418.149754
421.317742,172.283227,76.570323,-9494.720077
421.318370,191.425808,76.570323,-9533.005238
421.318997,191.425808,114.855485,-9513.862658
421.319625,210.568389,76.570323,-9533.005238
421.320253,191.425808,76.570323,-9418.149754
421.320880,76.570323,114.855485,-9456.434915
421.321508,95.712904,95.712904,-9399.007173
421.322136,19.142581,172.283227,-9418.149754
421.322763,57.427742,172.283227,-9341.579430
421.323391,0.000000,248.853550,-9360.722011
421.324018,0.000000,248.853550,-9360.722011
421.324646,-19.142581,210.568389,-9379.864592
421.325274,57.427742,172.283227,-9360.722011
421.325901,76.570323,114.855485,-9437.292334
421.326529,76.570323,76.570323,-9494.720077
421.327157,153.140646,133.998066,-9456.434915
421.327784,153.140646,133.998066,-9494.720077
421.328412,191.425808,76.570323,-9533.005238
421.329039,210.568389,95.712904,-9552.147819
421.329667,191.425808,19.142581,-9437.292334
421.330295,210.568389,95.712904,-9360.722011
421.330922,133.998066,172.283227,-9475.577496
421.331550,38.285162,153.140646,-9437.292334
421.332178,19.142581,210.568389,-9418.149754
421.332805,57.427742,248.853550,-9341.579430
421.333433,19.142581,191.425808,-9437.292334
421.334061,57.427742,248.853550,-9341.579430
421.334688,76.570323,153.140646,-9418.149754
421.335316,76.570323,210.568389,-9418.149754
421.335943,76.570323,114.855485,-9456.434915
421.336571,114.855485,95.712904,-9437.292334
421.337199,114.855485,38.285162,-9513.862658
421.337826,191.425808,38.285162,-9437.292334
421.338454,267.996131,133.998066,-9513.862658
421.339082,248.853550,133.998066,-9475.577496
421.339709,229.710970,76.570323,-9456.434915
421.340337,153.140646,133.998066,-9456.434915
421.340965,76.570323,153.140646,-9418.149754
421.341592,38.285162,229.710970,-9418.149754
421.342220,38.285162,153.140646,-9418.149754
421.342847,-19.142581,248.853550,-9360.722011
421.343475,-19.142581,210.568389,-9379.864592
421.344103,57.427742,287.138712,-9399.007173
421.344730,38.285162,210.568389,-9418.149754
421.345358,76.570323,172.283227,-9418.149754
421.345986,133.998066,153.140646,-9437.292334
421.346613,153.140646,153.140646,-9399.007173
421.347241,210.568389,133.998066,-9399.007173
421.347868,191.425808,76.570323,-9533.005238
421.348496,248.853550,95.712904,-9533.005238
421.349124,172.283227,76.570323,-9494.720077
421.349751,153.140646,133.998066,-9437.292334
421.350379,153.140646,133.998066,-9399.007173
421.351007,76.570323,114.855485,-9418.149754
421.351634,57.427742,191.425808,-9360.722011
421.352262,0.000000,172.283227,-9341.579430
421.352890,57.427742,210.568389,-9418.149754
421.353517,19.142581,210.568389,-9360.722011
421.354145,38.285162,191.425808,-9379.864592
421.354772,95.712904,210.568389,-9360.722011
421.355400,133.998066,172.283227,-9418.149754
421.356028,133.998066,114.855485,-9418.149754
421.356655,153.140646,133.998066,-9456.434915
421.357283,248.853550,133.998066,-9456.434915
421.357911,229.710970,76.570323,-9475.577496
421.358538,191.425808,76.570323,-9475.577496
421.359166,191.425808,76.570323,-9475.577496
421.359793,191.425808,76.570323,-9418.149754
421.360421,153.140646,133.998066,-9399.007173
421.361049,38.285162,114.855485,-9418.149754
421.361676,38.285162,210.568389,-9418.149754
421.362304,38.285162,153.140646,-9360.722011
421.362932,0.000000,267.996131,-9360.722011
421.363559,-38.285162,325.423874,-9360.722011
421.364187,38.285162,153.140646,-9418.149754
421.364815,57.427742,172.283227,-9341.579430
421.365442,76.570323,114.855485,-9418.149754
421.366070,133.998066,114.855485,-9418.149754
421.366697,133.998066,114.855485,-9475.577496
421.367325,172.283227,76.570323,-9475.577496
421.367953,248.853550,133.998066,-9494.720077
421.368580,172.283227,57.427742,-9437.292334
421.369208,172.283227,19.142581,-9418.149754
421.369836,153.140646,133.998066,-9494.720077
421.370463,76.570323,153.140646,-9418.149754
421.371091,38.285162,172.283227,-9360.722011
421.371718,76.570323,133.998066,-9360.722011
421.372346,-38.285162,153.140646,-9399.007173
421.372974,-19.142581,210.568389,-9322.436850
421.373601,57.427742,191.425808,-9360.722011
421.374229,38.285162,210.568389,-9418.149754
421.374857,76.570323,153.140646,-9437.292334
421.375484,38.285162,114.855485,-9437.292334
421.376112,153.140646,133.998066,-9399.007173
421.376740,210.568389,133.998066,-9456.434915
421.377367,172.283227,76.570323,-9533.005238
421.377995,191.425808,133.998066,-9456.434915
421.378622,210.568389,133.998066,-9513.862658
421.379250,153.140646,133.998066,-9494.720077
421.379878,133.998066,114.855485,-9418.149754
421.380505,57.427742,114.855485,-9418.149754
421.381133,19.142581,172.283227,-9418.149754
421.381761,19.142581,172.283227,-9418.149754
421.382388,-19.142581,248.853550,-9418.149754
421.383016,19.142581,267.996131,-9379.864592
421.383643,-38.285162,172.283227,-9399.007173
421.384271,95.712904,191.425808,-9360.722011
421.384899,76.570323,114.855485,-9437.292334
421.385526,95.712904,95.712904,-9494.720077
421.386154,210.568389,133.998066,-9513.862658
421.386782,248.853550,76.570323,-9418.149754
421.387409,172.283227,95.712904,-9494.720077
421.388037,153.140646,133.998066,-9494.720077
421.388665,191.425808,76.570323,-9533.005238
421.389293,248.853550,133.998066,-9399.007173
421.389920,76.570323,172.283227,-9418.149754
421.390548,38.285162,210.568389,-9418.149754
421.391176,19.142581,153.140646,-9418.149754
421.391804,38.285162,248.853550,-9322.436850
421.392432,0.000000,191.425808,-9360.722011
421.393060,19.142581,210.568389,-9399.007173
421.393687,38.285162,153.140646,-9418.149754
421.394315,76.570323,153.140646,-9418.149754
421.394943,95.712904,95.712904,-9399.007173
421.395571,95.712904,95.712904,-9456.434915
421.396199,133.998066,114.855485,-9456.434915
421.396826,153.140646,133.998066,-9399.007173
421.397454,210.568389,133.998066,-9456.434915
421.398082,191.425808,76.570323,-9418.149754
421.398710,172.283227,95.712904,-9437.292334
421.399338,153.140646,133.998066,-9399.007173
421.399966,76.570323,210.568389,-9456.434915
421.400593,19.142581,210.568389,-9418.149754
421.401221,38.285162,172.283227,-9418.149754
421.401849,57.427742,229.710970,-9418.149754
421.402477,0.000000,287.138712,-9399.007173
421.403105,38.285162,210.568389,-9418.149754
421.403733,38.285162,210.568389,-9360.722011
421.404360,38.285162,172.283227,-9494.720077
421.404988,172.283227,76.570323,-9437.292334
421.405616,153.140646,133.998066,-9399.007173
421.406244,172.283227,76.570323,-9437.292334
421.406872,133.998066,38.285162,-9513.862658
421.407500,191.425808,76.570323,-9475.577496
421.408127,172.283227,76.570323,-9475.577496
421.408755,153.140646,133.998066,-9399.007173
421.409383,76.570323,114.855485,-9437.292334
421.410011,38.285162,172.283227,-9475.577496
421.410639,38.285162,210.568389,-9418.149754
421.411266,38.285162,191.425808,-9379.864592
421.411894,38.285162,267.996131,-9399.007173
421.412522,19.142581,248.853550,-9379.864592
421.413150,19.142581,153.140646,-9456.434915
421.413778,153.140646,210.568389,-9360.722011
421.414406,76.570323,153.140646,-9418.149754
421.415033,153.140646,153.140646,-9475.577496
421.415661,172.283227,76.570323,-9494.720077
421.416289,191.425808,76.570323,-9475.577496
421.416917,229.710970,76.570323,-9456.434915
421.417545,191.425808,76.570323,-9418.149754
421.418173,172.283227,76.570323,-9456.434915
421.418800,153.140646,133.998066,-9437.292334
421.419428,76.570323,191.425808,-9341.579430
421.420056,76.570323,210.568389,-9418.149754
421.420684,19.142581,153.140646,-9418.149754
421.421312,0.000000,153.140646,-9322.436850
421.421940,0.000000,248.853550,-9284.151688
421.422567,19.142581,229.710970,-9418.149754
421.423195,38.285162,172.283227,-9418.149754
421.423823,38.285162,114.855485,-9418.149754
421.424451,76.570323,114.855485,-9418.149754
421.425079,153.140646,133.998066,-9399.007173
421.425706,191.425808,76.570323,-9475.577496
421.426334,172.283227,38.285162,-9437.292334
421.426962,248.853550,133.998066,-9456.434915
421.427590,229.710970,76.570323,-9494.720077
421.428218,191.425808,76.570323,-9418.149754
421.428846,153.140646,133.998066,-9456.434915
421.429473,133.998066,133.998066,-9456.434915
421.430101,38.285162,153.140646,-9418.149754
421.430729,38.285162,153.140646,-9360.722011
421.431357,0.000000,191.425808,-9322.436850
421.431985,19.142581,229.710970,-9418.149754
421.432613,38.285162,153.140646,-9418.149754
421.433240,95.712904,133.998066,-9360.722011
421.433868,19.142581,172.283227,-9437.292334
421.434496,95.712904,114.855485,-9475.577496
421.435124,114.855485,95.712904,-9494.720077
421.435752,191.425808,133.998066,-9494.720077
421.436380,153.140646,133.998066,-9494.720077
421.437007,210.568389,76.570323,-9475.577496
421.437635,172.283227,76.570323,-9475.577496
421.438263,153.140646,172.283227,-9399.007173
421.438891,133.998066,172.283227,-9418.149754
421.439519,76.570323,172.283227,-9456.434915
421.440146,76.570323,114.855485,-9437.292334
421.440774,19.142581,229.710970,-9360.722011
421.441402,0.000000,287.138712,-9418.149754
421.442030,-95.712904,248.853550,-9399.007173
421.442658,19.142581,229.710970,-9418.149754
421.443286,57.427742,133.998066,-9360.722011
421.443913,76.570323,133.998066,-9360.722011
421.444541,133.998066,153.140646,-9533.005238
421.445169,210.568389,133.998066,-9437.292334
421.445797,248.853550,133.998066,-9513.862658
421.446425,114.855485,95.712904,-9437.292334
421.447053,153.140646,76.570323,-9533.005238
421.447680,191.425808,76.570323,-9456.434915
421.448308,191.425808,76.570323,-9437.292334
421.448936,95.712904,133.998066,-9341.579430
421.449564,38.285162,210.568389,-9456.434915
421.450192,76.570323,191.425808,-9360.722011
421.450820,-38.285162,210.568389,-9418.149754
421.451447,0.000000,229.710970,-9379.864592
421.452075,57.427742,191.425808,-9360.722011
421.452703,19.142581,133.998066,-9399.007173
421.453331,38.285162,114.855485,-9418.149754
421.453959,114.855485,95.712904,-9399.007173
421.454586,133.998066,114.855485,-9494.720077
421.455214,191.425808,57.427742,-9533.005238
421.455842,210.568389,95.712904,-9552.147819
421.456470,153.140646,133.998066,-9399.007173
421.457098,172.283227,76.570323,-9418.149754
421.457726,153.140646,133.998066,-9437.292334
421.458353,133.998066,172.283227,-9494.720077
421.458981,95.712904,248.853550,-9360.722011
421.459609,38.285162,229.710970,-9418.149754
421.460237,0.000000,248.853550,-9360.722011
421.460865,19.142581,172.283227,-9418.149754
421.461493,-19.142581,210.568389,-9379.864592
421.462120,0.000000,248.853550,-9418.149754
421.462748,57.427742,153.140646,-9360.722011
421.463376,76.570323,114.855485,-9418.149754
421.464004,95.712904,153.140646,-9456.434915
421.464632,153.140646,133.998066,-9399.007173
421.465260,191.425808,76.570323,-9533.005238
421.465887,191.425808,76.570323,-9475.577496
421.466515,248.853550,133.998066,-9456.434915
421.467143,229.710970,76.570323,-9418.149754
421.467771,210.568389,153.140646,-9399.007173
421.468399,133.998066,114.855485,-9418.149754
421.469026,76.570323,172.283227,-9360.722011
421.469654,38.285162,210.568389,-9418.149754
421.470282,38.285162,248.853550,-9360.722011
421.470910,57.427742,248.853550,-9360.722011
421.471538,38.285162,153.140646,-9418.149754
421.472166,38.285162,172.283227,-9418.149754
421.472793,95.712904,133.998066,-9360.722011
421.473421,76.570323,153.140646,-9418.149754
421.474049,133.998066,114.855485,-9494.720077
421.474677,248.853550,76.570323,-9475.577496
421.475305,114.855485,95.712904,-9513.862658
421.475933,191.425808,76.570323,-9437.292334
421.476560,191.425808,57.427742,-9418.149754
421.477188,210.568389,133.998066,-9399.007173
421.477816,153.140646,133.998066,-9399.007173
421.478444,38.285162,210.568389,-9437.292334
421.479072,19.142581,172.283227,-9418.149754
421.479700,57.427742,191.425808,-9341.579430
421.480327,-19.142581,229.710970,-9379.864592
421.480955,19.142581,287.138712,-9360.722011
421.481583,19.142581,172.283227,-9399.007173
421.482211,38.285162,191.425808,-9437.292334
421.482839,38.285162,153.140646,-9418.149754
421.483466,38.285162,114.855485,-9494.720077
421.484094,153.140646,172.283227,-9456.434915
421.484722,191.425808,76.570323,-9418.149754
421.485350,172.283227,76.570323,-9475.577496
421.485978,248.853550,133.998066,-9456.434915
421.486606,153.140646,133.998066,-9494.720077
421.487233,191.425808,133.998066,-9437.292334
421.487861,114.855485,95.712904,-9399.007173
421.488489,38.285162,229.710970,-9418.149754
421.489117,38.285162,191.425808,-9360.722011
421.489745,0.000000,248.853550,-9418.149754
421.490373,38.285162,153.140646,-9360.722011
421.491001,-38.285162,229.710970,-9341.579430
421.491628,19.142581,191.425808,-9399.007173
421.492256,19.142581,191.425808,-9399.007173
421.492884,76.570323,133.998066,-9360.722011
421.493512,114.855485,95.712904,-9456.434915
421.494140,133.998066,114.855485,-9475.577496
421.494768,172.283227,76.570323,-9533.005238
421.495396,191.425808,95.712904,-9513.862658
421.496024,153.140646,57.427742,-9552.147819
421.496652,172.283227,76.570323,-9418.149754
421.497279,153.140646,133.998066,-9399.007173
421.497907,133.998066,114.855485,-9418.149754
421.498535,76.570323,114.855485,-9418.149754
421.499163,19.142581,191.425808,-9418.149754
421.499791,0.000000,172.283227,-9418.149754
421.500419,0.000000,133.998066,-9360.722011
421.501047,-76.570323,172.283227,-9379.864592
421.501675,19.142581,172.283227,-9360.722011
421.502302,38.285162,172.283227,-9360.722011
421.502930,76.570323,95.712904,-9437.292334
421.503558,210.568389,133.998066,-9456.434915
421.504186,210.568389,95.712904,-9418.149754
421.504814,153.140646,133.998066,-9513.862658
421.505442,210.568389,76.570323,-9456.434915
421.506070,153.140646,133.998066,-9437.292334
421.506698,153.140646,95.712904,-9418.149754
421.507326,133.998066,191.425808,-9418.149754
421.507953,76.570323,172.283227,-9360.722011
421.508581,38.285162,153.140646,-9418.149754
421.509209,19.142581,229.710970,-9360.722011
421.509837,-38.285162,191.425808,-9399.007173
421.510465,-38.285162,153.140646,-9418.149754
421.511093,38.285162,210.568389,-9418.149754
421.511721,38.285162,114.855485,-9418.149754
421.512349,95.712904,95.712904,-9437.292334
421.512977,133.998066,153.140646,-9418.149754
421.513604,191.425808,76.570323,-9437.292334
421.514232,229.710970,57.427742,-9533.005238
421.514860,191.425808,76.570323,-9533.005238
421.515488,172.283227,76.570323,-9437.292334
421.516116,191.425808,76.570323,-9418.149754
421.516744,153.140646,153.140646,-9494.720077
421.517372,76.570323,114.855485,-9418.149754
421.518000,38.285162,172.283227,-9418.149754
421.518627,19.142581,248.853550,-9379.864592
421.519255,19.142581,172.283227,-9418.149754
421.519883,0.000000,267.996131,-9360.722011
421.520511,0.000000,191.425808,-9360.722011
421.521139,38.285162,153.140646,-9456.434915
421.521767,133.998066,76.570323,-9379.864592
421.522395,114.855485,95.712904,-9456.434915
421.523023,153.140646,133.998066,-9494.720077
421.523651,172.283227,57.427742,-9456.434915
421.524278,172.283227,76.570323,-9494.720077
421.524906,191.425808,76.570323,-9456.434915
421.525534,172.283227,76.570323,-9475.577496
421.526162,210.568389,133.998066,-9456.434915
421.526790,153.140646,133.998066,-9399.007173
421.527418,57.427742,133.998066,-9360.722011
421.528046,76.570323,114.855485,-9418.149754
421.528674,76.570323,248.853550,-9341.579430
421.529301,95.712904,248.853550,-9360.722011
421.529929,-19.142581,191.425808,-9437.292334
421.530557,-57.427742,248.853550,-9437.292334
421.531185,76.570323,210.568389,-9418.149754
421.531813,38.285162,114.855485,-9418.149754
421.532441,57.427742,95.712904,-9399.007173
421.533069,133.998066,95.712904,-9437.292334
421.533697,191.425808,76.570323,-9437.292334
421.534325,153.140646,95.712904,-9475.577496
421.534952,229.710970,76.570323,-9475.577496
421.535580,210.568389,95.712904,-9533.005238
421.536208,153.140646,153.140646,-9399.007173
421.536836,76.570323,172.283227,-9418.149754
421.537464,19.142581,210.568389,-9418.149754
421.538092,38.285162,210.568389,-9418.149754
421.538720,57.427742,248.853550,-9360.722011
421.539348,0.000000,229.710970,-9399.007173
421.539975,19.142581,210.568389,-9418.149754
421.540603,38.285162,210.568389,-9418.149754
421.541231,38.285162,210.568389,-9437.292334
421.541859,172.283227,76.570323,-9437.292334
421.542487,114.855485,95.712904,-9494.720077
421.543115,172.283227,38.285162,-9437.292334
421.543743,248.853550,133.998066,-9513.862658
421.544371,229.710970,76.570323,-9475.577496
421.544999,153.140646,133.998066,-9494.720077
421.545626,191.425808,76.570323,-9456.434915
421.546254,248.853550,133.998066,-9399.007173
421.546882,76.570323,172.283227,-9418.149754
421.547510,19.142581,210.568389,-9360.722011
421.548138,19.142581,191.425808,-9379.864592
421.548766,0.000000,191.425808,-9360.722011
421.549394,-19.142581,210.568389,-9284.151688
421.550022,0.000000,191.425808,-9360.722011
421.550649,38.285162,191.425808,-9418.149754
421.551277,133.998066,210.568389,-9437.292334
421.551905,133.998066,210.568389,-9418.149754
421.552533,153.140646,133.998066,-9513.862658
421.553161,229.710970,57.427742,-9437.292334
421.553789,153.140646,57.427742,-9552.147819
421.554417,191.425808,38.285162,-9475.577496
421.555045,191.425808,19.142581,-9475.577496
421.555673,210.568389,76.570323,-9418.149754
421.556300,133.998066,191.425808,-9456.434915
421.556928,38.285162,153.140646,-9418.149754
421.557556,57.427742,248.853550,-9360.722011
421.558184,95.712904,191.425808,-9341.579430
421.558812,19.142581,248.853550,-9399.007173
421.559440,57.427742,248.853550,-9322.436850
421.560068,19.142581,191.425808,-9399.007173
421.560696,38.285162,210.568389,-9418.149754
421.561323,76.570323,114.855485,-9418.149754
421.561951,76.570323,95.712904,-9399.007173
421.562579,153.140646,133.998066,-9513.862658
421.563207,229.710970,57.427742,-9533.005238
421.563835,229.710970,38.285162,-9475.577496
421.564463,210.568389,133.998066,-9513.862658
421.565091,191.425808,76.570323,-9418.149754
421.565719,191.425808,133.998066,-9399.007173
421.566347,76.570323,114.855485,-9418.149754
421.566974,57.427742,191.425808,-9418.149754
421.567602,0.000000,267.996131,-9418.149754
421.568230,38.285162,229.710970,-9360.722011
421.568858,19.142581,153.140646,-9418.149754
421.569486,-38.285162,191.425808,-9456.434915
421.570114,38.285162,191.425808,-9418.149754
421.570742,76.570323,153.140646,-9418.149754
421.571370,114.855485,95.712904,-9456.434915
421.571997,133.998066,114.855485,-9418.149754
421.572625,210.568389,133.998066,-9494.720077
421.573253,229.710970,76.570323,-9533.005238
421.573881,248.853550,133.998066,-9494.720077
421.574509,210.568389,76.570323,-9533.005238
421.575137,172.283227,76.570323,-9475.577496
421.575765,133.998066,153.140646,-9456.434915
421.576393,76.570323,114.855485,-9418.149754
421.577021,76.570323,114.855485,-9418.149754
421.577648,0.000000,191.425808,-9360.722011
421.578276,-19.142581,248.853550,-9418.149754
421.578904,38.285162,229.710970,-9418.149754
421.579532,19.142581,153.140646,-9418.149754
421.580160,95.712904,191.425808,-9360.722011
421.580788,95.712904,95.712904,-9399.007173
421.581416,95.712904,153.140646,-9437.292334
421.582044,133.998066,153.140646,-9418.149754
421.582672,248.853550,133.998066,-9456.434915
421.583299,191.425808,38.285162,-9456.434915
421.583927,210.568389,133.998066,-9456.434915
421.584555,210.568389,133.998066,-9437.292334
421.585183,153.140646,133.998066,-9399.007173
421.585811,95.712904,133.998066,-9418.149754
421.586439,38.285162,210.568389,-9418.149754
421.587067,0.000000,210.568389,-9341.579430
421.587695,38.285162,267.996131,-9379.864592
421.588322,57.427742,287.138712,-9399.007173
421.588950,57.427742,248.853550,-9341.579430
421.589578,38.285162,153.140646,-9418.149754
421.590205,95.712904,172.283227,-9360.722011
421.590833,76.570323,114.855485,-9456.434915
421.591460,76.570323,95.712904,-9494.720077
421.592088,191.425808,76.570323,-9418.149754
421.592715,210.568389,76.570323,-9437.292334
421.593342,191.425808,57.427742,-9456.434915
421.593970,114.855485,95.712904,-9475.577496
421.594597,172.283227,95.712904,-9456.434915
421.595225,153.140646,133.998066,-9456.434915
421.595852,38.285162,191.425808,-9437.292334
421.596480,19.142581,153.140646,-9418.149754
421.597107,95.712904,172.283227,-9341.579430
421.597735,0.000000,248.853550,-9360.722011
421.598362,38.285162,229.710970,-9360.722011
421.598990,57.427742,191.425808,-9360.722011
421.599617,57.427742,191.425808,-9360.722011
421.600244,76.570323,114.855485,-9418.149754
421.600872,76.570323,114.855485,-9437.292334
421.601499,172.283227,95.712904,-9494.720077
421.602127,191.425808,38.285162,-9456.434915
421.602754,248.853550,133.998066,-9494.720077
421.603382,248.853550,133.998066,-9399.007173
421.604009,172.283227,76.570323,-9475.577496
421.604637,133.998066,114.855485,-9437.292334
421.605264,76.570323,114.855485,-9418.149754
421.605892,76.570323,114.855485,-9418.149754
421.606519,57.427742,210.568389,-9418.149754
421.607146,0.000000,248.853550,-9360.722011
421.607774,0.000000,229.710970,-9341.579430
421.608401,19.142581,229.710970,-9418.149754
421.609029,19.142581,191.425808,-9399.007173
421.609656,38.285162,172.283227,-9418.149754
421.610284,76.570323,114.855485,-9437.292334
421.610911,153.140646,76.570323,-9494.720077
421.611539,172.283227,95.712904,-9475.577496
421.612166,153.140646,133.998066,-9494.720077
421.612793,172.283227,76.570323,-9456.434915
421.613421,191.425808,76.570323,-9437.292334
421.614048,191.425808,76.570323,-9475.577496
421.614676,153.140646,133.998066,-9437.292334
421.615303,95.712904,95.712904,-9399.007173
421.615931,19.142581,191.425808,-9418.149754
421.616558,57.427742,248.853550,-9341.579430
421.617186,0.000000,287.138712,-9399.007173
421.617813,0.000000,229.710970,-9399.007173
421.618441,-38.285162,133.998066,-9399.007173
421.619068,-38.285162,114.855485,-9360.722011
421.619695,19.142581,114.855485,-9418.149754
421.620323,133.998066,114.855485,-9437.292334
421.620950,76.570323,114.855485,-9418.149754
421.621578,229.710970,133.998066,-9494.720077
421.622205,172.283227,76.570323,-9494.720077
421.622833,229.710970,76.570323,-9418.149754
421.623460,153.140646,133.998066,-9494.720077
421.624088,172.283227,76.570323,-9456.434915
421.624715,153.140646,191.425808,-9399.007173
421.625343,95.712904,191.425808,-9360.722011
421.625970,38.285162,210.568389,-9360.722011
421.626597,57.427742,229.710970,-9418.149754
421.627225,19.142581,191.425808,-9418.149754
421.627852,-19.142581,172.283227,-9379.864592
421.628480,0.000000,133.998066,-9360.722011
421.629107,57.427742,191.425808,-9360.722011
421.629735,38.285162,114.855485,-9475.577496
421.630362,38.285162,191.425808,-9418.149754
421.630990,133.998066,114.855485,-9494.720077
421.631617,191.425808,38.285162,-9437.292334
421.632244,172.283227,76.570323,-9533.005238
421.632872,210.568389,76.570323,-9437.292334
421.633499,191.425808,76.570323,-9475.577496
421.634127,191.425808,133.998066,-9437.292334
421.634754,95.712904,95.712904,-9399.007173
421.635382,133.998066,172.283227,-9399.007173
421.636009,19.142581,114.855485,-9418.149754
421.636637,57.427742,229.710970,-9418.149754
421.637264,19.142581,267.996131,-9379.864592
421.637892,-19.142581,210.568389,-9379.864592
421.638519,57.427742,229.710970,-9399.007173
421.639146,133.998066,210.568389,-9418.149754
421.639774,133.998066,114.855485,-9437.292334
421.640401,114.855485,95.712904,-9437.292334
421.641029,191.425808,76.570323,-9437.292334
421.641656,191.425808,76.570323,-9475.577496
421.642284,229.710970,76.570323,-9456.434915
421.642911,172.283227,76.570323,-9475.577496
421.643539,172.283227,95.712904,-9399.007173
421.644166,153.140646,172.283227,-9513.862658
421.644793,133.998066,114.855485,-9475.577496
421.645421,76.570323,153.140646,-9418.149754
421.646048,-19.142581,210.568389,-9379.864592
421.646676,0.000000,248.853550,-9360.722011
421.647303,0.000000,267.996131,-9418.149754
421.647931,57.427742,191.425808,-9360.722011
421.648558,57.427742,248.853550,-9418.149754
421.649186,19.142581,153.140646,-9437.292334
421.649813,133.998066,114.855485,-9418.149754
421.650441,210.568389,133.998066,-9513.862658
421.651068,191.425808,76.570323,-9456.434915
421.651695,229.710970,76.570323,-9475.577496
421.652323,172.283227,95.712904,-9494.720077
421.652950,210.568389,76.570323,-9456.434915
421.653578,248.853550,133.998066,-9513.862658
421.654205,133.998066,133.998066,-9399.007173
421.654833,76.570323,210.568389,-9418.149754
421.655460,57.427742,248.853550,-9341.579430
421.656088,95.712904,191.425808,-9341.579430
421.656715,19.142581,210.568389,-9399.007173
421.657343,19.142581,153.140646,-9418.149754
421.657970,19.142581,191.425808,-9399.007173
421.658597,38.285162,229.710970,-9418.149754
421.659225,76.570323,153.140646,-9418.149754
421.659852,76.570323,76.570323,-9571.290400
421.660480,153.140646,133.998066,-9399.007173
421.661107,210.568389,133.998066,-9513.862658
421.661735,210.568389,133.998066,-9494.720077
421.662362,191.425808,133.998066,-9494.720077
421.662990,229.710970,76.570323,-9418.149754
421.663617,153.140646,191.425808,-9456.434915
421.664244,38.285162,114.855485,-9418.149754
421.664872,76.570323,210.568389,-9418.149754
421.665499,0.000000,191.425808,-9360.722011
421.666127,-38.285162,210.568389,-9418.149754
421.666754,19.142581,210.568389,-9418.149754
421.667382,0.000000,133.998066,-9360.722011
421.668009,0.000000,191.425808,-9360.722011
421.668637,76.570323,114.855485,-9437.292334
421.669264,172.283227,95.712904,-9456.434915
421.669892,153.140646,153.140646,-9494.720077
421.670519,229.710970,76.570323,-9456.434915
421.671146,210.568389,38.285162,-9552.147819
421.671774,248.853550,57.427742,-9533.005238
421.672401,172.283227,76.570323,-9456.434915
421.673029,133.998066,114.855485,-9437.292334
421.673656,153.140646,133.998066,-9399.007173
421.674284,19.142581,153.140646,-9418.149754
421.674911,95.712904,133.998066,-9360.722011
421.675539,38.285162,210.568389,-9341.579430
421.676166,19.142581,210.568389,-9418.149754
421.676794,38.285162,248.853550,-9379.864592
421.677421,38.285162,114.855485,-9418.149754
421.678048,38.285162,172.283227,-9418.149754
421.678676,76.570323,114.855485,-9418.149754
421.679303,76.570323,114.855485,-9475.577496
421.679931,172.283227,76.570323,-9533.005238
421.680558,210.568389,133.998066,-9494.720077
421.681186,191.425808,76.570323,-9456.434915
421.681813,210.568389,76.570323,-9475.577496
421.682441,114.855485,95.712904,-9437.292334
421.683068,133.998066,114.855485,-9437.292334
421.683695,95.712904,114.855485,-9418.149754
421.684323,76.570323,95.712904,-9399.007173
421.684950,38.285162,325.423874,-9322.436850
421.685578,0.000000,191.425808,-9360.722011
421.686205,0.000000,248.853550,-9360.722011
421.686833,19.142581,229.710970,-9418.149754
421.687460,38.285162,191.425808,-9418.149754
421.688088,19.142581,114.855485,-9418.149754
421.688715,95.712904,133.998066,-9475.577496
421.689343,133.998066,114.855485,-9418.149754
421.689970,191.425808,76.570323,-9437.292334
421.690597,191.425808,76.570323,-9533.005238
421.691225,229.710970,133.998066,-9475.577496
421.691852,210.568389,133.998066,-9513.862658
421.692479,229.710970,114.855485,-9494.720077
421.693107,153.140646,133.998066,-9399.007173
421.693734,133.998066,114.855485,-9437.292334
421.694361,19.142581,229.710970,-9418.149754
421.694989,19.142581,210.568389,-9437.292334
421.695616,57.427742,191.425808,-9360.722011
421.696243,19.142581,191.425808,-9379.864592
421.696871,38.285162,153.140646,-9418.149754
421.697498,95.712904,172.283227,-9418.149754
421.698125,133.998066,114.855485,-9418.149754
421.698753,133.998066,153.140646,-9418.149754
421.699380,210.568389,133.998066,-9456.434915
421.700007,191.425808,114.855485,-9571.290400
421.700635,210.568389,95.712904,-9552.147819
421.701262,229.710970,57.427742,-9437.292334
421.701889,172.283227,76.570323,-9456.434915
421.702517,133.998066,133.998066,-9437.292334
421.703144,95.712904,95.712904,-9437.292334
421.703771,19.142581,191.425808,-9418.149754
421.704399,57.427742,248.853550,-9303.294269
421.705026,-38.285162,191.425808,-9399.007173
421.705653,-19.142581,172.283227,-9379.864592
421.706281,19.142581,191.425808,-9399.007173
421.706908,76.570323,76.570323,-9379.864592
421.707535,76.570323,114.855485,-9418.149754
421.708163,133.998066,76.570323,-9399.007173
421.708790,133.998066,114.855485,-9418.149754
421.709417,153.140646,133.998066,-9494.720077
421.710045,210.568389,133.998066,-9494.720077
421.710672,153.140646,133.998066,-9437.292334
421.711299,191.425808,38.285162,-9533.005238
421.711927,191.425808,76.570323,-9418.149754
421.712554,133.998066,114.855485,-9475.577496
421.713181,95.712904,153.140646,-9360.722011
421.713809,57.427742,229.710970,-9360.722011
421.714436,0.000000,191.425808,-9303.294269
421.715063,-19.142581,248.853550,-9284.151688
421.715691,-38.285162,248.853550,-9399.007173
421.716318,19.142581,248.853550,-9379.864592
421.716945,95.712904,133.998066,-9418.149754
421.717573,95.712904,114.855485,-9418.149754
421.718200,133.998066,172.283227,-9456.434915
421.718827,133.998066,114.855485,-9494.720077
421.719455,210.568389,76.570323,-9399.007173
421.720082,210.568389,38.285162,-9475.577496
421.720709,172.283227,76.570323,-9475.577496
421.721337,210.568389,95.712904,-9475.577496
421.721964,153.140646,133.998066,-9437.292334
421.722591,19.142581,114.855485,-9418.149754
421.723219,38.285162,114.855485,-9418.149754
421.723846,57.427742,172.283227,-9341.579430
421.724473,38.285162,229.710970,-9418.149754
421.725101,0.000000,229.710970,-9322.436850
421.725728,-19.142581,153.140646,-9379.864592
421.726355,38.285162,172.283227,-9360.722011
421.726983,76.570323,191.425808,-9418.149754
421.727610,76.570323,172.283227,-9418.149754
421.728237,114.855485,114.855485,-9456.434915
421.728865,191.425808,76.570323,-9418.149754
421.729492,229.710970,76.570323,-9494.720077
421.730119,191.425808,76.570323,-9456.434915
421.730747,210.568389,133.998066,-9475.577496
421.731374,210.568389,133.998066,-9437.292334
421.732001,133.998066,133.998066,-9437.292334
421.732629,76.570323,153.140646,-9418.149754
421.733256,57.427742,172.283227,-9418.149754
421.733883,57.427742,191.425808,-9341.579430
421.734511,-38.285162,172.283227,-9399.007173
421.735138,-38.285162,172.283227,-9418.149754
421.735765,38.285162,153.140646,-9418.149754
421.736393,38.285162,114.855485,-9418.149754
421.737020,38.285162,114.855485,-9418.149754
421.737647,133.998066,114.855485,-9456.434915
421.738275,114.855485,95.712904,-9494.720077
421.738902,248.853550,76.570323,-9456.434915
421.739529,153.140646,76.570323,-9513.862658
421.740157,172.283227,76.570323,-9494.720077
421.740784,191.425808,76.570323,-9456.434915
421.741411,210.568389,95.712904,-9437.292334
421.742039,57.427742,114.855485,-9456.434915
421.742666,0.000000,153.140646,-9360.722011
421.743293,57.427742,172.283227,-9360.722011
421.743921,0.000000,191.425808,-9322.436850
421.744548,-38.285162,248.853550,-9399.007173
421.745175,-19.142581,229.710970,-9379.864592
421.745803,38.285162,153.140646,-9437.292334
421.746430,38.285162,114.855485,-9456.434915
421.747057,133.998066,114.855485,-9437.292334
421.747685,153.140646,114.855485,-9475.577496
421.748312,210.568389,76.570323,-9399.007173
421.748939,172.283227,76.570323,-9475.577496
421.749567,191.425808,76.570323,-9475.577496
421.750194,210.568389,95.712904,-9360.722011
421.750821,172.283227,95.712904,-9399.007173
421.751449,153.140646,114.855485,-9418.149754
421.752076,114.855485,114.855485,-9379.864592
421.752703,38.285162,172.283227,-9418.149754
421.753331,95.712904,153.140646,-9360.722011
421.753958,57.427742,210.568389,-9418.149754
421.754585,38.285162,229.710970,-9418.149754
421.755213,19.142581,172.283227,-9437.292334
421.755840,19.142581,114.855485,-9418.149754
421.756467,95.712904,172.283227,-9360.722011
421.757095,95.712904,133.998066,-9360.722011
421.757722,153.140646,76.570323,-9379.864592
421.758349,172.283227,76.570323,-9418.149754
421.758977,210.568389,133.998066,-9456.434915
421.759604,172.283227,76.570323,-9456.434915
421.760231,172.283227,76.570323,-9437.292334
421.760859,210.568389,133.998066,-9456.434915
421.761486,133.998066,153.140646,-9437.292334
421.762113,76.570323,210.568389,-9437.292334
421.762741,19.142581,114.855485,-9418.149754
421.763368,57.427742,210.568389,-9360.722011
421.763995,19.142581,210.568389,-9418.149754
421.764623,38.285162,229.710970,-9418.149754
421.765250,0.000000,172.283227,-9360.722011
421.765877,38.285162,153.140646,-9360.722011
421.766505,76.570323,76.570323,-9379.864592
421.767132,38.285162,76.570323,-9571.290400
421.767759,172.283227,95.712904,-9475.577496
421.768387,172.283227,76.570323,-9475.577496
421.769014,210.568389,133.998066,-9513.862658
421.769641,191.425808,133.998066,-9494.720077
421.770269,191.425808,76.570323,-9456.434915
421.770896,133.998066,114.855485,-9418.149754
421.771523,133.998066,133.998066,-9399.007173
421.772151,38.285162,229.710970,-9418.149754
421.772778,95.712904,191.425808,-9360.722011
421.773405,19.142581,229.710970,-9418.149754
421.774033,38.285162,229.710970,-9418.149754
421.774660,38.285162,229.710970,-9418.149754
421.775287,57.427742,248.853550,-9341.579430
421.775915,19.142581,153.140646,-9418.149754
421.776542,38.285162,114.855485,-9418.149754
421.777169,172.283227,76.570323,-9437.292334
421.777797,133.998066,172.283227,-9418.149754
421.778424,172.283227,95.712904,-9494.720077
421.779051,248.853550,133.998066,-9399.007173
421.779679,172.283227,76.570323,-9456.434915
421.780306,172.283227,76.570323,-9418.149754
421.780933,133.998066,114.855485,-9475.577496
421.781561,133.998066,210.568389,-9418.149754
421.782188,133.998066,153.140646,-9437.292334
421.782815,57.427742,229.710970,-9418.149754
421.783443,-19.142581,325.423874,-9418.149754
421.784070,-19.142581,229.710970,-9379.864592
421.784697,19.142581,153.140646,-9418.149754
421.785325,57.427742,210.568389,-9360.722011
421.785952,95.712904,172.283227,-9418.149754
421.786579,114.855485,114.855485,-9475.577496
421.787207,210.568389,133.998066,-9456.434915
421.787834,248.853550,57.427742,-9494.720077
421.788461,248.853550,133.998066,-9494.720077
421.789089,210.568389,76.570323,-9437.292334
421.789716,191.425808,76.570323,-9418.149754
421.790344,153.140646,133.998066,-9456.434915
421.790972,133.998066,172.283227,-9418.149754
421.791599,95.712904,229.710970,-9379.864592
421.792227,0.000000,248.853550,-9360.722011
421.792855,57.427742,248.853550,-9360.722011
421.793483,19.142581,229.710970,-9418.149754
421.794111,-38.285162,248.853550,-9399.007173
421.794738,38.285162,210.568389,-9399.007173
421.795366,57.427742,172.283227,-9418.149754
421.795994,133.998066,114.855485,-9418.149754
421.796622,133.998066,114.855485,-9494.720077
421.797250,210.568389,133.998066,-9513.862658
421.797878,191.425808,76.570323,-9533.005238
421.798505,267.996131,133.998066,-9437.292334
421.799133,287.138712,76.570323,-9475.577496
421.799761,210.568389,133.998066,-9437.292334
421.800389,172.283227,76.570323,-9418.149754
421.801017,95.712904,191.425808,-9360.722011
421.801645,38.285162,172.283227,-9360.722011
421.802272,0.000000,248.853550,-9360.722011
421.802900,0.000000,229.710970,-9399.007173
421.803528,57.427742,248.853550,-9341.579430
421.804156,0.000000,191.425808,-9341.579430
421.804784,57.427742,191.425808,-9360.722011
421.805412,57.427742,229.710970,-9418.149754
421.806039,76.570323,114.855485,-9437.292334
421.806667,153.140646,133.998066,-9513.862658
421.807295,248.853550,133.998066,-9475.577496
421.807923,153.140646,95.712904,-9552.147819
421.808551,229.710970,76.570323,-9437.292334
421.809179,172.283227,76.570323,-9475.577496
421.809806,191.425808,133.998066,-9399.007173
421.810434,57.427742,114.855485,-9399.007173
421.811062,57.427742,172.283227,-9456.434915
421.811690,19.142581,172.283227,-9418.149754
421.812318,-38.285162,210.568389,-9418.149754
421.812946,-95.712904,248.853550,-9399.007173
421.813573,-76.570323,210.568389,-9379.864592
421.814201,-19.142581,229.710970,-9379.864592
421.814829,95.712904,153.140646,-9360.722011
421.815457,133.998066,114.855485,-9437.292334
421.816085,76.570323,114.855485,-9475.577496
421.816713,153.140646,114.855485,-9475.577496
421.817340,191.425808,57.427742,-9475.577496
421.817968,153.140646,57.427742,-9475.577496
421.818596,229.710970,57.427742,-9475.577496
421.819224,114.855485,95.712904,-9494.720077
421.819852,153.140646,133.998066,-9399.007173
421.820480,76.570323,153.140646,-9418.149754
421.821107,38.285162,210.568389,-9418.149754
421.821735,76.570323,153.140646,-9360.722011
421.822363,19.142581,229.710970,-9418.149754
421.822991,0.000000,248.853550,-9341.579430
421.823619,-19.142581,153.140646,-9379.864592
421.824247,19.142581,210.568389,-9437.292334
421.824874,76.570323,153.140646,-9475.577496
421.825502,57.427742,95.712904,-9437.292334
421.826130,133.998066,114.855485,-9418.149754
421.826758,210.568389,133.998066,-9456.434915
421.827386,191.425808,76.570323,-9437.292334
421.828014,248.853550,133.998066,-9456.434915
421.828641,172.283227,76.570323,-9475.577496
421.829269,191.425808,76.570323,-9418.149754
421.829897,133.998066,153.140646,-9437.292334
421.830525,38.285162,153.140646,-9360.722011
421.831153,19.142581,191.425808,-9341.579430
421.831781,0.000000,248.853550,-9360.722011
421.832408,-57.427742,248.853550,-9399.007173
421.833036,-76.570323,172.283227,-9379.864592
421.833664,0.000000,248.853550,-9341.579430
421.834292,38.285162,229.710970,-9418.149754
421.834920,38.285162,153.140646,-9437.292334
421.835547,133.998066,153.140646,-9475.577496
421.836175,153.140646,114.855485,-9475.577496
421.836803,210.568389,57.427742,-9475.577496
421.837431,191.425808,76.570323,-9475.577496
421.838059,114.855485,95.712904,-9456.434915
421.838687,191.425808,76.570323,-9456.434915
421.839314,153.140646,133.998066,-9494.720077
421.839942,76.570323,153.140646,-9418.149754
421.840570,0.000000,153.140646,-9360.722011
421.841198,38.285162,76.570323,-9379.864592
421.841826,57.427742,153.140646,-9360.722011
421.842454,19.142581,229.710970,-9360.722011
421.843081,-19.142581,210.568389,-9379.864592
421.843709,57.427742,172.283227,-9418.149754
421.844337,76.570323,114.855485,-9418.149754
421.844965,114.855485,95.712904,-9399.007173
421.845593,153.140646,133.998066,-9456.434915
421.846221,210.568389,133.998066,-9456.434915
421.846848,191.425808,76.570323,-9494.720077
421.847476,153.140646,133.998066,-9456.434915
421.848104,191.425808,57.427742,-9533.005238
421.848732,153.140646,133.998066,-9399.007173
421.849360,133.998066,172.283227,-9494.720077
421.849988,38.285162,172.283227,-9360.722011
421.850615,57.427742,172.283227,-9360.722011
421.851243,-19.142581,210.568389,-9379.864592
421.851871,-38.285162,248.853550,-9399.007173
421.852499,57.427742,248.853550,-9284.151688
421.853127,38.285162,210.568389,-9418.149754
421.853755,76.570323,133.998066,-9360.722011
421.854382,76.570323,114.855485,-9418.149754
421.855010,133.998066,114.855485,-9437.292334
421.855638,191.425808,76.570323,-9418.149754
421.856266,210.568389,76.570323,-9456.434915
421.856894,210.568389,76.570323,-9475.577496
421.857522,229.710970,76.570323,-9494.720077
421.858149,229.710970,76.570323,-9475.577496
421.858777,153.140646,172.283227,-9437.292334
421.859405,133.998066,95.712904,-9360.722011
421.860033,19.142581,153.140646,-9418.149754
421.860661,19.142581,210.568389,-9360.722011
421.861289,0.000000,248.853550,-9360.722011
421.861916,-38.285162,191.425808,-9399.007173
421.862544,38.285162,153.140646,-9418.149754
421.863172,76.570323,114.855485,-9360.722011
421.863800,57.427742,191.425808,-9360.722011
421.864428,133.998066,153.140646,-9418.149754
421.865056,153.140646,133.998066,-9399.007173
421.865683,191.425808,76.570323,-9475.577496
421.866311,191.425808,76.570323,-9533.005238
421.866939,248.853550,76.570323,-9475.577496
421.867567,172.283227,76.570323,-9456.434915
421.868195,210.568389,133.998066,-9437.292334
421.868823,153.140646,153.140646,-9437.292334
421.869450,76.570323,191.425808,-9418.149754
421.870078,19.142581,210.568389,-9360.722011
421.870706,0.000000,229.710970,-9379.864592
421.871334,38.285162,229.710970,-9418.149754
421.871962,-76.570323,229.710970,-9322.436850
421.872590,-19.142581,248.853550,-9418.149754
421.873217,95.712904,248.853550,-9341.579430
421.873845,133.998066,210.568389,-9418.149754
421.874473,95.712904,114.855485,-9494.720077
421.875101,153.140646,172.283227,-9475.577496
421.875729,210.568389,133.998066,-9494.720077
421.876356,210.568389,133.998066,-9513.862658
421.876984,172.283227,76.570323,-9437.292334
421.877612,191.425808,57.427742,-9475.577496
421.878240,210.568389,133.998066,-9437.292334
421.878868,133.998066,133.998066,-9399.007173
421.879496,38.285162,191.425808,-9418.149754
421.880123,38.285162,248.853550,-9360.722011
421.880751,19.142581,210.568389,-9418.149754
421.881379,57.427742,306.281293,-9399.007173
421.882007,19.142581,248.853550,-9379.864592
421.882635,19.142581,210.568389,-9399.007173
421.883263,0.000000,191.425808,-9360.722011
421.883890,95.712904,172.283227,-9360.722011
421.884518,153.140646,114.855485,-9437.292334
421.885146,191.425808,76.570323,-9475.577496
421.885774,191.425808,57.427742,-9475.577496
421.886402,229.710970,76.570323,-9456.434915
421.887030,172.283227,57.427742,-9418.149754
421.887657,172.283227,76.570323,-9418.149754
421.888285,76.570323,172.283227,-9418.149754
421.888913,76.570323,172.283227,-9418.149754
421.889541,38.285162,210.568389,-9418.149754
421.890169,38.285162,229.710970,-9418.149754
421.890796,-38.285162,248.853550,-9379.864592
421.891424,0.000000,287.138712,-9399.007173
421.892052,-19.142581,210.568389,-9399.007173
421.892679,57.427742,153.140646,-9360.722011
421.893307,38.285162,153.140646,-9418.149754
421.893934,76.570323,114.855485,-9494.720077
421.894562,76.570323,114.855485,-9418.149754
421.895189,229.710970,133.998066,-9494.720077
421.895817,153.140646,114.855485,-9475.577496
421.896445,210.568389,57.427742,-9418.149754
421.897072,172.283227,76.570323,-9418.149754
421.897700,191.425808,76.570323,-9418.149754
421.898327,114.855485,95.712904,-9399.007173
421.898955,38.285162,153.140646,-9360.722011
421.899582,38.285162,172.283227,-9418.149754
421.900210,0.000000,153.140646,-9341.579430
421.900838,0.000000,248.853550,-9360.722011
421.901465,-38.285162,287.138712,-9360.722011
421.902093,0.000000,191.425808,-9341.579430
421.902720,19.142581,153.140646,-9418.149754
421.903348,76.570323,114.855485,-9418.149754
421.903976,114.855485,133.998066,-9418.149754
421.904603,210.568389,133.998066,-9456.434915
421.905231,153.140646,133.998066,-9513.862658
421.905858,191.425808,76.570323,-9456.434915
421.906486,229.710970,76.570323,-9418.149754
421.907113,191.425808,76.570323,-9456.434915
421.907741,172.283227,76.570323,-9437.292334
421.908369,76.570323,172.283227,-9418.149754
421.908996,57.427742,248.853550,-9360.722011
421.909624,57.427742,287.138712,-9399.007173
421.910251,-38.285162,248.853550,-9399.007173
421.910879,0.000000,248.853550,-9418.149754
421.911507,-57.427742,191.425808,-9399.007173
421.912134,19.142581,191.425808,-9418.149754
421.912762,38.285162,172.283227,-9418.149754
421.913389,76.570323,153.140646,-9418.149754
421.914017,210.568389,153.140646,-9399.007173
421.914644,248.853550,133.998066,-9513.862658
421.915272,153.140646,133.998066,-9494.720077
421.915900,229.710970,76.570323,-9418.149754
421.916527,172.283227,76.570323,-9475.577496
421.917155,153.140646,133.998066,-9399.007173
421.917782,76.570323,114.855485,-9437.292334
421.918410,38.285162,133.998066,-9360.722011
421.919037,19.142581,172.283227,-9418.149754
421.919665,-19.142581,210.568389,-9379.864592
421.920293,57.427742,248.853550,-9360.722011
421.920920,0.000000,248.853550,-9360.722011
421.921548,38.285162,210.568389,-9418.149754
421.922175,133.998066,153.140646,-9437.292334
421.922803,76.570323,114.855485,-9418.149754
421.923431,133.998066,114.855485,-9533.005238
421.924058,191.425808,76.570323,-9475.577496
421.924686,191.425808,76.570323,-9456.434915
421.925313,248.853550,76.570323,-9456.434915
421.925941,210.568389,57.427742,-9437.292334
421.926568,210.568389,76.570323,-9456.434915
421.927196,114.855485,95.712904,-9475.577496
421.927824,38.285162,114.855485,-9418.149754
421.928451,38.285162,153.140646,-9418.149754
421.929079,95.712904,210.568389,-9360.722011
421.929706,0.000000,210.568389,-9341.579430
421.930334,-57.427742,191.425808,-9399.007173
421.930962,-19.142581,229.710970,-9379.864592
421.931589,76.570323,172.283227,-9418.149754
421.932217,19.142581,153.140646,-9418.149754
421.932844,76.570323,114.855485,-9437.292334
421.933472,114.855485,172.283227,-9418.149754
421.934099,191.425808,76.570323,-9418.149754
421.934727,248.853550,76.570323,-9533.005238
421.935355,210.568389,133.998066,-9399.007173
421.935982,229.710970,57.427742,-9437.292334
421.936610,172.283227,76.570323,-9418.149754
421.937237,76.570323,153.140646,-9418.149754
421.937865,57.427742,153.140646,-9360.722011
421.938492,38.285162,229.710970,-9418.149754
421.939120,19.142581,229.710970,-9418.149754
421.939748,-19.142581,229.710970,-9456.434915
421.940375,57.427742,248.853550,-9341.579430
421.941003,38.285162,153.140646,-9418.149754
421.941630,76.570323,229.710970,-9418.149754
421.942258,38.285162,153.140646,-9418.149754
421.942886,95.712904,114.855485,-9456.434915
421.943513,153.140646,133.998066,-9456.434915
421.944141,172.283227,76.570323,-9418.149754
421.944768,210.568389,172.283227,-9494.720077
421.945396,210.568389,133.998066,-9456.434915
421.946023,191.425808,76.570323,-9437.292334
421.946651,153.140646,133.998066,-9399.007173
421.947279,76.570323,172.283227,-9418.149754
421.947906,38.285162,191.425808,-9418.149754
421.948534,38.285162,172.283227,-9456.434915
421.949161,38.285162,172.283227,-9418.149754
421.949789,19.142581,267.996131,-9379.864592
421.950417,19.142581,153.140646,-9418.149754
421.951044,38.285162,153.140646,-9360.722011
421.951672,38.285162,172.283227,-9437.292334
421.952299,76.570323,114.855485,-9418.149754
421.952927,114.855485,95.712904,-9399.007173
421.953554,191.425808,76.570323,-9475.577496
421.954182,210.568389,133.998066,-9513.862658
421.954810,248.853550,133.998066,-9437.292334
421.955437,172.283227,76.570323,-9494.720077
421.956065,172.283227,76.570323,-9418.149754
421.956692,76.570323,114.855485,-9475.577496
421.957320,57.427742,133.998066,-9418.149754
421.957947,133.998066,172.283227,-9418.149754
421.958575,19.142581,229.710970,-9418.149754
421.959203,-19.142581,191.425808,-9379.864592
421.959830,0.000000,248.853550,-9341.579430
421.960458,57.427742,133.998066,-9341.579430
421.961085,57.427742,172.283227,-9360.722011
421.961713,76.570323,153.140646,-9456.434915
421.962341,133.998066,114.855485,-9456.434915
421.962968,153.140646,133.998066,-9494.720077
421.963596,229.710970,76.570323,-9475.577496
421.964223,172.283227,38.285162,-9475.577496
421.964851,248.853550,133.998066,-9399.007173
421.965478,191.425808,76.570323,-9475.577496
421.966106,172.283227,76.570323,-9418.149754
421.966734,76.570323,114.855485,-9437.292334
421.967361,19.142581,114.855485,-9360.722011
421.967989,19.142581,210.568389,-9418.149754
421.968616,38.285162,191.425808,-9379.864592
421.969244,0.000000,248.853550,-9360.722011
421.969872,-38.285162,191.425808,-9399.007173
421.970499,38.285162,210.568389,-9418.149754
421.971127,76.570323,172.283227,-9418.149754
421.971754,133.998066,153.140646,-9437.292334
421.972382,153.140646,153.140646,-9475.577496
421.973009,210.568389,76.570323,-9418.149754
421.973637,210.568389,57.427742,-9475.577496
421.974265,114.855485,95.712904,-9437.292334
421.974892,210.568389,133.998066,-9494.720077
421.975520,210.568389,133.998066,-9399.007173
421.976147,114.855485,76.570323,-9437.292334
421.976775,95.712904,114.855485,-9456.434915
421.977402,95.712904,210.568389,-9360.722011
421.978030,95.712904,191.425808,-9360.722011
421.978658,0.000000,248.853550,-9360.722011
421.979285,-19.142581,210.568389,-9341.579430
421.979913,-38.285162,191.425808,-9399.007173
421.980540,19.142581,153.140646,-9379.864592
421.981168,76.570323,114.855485,-9437.292334
421.981796,114.855485,95.712904,-9399.007173
421.982423,210.568389,172.283227,-9399.007173
421.983051,153.140646,133.998066,-9456.434915
421.983678,114.855485,95.712904,-9494.720077
421.984306,210.568389,133.998066,-9494.720077
421.984933,191.425808,76.570323,-9475.577496
421.985561,248.853550,133.998066,-9399.007173
421.986189,153.140646,191.425808,-9399.007173
421.986816,76.570323,210.568389,-9418.149754
421.987444,57.427742,191.425808,-9360.722011
421.988071,-19.142581,287.138712,-9399.007173
421.988699,-38.285162,248.853550,-9399.007173
421.989327,-19.142581,153.140646,-9341.579430
421.989954,19.142581,153.140646,-9399.007173
421.990582,57.427742,153.140646,-9418.149754
421.991209,38.285162,114.855485,-9437.292334
421.991837,133.998066,114.855485,-9418.149754
421.992465,191.425808,57.427742,-9475.577496
421.993093,172.283227,76.570323,-9475.577496
421.993720,248.853550,76.570323,-9456.434915
421.994348,191.425808,133.998066,-9456.434915
421.994976,210.568389,133.998066,-9399.007173
421.995603,248.853550,153.140646,-9456.434915
421.996231,114.855485,133.998066,-9360.722011
421.996859,57.427742,133.998066,-9360.722011
421.997487,57.427742,248.853550,-9360.722011
421.998114,38.285162,229.710970,-9418.149754
421.998742,0.000000,287.138712,-9399.007173
421.999370,38.285162,229.710970,-9437.292334
421.999997,38.285162,153.140646,-9418.149754
422.000625,38.285162,114.855485,-9418.149754
422.001253,133.998066,114.855485,-9418.149754
422.001881,172.283227,95.712904,-9456.434915
422.002508,210.568389,133.998066,-9494.720077
422.003136,191.425808,76.570323,-9533.005238
422.003764,191.425808,133.998066,-9494.720077
422.004391,172.283227,95.712904,-9399.007173
422.005019,191.425808,133.998066,-9399.007173
422.005647,133.998066,114.855485,-9475.577496
422.006275,38.285162,114.855485,-9418.149754
422.006902,76.570323,210.568389,-9418.149754
422.007530,0.000000,248.853550,-9341.579430
422.008158,38.285162,229.710970,-9418.149754
422.008785,0.000000,191.425808,-9341.579430
422.009413,-38.285162,191.425808,-9399.007173
422.010041,76.570323,287.138712,-9494.720077
422.010669,114.855485,172.283227,-9552.147819
422.011296,133.998066,114.855485,-9456.434915
422.011924,153.140646,114.855485,-9418.149754
422.012552,191.425808,76.570323,-9475.577496
422.013179,172.283227,76.570323,-9475.577496
422.013807,172.283227,76.570323,-9475.577496
422.014435,153.140646,133.998066,-9399.007173
422.015063,153.140646,133.998066,-9399.007173
422.015690,114.855485,76.570323,-9437.292334
422.016318,76.570323,153.140646,-9418.149754
422.016946,57.427742,287.138712,-9399.007173
422.017573,38.285162,229.710970,-9418.149754
422.018201,57.427742,153.140646,-9360.722011
422.018829,19.142581,210.568389,-9418.149754
422.019457,38.285162,172.283227,-9418.149754
422.020084,133.998066,153.140646,-9418.149754
422.020712,38.285162,114.855485,-9418.149754
422.021340,133.998066,114.855485,-9475.577496
422.021968,248.853550,133.998066,-9475.577496
422.022595,191.425808,76.570323,-9437.292334
422.023223,191.425808,76.570323,-9456.434915
422.023851,229.710970,76.570323,-9475.577496
422.024478,191.425808,76.570323,-9475.577496
422.025106,133.998066,210.568389,-9456.434915
422.025734,38.285162,172.283227,-9437.292334
422.026362,19.142581,210.568389,-9456.434915
422.026989,57.427742,191.425808,-9360.722011
422.027617,-57.427742,287.138712,-9360.722011
422.028245,0.000000,191.425808,-9322.436850
422.028872,-38.285162,172.283227,-9494.720077
422.029500,57.427742,172.283227,-9360.722011
422.030128,76.570323,114.855485,-9418.149754
422.030756,114.855485,133.998066,-9360.722011
422.031383,153.140646,133.998066,-9437.292334
422.032011,191.425808,76.570323,-9437.292334
422.032639,191.425808,76.570323,-9475.577496
422.033266,172.283227,76.570323,-9475.577496
422.033894,114.855485,57.427742,-9437.292334
422.034522,133.998066,133.998066,-9399.007173
422.035150,76.570323,114.855485,-9360.722011
422.035777,57.427742,133.998066,-9360.722011
422.036405,38.285162,172.283227,-9341.579430
422.037033,0.000000,210.568389,-9379.864592
422.037660,0.000000,248.853550,-9360.722011
422.038288,-38.285162,191.425808,-9399.007173
422.038916,38.285162,153.140646,-9456.434915
422.039544,38.285162,229.710970,-9418.149754
422.040171,76.570323,114.855485,-9418.149754
422.040799,210.568389,133.998066,-9437.292334
422.041427,191.425808,76.570323,-9475.577496
422.042054,172.283227,76.570323,-9494.720077
422.042682,229.710970,76.570323,-9456.434915
422.043310,153.140646,133.998066,-9494.720077
422.043938,172.283227,133.998066,-9418.149754
422.044565,133.998066,153.140646,-9437.292334
422.045193,57.427742,133.998066,-9418.149754
422.045821,57.427742,191.425808,-9360.722011
422.046448,57.427742,172.283227,-9341.579430
422.047076,-38.285162,248.853550,-9399.007173
422.047704,19.142581,191.425808,-9399.007173
422.048332,114.855485,210.568389,-9360.722011
422.048959,38.285162,153.140646,-9418.149754
422.049587,76.570323,210.568389,-9437.292334
422.050215,133.998066,172.283227,-9456.434915
422.050842,133.998066,114.855485,-9437.292334
422.051470,248.853550,76.570323,-9418.149754
422.052098,210.568389,133.998066,-9494.720077
422.052726,229.710970,57.427742,-9437.292334
422.053353,191.425808,38.285162,-9533.005238
422.053981,153.140646,133.998066,-9437.292334
422.054609,95.712904,95.712904,-9399.007173
422.055236,0.000000,191.425808,-9360.722011
422.055864,19.142581,287.138712,-9360.722011
422.056492,-38.285162,191.425808,-9399.007173
422.057120,-38.285162,248.853550,-9399.007173
422.057747,-19.142581,229.710970,-9399.007173
422.058375,19.142581,229.710970,-9418.149754
422.059003,95.712904,172.283227,-9341.579430
422.059630,95.712904,153.140646,-9418.149754
422.060258,172.283227,95.712904,-9399.007173
422.060886,248.853550,133.998066,-9399.007173
422.061514,210.568389,76.570323,-9494.720077
422.062141,133.998066,114.855485,-9456.434915
422.062769,191.425808,57.427742,-9437.292334
422.063397,153.140646,133.998066,-9399.007173
422.064024,172.283227,76.570323,-9437.292334
422.064652,76.570323,172.283227,-9418.149754
422.065280,133.998066,114.855485,-9418.149754
422.065908,-38.285162,248.853550,-9399.007173
422.066535,-76.570323,172.283227,-9379.864592
422.067163,19.142581,210.568389,-9418.149754
422.067791,19.142581,172.283227,-9418.149754
422.068419,95.712904,172.283227,-9360.722011
422.069046,114.855485,133.998066,-9360.722011
422.069674,114.855485,95.712904,-9399.007173
422.070302,191.425808,76.570323,-9475.577496
422.070929,153.140646,133.998066,-9456.434915
422.071557,133.998066,114.855485,-9475.577496
422.072185,210.568389,76.570323,-9533.005238
422.072813,191.425808,76.570323,-9437.292334
422.073440,172.283227,76.570323,-9418.149754
422.074068,76.570323,114.855485,-9418.149754
422.074696,38.285162,114.855485,-9437.292334
422.075323,19.142581,153.140646,-9418.149754
422.075951,19.142581,172.283227,-9360.722011
422.076579,-19.142581,210.568389,-9379.864592
422.077207,-38.285162,191.425808,-9399.007173
422.077834,19.142581,153.140646,-9418.149754
422.078462,76.570323,114.855485,-9418.149754
422.079090,95.712904,114.855485,-9418.149754
422.079717,76.570323,114.855485,-9475.577496
422.080345,191.425808,76.570323,-9475.577496
422.080973,191.425808,133.998066,-9494.720077
422.081601,248.853550,76.570323,-9494.720077
422.082228,229.710970,76.570323,-9552.147819
422.082856,229.710970,76.570323,-9456.434915
422.083484,153.140646,133.998066,-9399.007173
422.084111,76.570323,210.568389,-9418.149754
422.084739,76.570323,229.710970,-9418.149754
422.085367,57.427742,210.568389,-9418.149754
422.085995,19.142581,153.140646,-9418.149754
422.086622,38.285162,210.568389,-9360.722011
422.087250,-19.142581,153.140646,-9399.007173
422.087878,76.570323,172.283227,-9418.149754
422.088505,133.998066,133.998066,-9456.434915
422.089133,133.998066,114.855485,-9456.434915
422.089761,191.425808,76.570323,-9418.149754
422.090389,191.425808,57.427742,-9437.292334
422.091016,172.283227,95.712904,-9456.434915
422.091644,191.425808,76.570323,-9494.720077
422.092272,191.425808,76.570323,-9418.149754
422.092900,210.568389,133.998066,-9437.292334
422.093527,95.712904,95.712904,-9399.007173
422.094155,76.570323,210.568389,-9418.149754
422.094783,19.142581,229.710970,-9418.149754
422.095411,19.142581,248.853550,-9360.722011
422.096038,-38.285162,229.710970,-9418.149754
422.096666,19.142581,229.710970,-9418.149754
422.097294,-38.285162,191.425808,-9418.149754
422.097922,57.427742,248.853550,-9360.722011
422.098549,95.712904,95.712904,-9399.007173
422.099177,114.855485,95.712904,-9399.007173
422.099805,172.283227,76.570323,-9475.577496
422.100433,229.710970,76.570323,-9456.434915
422.101061,191.425808,57.427742,-9475.577496
422.101688,172.283227,76.570323,-9475.577496
422.102316,133.998066,114.855485,-9456.434915
422.102944,210.568389,133.998066,-9456.434915
422.103572,153.140646,133.998066,-9399.007173
422.104199,76.570323,229.710970,-9418.149754
422.104827,38.285162,114.855485,-9360.722011
422.105455,0.000000,210.568389,-9360.722011
422.106083,0.000000,325.423874,-9418.149754
422.106710,0.000000,287.138712,-9379.864592
422.107338,95.712904,287.138712,-9399.007173
422.107966,38.285162,172.283227,-9418.149754
422.108594,76.570323,114.855485,-9418.149754
422.109221,133.998066,114.855485,-9418.149754
422.109849,191.425808,76.570323,-9437.292334
422.110477,172.283227,133.998066,-9552.147819
422.111105,229.710970,76.570323,-9437.292334
422.111732,229.710970,133.998066,-9437.292334
422.112360,210.568389,133.998066,-9456.434915
422.112988,133.998066,172.283227,-9418.149754
422.113616,38.285162,229.710970,-9418.149754
422.114244,0.000000,191.425808,-9360.722011
422.114871,0.000000,248.853550,-9360.722011
422.115499,0.000000,229.710970,-9379.864592
422.116127,-76.570323,229.710970,-9379.864592
422.116755,19.142581,210.568389,-9399.007173
422.117382,19.142581,229.710970,-9418.149754
422.118010,95.712904,210.568389,-9456.434915
422.118638,76.570323,114.855485,-9437.292334
422.119266,153.140646,133.998066,-9399.007173
422.119893,172.283227,76.570323,-9437.292334
422.120521,114.855485,57.427742,-9437.292334
422.121149,210.568389,76.570323,-9475.577496
422.121777,191.425808,76.570323,-9456.434915
422.122404,153.140646,133.998066,-9399.007173
422.123032,76.570323,114.855485,-9418.149754
422.123660,57.427742,248.853550,-9341.579430
422.124288,0.000000,191.425808,-9360.722011
422.124916,38.285162,210.568389,-9418.149754
422.125543,19.142581,229.710970,-9418.149754
422.126171,19.142581,229.710970,-9418.149754
422.126799,19.142581,191.425808,-9399.007173
422.127427,76.570323,153.140646,-9418.149754
422.128054,38.285162,114.855485,-9437.292334
422.128682,133.998066,114.855485,-9494.720077
422.129310,153.140646,114.855485,-9456.434915
422.129938,191.425808,76.570323,-9494.720077
422.130565,210.568389,76.570323,-9475.577496
422.131193,210.568389,133.998066,-9399.007173
422.131821,229.710970,76.570323,-9418.149754
422.132449,153.140646,133.998066,-9456.434915
422.133076,76.570323,114.855485,-9418.149754
422.133704,38.285162,191.425808,-9418.149754
422.134332,57.427742,248.853550,-9360.722011
422.134960,19.142581,248.853550,-9399.007173
422.135588,-76.570323,267.996131,-9418.149754
422.136215,-76.570323,210.568389,-9379.864592
422.136843,-19.142581,114.855485,-9379.864592
422.137471,95.712904,95.712904,-9399.007173
422.138099,38.285162,114.855485,-9437.292334
422.138726,133.998066,114.855485,-9437.292334
422.139354,229.710970,76.570323,-9533.005238
422.139982,210.568389,95.712904,-9552.147819
422.140610,229.710970,76.570323,-9494.720077
422.141237,210.568389,133.998066,-9494.720077
422.141865,172.283227,76.570323,-9418.149754
422.142493,95.712904,95.712904,-9399.007173
422.143121,76.570323,114.855485,-9418.149754
422.143748,57.427742,172.283227,-9418.149754
422.144376,19.142581,191.425808,-9418.149754
422.145004,-19.142581,229.710970,-9322.436850
422.145632,-19.142581,229.710970,-9379.864592
422.146259,76.570323,172.283227,-9360.722011
422.146887,57.427742,153.140646,-9418.149754
422.147515,76.570323,153.140646,-9418.149754
422.148143,172.283227,95.712904,-9513.862658
422.148771,191.425808,76.570323,-9533.005238
422.149398,248.853550,76.570323,-9475.577496
422.150026,229.710970,76.570323,-9456.434915
422.150654,191.425808,76.570323,-9533.005238
422.151282,191.425808,76.570323,-9456.434915
422.151909,153.140646,133.998066,-9399.007173
422.152537,76.570323,95.712904,-9399.007173
422.153165,38.285162,172.283227,-9418.149754
422.153793,19.142581,210.568389,-9418.149754
422.154420,19.142581,191.425808,-9399.007173
422.155048,0.000000,248.853550,-9322.436850
422.155676,19.142581,191.425808,-9379.864592
422.156304,57.427742,191.425808,-9360.722011
422.156931,95.712904,114.855485,-9437.292334
422.157559,133.998066,114.855485,-9418.149754
422.158187,153.140646,133.998066,-9513.862658
422.158815,191.425808,76.570323,-9456.434915
422.159443,172.283227,114.855485,-9513.862658
422.160070,229.710970,76.570323,-9437.292334
422.160698,172.283227,76.570323,-9475.577496
422.161326,267.996131,133.998066,-9437.292334
422.161954,133.998066,133.998066,-9399.007173
422.162581,38.285162,172.283227,-9418.149754
422.163209,38.285162,229.710970,-9418.149754
422.163837,0.000000,248.853550,-9360.722011
422.164465,-57.427742,248.853550,-9379.864592
422.165092,0.000000,210.568389,-9341.579430
422.165720,19.142581,172.283227,-9456.434915
422.166348,38.285162,210.568389,-9418.149754
422.166976,38.285162,133.998066,-9379.864592
422.167603,153.140646,114.855485,-9418.149754
422.168231,191.425808,76.570323,-9418.149754
422.168859,229.710970,76.570323,-9533.005238
422.169487,248.853550,76.570323,-9437.292334
422.170114,210.568389,133.998066,-9513.862658
422.170742,191.425808,76.570323,-9475.577496
422.171370,76.570323,172.283227,-9418.149754
422.171998,38.285162,210.568389,-9418.149754
422.172626,76.570323,172.283227,-9418.149754
422.173253,-76.570323,114.855485,-9379.864592
422.173881,-76.570323,229.710970,-9379.864592
422.174509,-19.142581,267.996131,-9418.149754
422.175137,57.427742,133.998066,-9360.722011
422.175764,57.427742,191.425808,-9418.149754
422.176392,76.570323,172.283227,-9437.292334
422.177020,133.998066,114.855485,-9456.434915
422.177648,153.140646,172.283227,-9456.434915
422.178275,210.568389,133.998066,-9494.720077
422.178903,210.568389,133.998066,-9513.862658
422.179531,229.710970,76.570323,-9437.292334
422.180159,172.283227,57.427742,-9456.434915
422.180786,172.283227,76.570323,-9456.434915
422.181414,95.712904,95.712904,-9399.007173
422.182042,38.285162,153.140646,-9418.149754
422.182670,19.142581,172.283227,-9456.434915
422.183298,57.427742,287.138712,-9399.007173
422.183925,57.427742,248.853550,-9360.722011
422.184553,19.142581,248.853550,-9379.864592
422.185181,38.285162,172.283227,-9418.149754
422.185809,38.285162,210.568389,-9418.149754
422.186436,114.855485,95.712904,-9399.007173
422.187064,114.855485,114.855485,-9437.292334
422.187692,191.425808,76.570323,-9437.292334
422.188320,191.425808,76.570323,-9437.292334
422.188947,229.710970,133.998066,-9399.007173
422.189575,172.283227,76.570323,-9418.149754
422.190203,191.425808,76.570323,-9418.149754
422.190831,133.998066,133.998066,-9494.720077
422.191458,38.285162,153.140646,-9456.434915
422.192086,19.142581,172.283227,-9418.149754
422.192714,38.285162,210.568389,-9418.149754
422.193342,19.142581,210.568389,-9418.149754
422.193970,0.000000,248.853550,-9418.149754
422.194598,-38.285162,172.283227,-9399.007173
422.195226,19.142581,172.283227,-9418.149754
422.195853,76.570323,210.568389,-9456.434915
422.196481,57.427742,95.712904,-9399.007173
422.197109,172.283227,76.570323,-9437.292334
422.197737,210.568389,133.998066,-9456.434915
422.198365,191.425808,76.570323,-9475.577496
422.198993,210.568389,133.998066,-9475.577496
422.199621,287.138712,38.285162,-9456.434915
422.200248,153.140646,133.998066,-9399.007173
422.200876,133.998066,114.855485,-9437.292334
422.201504,38.285162,210.568389,-9360.722011
422.202132,57.427742,229.710970,-9379.864592
422.202760,0.000000,210.568389,-9360.722011
422.203388,-38.285162,172.283227,-9379.864592
422.204016,0.000000,210.568389,-9379.864592
422.204643,38.285162,229.710970,-9418.149754
422.205271,38.285162,210.568389,-9418.149754
422.205899,95.712904,172.283227,-9418.149754
422.206527,95.712904,172.283227,-9418.149754
422.207155,153.140646,114.855485,-9475.577496
422.207783,229.710970,76.570323,-9533.005238
422.208410,191.425808,76.570323,-9475.577496
422.209038,172.283227,76.570323,-9494.720077
422.209666,172.283227,76.570323,-9418.149754
422.210294,153.140646,95.712904,-9418.149754
422.210922,114.855485,76.570323,-9418.149754
422.211550,76.570323,172.283227,-9456.434915
422.212178,19.142581,210.568389,-9418.149754
422.212805,-19.142581,248.853550,-9418.149754
422.213433,-38.285162,248.853550,-9399.007173
422.214061,-19.142581,248.853550,-9418.149754
422.214689,38.285162,153.140646,-9418.149754
422.215317,76.570323,114.855485,-9418.149754
422.215945,57.427742,172.283227,-9418.149754
422.216573,210.568389,133.998066,-9513.862658
422.217200,248.853550,76.570323,-9437.292334
422.217828,172.283227,57.427742,-9437.292334
422.218456,191.425808,76.570323,-9456.434915
422.219084,191.425808,76.570323,-9475.577496
422.219712,153.140646,133.998066,-9494.720077
422.220340,133.998066,172.283227,-9418.149754
422.220968,38.285162,210.568389,-9456.434915
422.221595,19.142581,114.855485,-9437.292334
422.222223,19.142581,210.568389,-9399.007173
422.222851,-38.285162,210.568389,-9399.007173
422.223479,19.142581,229.710970,-9360.722011
422.224107,57.427742,172.283227,-9418.149754
422.224735,76.570323,153.140646,-9418.149754
422.225363,38.285162,114.855485,-9418.149754
422.225990,133.998066,95.712904,-9475.577496
422.226618,172.283227,95.712904,-9456.434915
422.227246,172.283227,133.998066,-9456.434915
422.227874,191.425808,76.570323,-9533.005238
422.228502,153.140646,95.712904,-9552.147819
422.229130,172.283227,76.570323,-9475.577496
422.229758,153.140646,95.712904,-9360.722011
422.230385,153.140646,153.140646,-9399.007173
422.231013,19.142581,114.855485,-9418.149754
422.231641,38.285162,210.568389,-9418.149754
422.232269,0.000000,191.425808,-9341.579430
422.232897,-76.570323,267.996131,-9456.434915
422.233525,-38.285162,210.568389,-9399.007173
422.234153,19.142581,229.710970,-9360.722011
422.234780,57.427742,133.998066,-9360.722011
422.235408,133.998066,114.855485,-9456.434915
422.236036,133.998066,114.855485,-9533.005238
422.236664,248.853550,76.570323,-9418.149754
422.237292,229.710970,76.570323,-9533.005238
422.237920,210.568389,133.998066,-9399.007173
422.238547,210.568389,95.712904,-9552.147819
422.239175,191.425808,133.998066,-9437.292334
422.239803,76.570323,114.855485,-9418.149754
422.240431,38.285162,153.140646,-9418.149754
422.241059,19.142581,210.568389,-9418.149754
422.241687,38.285162,229.710970,-9418.149754
422.242315,-38.285162,153.140646,-9399.007173
422.242942,38.285162,172.283227,-9418.149754
422.243570,19.142581,229.710970,-9418.149754
422.244198,76.570323,153.140646,-9360.722011
422.244826,19.142581,114.855485,-9494.720077
422.245454,76.570323,153.140646,-9475.577496
422.246082,172.283227,76.570323,-9494.720077
422.246710,191.425808,76.570323,-9437.292334
422.247337,210.568389,133.998066,-9494.720077
422.247965,210.568389,133.998066,-9456.434915
422.248593,229.710970,76.570323,-9456.434915
422.249221,133.998066,172.283227,-9399.007173
422.249849,133.998066,114.855485,-9437.292334
422.250477,76.570323,229.710970,-9418.149754
422.251105,0.000000,191.425808,-9284.151688
422.251732,-19.142581,191.425808,-9322.436850
422.252360,-38.285162,248.853550,-9379.864592
422.252988,-38.285162,287.138712,-9360.722011
422.253616,38.285162,210.568389,-9418.149754
422.254244,76.570323,153.140646,-9418.149754
422.254872,191.425808,76.570323,-9418.149754
422.255500,191.425808,76.570323,-9475.577496
422.256127,229.710970,76.570323,-9456.434915
422.256755,191.425808,76.570323,-9475.577496
422.257383,114.855485,57.427742,-9494.720077
422.258011,153.140646,114.855485,-9437.292334
422.258639,153.140646,133.998066,-9399.007173
422.259267,76.570323,172.283227,-9418.149754
422.259895,57.427742,153.140646,-9360.722011
422.260522,57.427742,210.568389,-9418.149754
422.261150,0.000000,248.853550,-9418.149754
422.261778,-19.142581,267.996131,-9418.149754
422.262406,19.142581,229.710970,-9418.149754
422.263034,0.000000,229.710970,-9399.007173
422.263662,114.855485,191.425808,-9341.579430
422.264289,38.285162,114.855485,-9418.149754
422.264917,95.712904,133.998066,-9360.722011
422.265545,153.140646,114.855485,-9475.577496
422.266173,210.568389,76.570323,-9399.007173
422.266801,191.425808,114.855485,-9513.862658
422.267429,229.710970,76.570323,-9437.292334
422.268057,229.710970,76.570323,-9456.434915
422.268684,153.140646,133.998066,-9399.007173
422.269312,133.998066,114.855485,-9418.149754
422.269940,38.285162,210.568389,-9418.149754
422.270568,0.000000,153.140646,-9341.579430
422.271196,38.285162,191.425808,-9341.579430
422.271824,-57.427742,191.425808,-9399.007173
422.272452,38.285162,153.140646,-9418.149754
422.273079,38.285162,172.283227,-9418.149754
422.273707,76.570323,114.855485,-9418.149754
422.274335,76.570323,114.855485,-9418.149754
422.274963,210.568389,76.570323,-9399.007173
422.275591,191.425808,76.570323,-9437.292334
422.276219,210.568389,57.427742,-9533.005238
422.276847,114.855485,76.570323,-9494.720077
422.277474,172.283227,76.570323,-9533.005238
422.278102,153.140646,133.998066,-9399.007173
422.278730,172.283227,76.570323,-9456.434915
422.279358,19.142581,172.283227,-9418.149754
422.279986,19.142581,210.568389,-9418.149754
422.280614,0.000000,153.140646,-9341.579430
422.281242,-38.285162,153.140646,-9399.007173
422.281869,-38.285162,248.853550,-9399.007173
422.282497,19.142581,133.998066,-9399.007173
422.283125,38.285162,210.568389,-9360.722011
422.283753,76.570323,153.140646,-9418.149754
422.284381,153.140646,153.140646,-9456.434915
422.285009,191.425808,191.425808,-9475.577496
422.285637,210.568389,133.998066,-9399.007173
422.286264,172.283227,76.570323,-9418.149754
422.286892,210.568389,133.998066,-9456.434915
422.287520,191.425808,57.427742,-9456.434915
422.288148,153.140646,133.998066,-9399.007173
422.288776,38.285162,114.855485,-9418.149754
422.289404,38.285162,133.998066,-9379.864592
422.290031,19.142581,229.710970,-9418.149754
422.290659,-38.285162,172.283227,-9399.007173
422.291287,19.142581,229.710970,-9418.149754
422.291915,0.000000,172.283227,-9360.722011
422.292543,38.285162,153.140646,-9437.292334
422.293170,38.285162,153.140646,-9418.149754
422.293797,38.285162,114.855485,-9418.149754
422.294425,172.283227,114.855485,-9571.290400
422.295052,172.283227,95.712904,-9437.292334
422.295680,229.710970,57.427742,-9418.149754
422.296307,248.853550,57.427742,-9418.149754
422.296935,191.425808,57.427742,-9437.292334
422.297562,191.425808,76.570323,-9418.149754
422.298190,133.998066,114.855485,-9456.434915
422.298817,76.570323,172.283227,-9418.149754
422.299445,57.427742,133.998066,-9360.722011
422.300072,57.427742,248.853550,-9360.722011
422.300700,-19.142581,248.853550,-9360.722011
422.301327,-38.285162,248.853550,-9399.007173
422.301955,19.142581,229.710970,-9475.577496
422.302582,38.285162,210.568389,-9418.149754
422.303209,133.998066,172.283227,-9418.149754
422.303837,133.998066,114.855485,-9418.149754
422.304464,172.283227,76.570323,-9418.149754
422.305092,191.425808,76.570323,-9437.292334
422.305719,210.568389,133.998066,-9494.720077
422.306347,248.853550,133.998066,-9437.292334
422.306974,191.425808,76.570323,-9533.005238
422.307602,172.283227,76.570323,-9418.149754
422.308229,95.712904,95.712904,-9399.007173
422.308857,38.285162,172.283227,-9418.149754
422.309484,-38.285162,248.853550,-9379.864592
422.310112,0.000000,248.853550,-9341.579430
422.310739,-38.285162,287.138712,-9360.722011
422.311367,-38.285162,172.283227,-9399.007173
422.311994,19.142581,133.998066,-9399.007173
422.312621,76.570323,114.855485,-9418.149754
422.313249,76.570323,114.855485,-9418.149754
422.313876,153.140646,133.998066,-9456.434915
422.314504,210.568389,133.998066,-9437.292334
422.315131,229.710970,76.570323,-9418.149754
422.315759,229.710970,114.855485,-9571.290400
422.316386,210.568389,133.998066,-9475.577496
422.317014,248.853550,133.998066,-9456.434915
422.317641,172.283227,210.568389,-9379.864592
422.318269,76.570323,153.140646,-9418.149754
422.318896,0.000000,172.283227,-9418.149754
422.319524,19.142581,229.710970,-9418.149754
422.320151,38.285162,229.710970,-9418.149754
422.320779,19.142581,229.710970,-9418.149754
422.321406,57.427742,172.283227,-9360.722011
422.322033,95.712904,191.425808,-9379.864592
422.322661,76.570323,114.855485,-9475.577496
422.323288,38.285162,114.855485,-9418.149754
422.323916,172.283227,133.998066,-9533.005238
422.324543,191.425808,76.570323,-9437.292334
422.325171,248.853550,133.998066,-9494.720077
422.325798,229.710970,76.570323,-9456.434915
422.326426,229.710970,76.570323,-9475.577496
422.327053,248.853550,76.570323,-9418.149754
422.327681,133.998066,133.998066,-9399.007173
422.328308,95.712904,210.568389,-9418.149754
422.328936,38.285162,210.568389,-9418.149754
422.329563,19.142581,229.710970,-9418.149754
422.330191,-38.285162,248.853550,-9399.007173
422.330818,57.427742,191.425808,-9360.722011
422.331445,38.285162,114.855485,-9418.149754
422.332073,57.427742,153.140646,-9360.722011
422.332700,76.570323,114.855485,-9418.149754
422.333328,114.855485,95.712904,-9456.434915
422.333955,191.425808,76.570323,-9437.292334
422.334583,248.853550,133.998066,-9399.007173
422.335210,191.425808,76.570323,-9475.577496
422.335838,191.425808,76.570323,-9399.007173
422.336465,229.710970,76.570323,-9437.292334
422.337093,76.570323,114.855485,-9437.292334
422.337720,19.142581,172.283227,-9418.149754
422.338348,0.000000,210.568389,-9418.149754
422.338975,38.285162,229.710970,-9418.149754
422.339603,-76.570323,267.996131,-9418.149754
422.340230,-38.285162,248.853550,-9399.007173
422.340857,19.142581,248.853550,-9379.864592
422.341485,19.142581,267.996131,-9379.864592
422.342112,95.712904,210.568389,-9418.149754
422.342740,114.855485,76.570323,-9494.720077
422.343367,172.283227,76.570323,-9418.149754
422.343995,210.568389,133.998066,-9399.007173
422.344622,229.710970,133.998066,-9456.434915
422.345250,191.425808,76.570323,-9437.292334
422.345877,191.425808,57.427742,-9475.577496
422.346505,210.568389,133.998066,-9399.007173
422.347132,95.712904,95.712904,-9437.292334
422.347760,38.285162,114.855485,-9360.722011
422.348387,57.427742,133.998066,-9360.722011
422.349015,19.142581,229.710970,-9418.149754
422.349642,19.142581,229.710970,-9418.149754
422.350269,-76.570323,248.853550,-9418.149754
422.350897,-38.285162,153.140646,-9399.007173
422.351524,133.998066,153.140646,-9418.149754
422.352152,76.570323,153.140646,-9418.149754
422.352779,172.283227,133.998066,-9360.722011
422.353407,191.425808,76.570323,-9533.005238
422.354034,191.425808,76.570323,-9494.720077
422.354662,210.568389,95.712904,-9533.005238
422.355289,210.568389,76.570323,-9513.862658
422.355917,248.853550,76.570323,-9418.149754
422.356544,114.855485,76.570323,-9418.149754
422.357172,0.000000,133.998066,-9360.722011
422.357799,0.000000,248.853550,-9341.579430
422.358427,19.142581,153.140646,-9418.149754
422.359054,0.000000,191.425808,-9360.722011
422.359681,57.427742,287.138712,-9399.007173
422.360309,0.000000,287.138712,-9399.007173
422.360936,19.142581,191.425808,-9360.722011
422.361564,57.427742,172.283227,-9360.722011
422.362191,76.570323,114.855485,-9418.149754
422.362819,153.140646,153.140646,-9456.434915
422.363446,229.710970,133.998066,-9437.292334
422.364074,248.853550,76.570323,-9475.577496
422.364701,210.568389,76.570323,-9418.149754
422.365329,114.855485,95.712904,-9475.577496
422.365956,153.140646,133.998066,-9437.292334
422.366584,76.570323,114.855485,-9418.149754
422.367211,19.142581,153.140646,-9456.434915
422.367839,57.427742,172.283227,-9418.149754
422.368466,76.570323,210.568389,-9418.149754
422.369093,38.285162,287.138712,-9418.149754
422.369721,19.142581,210.568389,-9418.149754
422.370348,19.142581,153.140646,-9399.007173
422.370976,95.712904,153.140646,-9418.149754
422.371603,95.712904,114.855485,-9475.577496
422.372231,210.568389,133.998066,-9437.292334
422.372858,191.425808,76.570323,-9475.577496
422.373486,287.138712,76.570323,-9437.292334
422.374113,248.853550,76.570323,-9456.434915
422.374741,172.283227,76.570323,-9437.292334
422.375368,248.853550,76.570323,-9456.434915
422.375996,153.140646,133.998066,-9456.434915
422.376623,95.712904,95.712904,-9399.007173
422.377251,76.570323,229.710970,-9418.149754
422.377878,57.427742,210.568389,-9399.007173
422.378505,19.142581,210.568389,-9418.149754
422.379133,-38.285162,229.710970,-9418.149754
422.379760,0.000000,191.425808,-9360.722011
422.380388,19.142581,229.710970,-9418.149754
422.381015,76.570323,153.140646,-9456.434915
422.381643,76.570323,114.855485,-9418.149754
422.382270,114.855485,133.998066,-9418.149754
422.382898,229.710970,133.998066,-9399.007173
422.383525,191.425808,76.570323,-9494.720077
422.384153,229.710970,76.570323,-9456.434915
422.384780,210.568389,133.998066,-9456.434915
422.385408,229.710970,76.570323,-9418.149754
422.386035,133.998066,153.140646,-9418.149754
422.386663,76.570323,191.425808,-9456.434915
422.387290,76.570323,229.710970,-9418.149754
422.387917,57.427742,191.425808,-9360.722011
422.388545,38.285162,191.425808,-9360.722011
422.389172,57.427742,248.853550,-9360.722011
422.389800,38.285162,210.568389,-9418.149754
422.390427,57.427742,210.568389,-9418.149754
422.391055,76.570323,114.855485,-9418.149754
422.391682,153.140646,133.998066,-9399.007173
422.392310,210.568389,133.998066,-9399.007173
422.392937,153.140646,133.998066,-9494.720077
422.393565,191.425808,57.427742,-9475.577496
422.394192,210.568389,133.998066,-9437.292334
422.394819,191.425808,76.570323,-9437.292334
422.395447,133.998066,133.998066,-9494.720077
422.396074,19.142581,114.855485,-9418.149754
422.396702,76.570323,114.855485,-9418.149754
422.397329,19.142581,210.568389,-9456.434915
422.397957,-19.142581,248.853550,-9418.149754
422.398584,0.000000,229.710970,-9399.007173
422.399211,19.142581,229.710970,-9418.149754
422.399839,-38.285162,172.283227,-9399.007173
422.400466,76.570323,153.140646,-9418.149754
422.401094,133.998066,153.140646,-9437.292334
422.401721,172.283227,95.712904,-9494.720077
422.402349,248.853550,133.998066,-9399.007173
422.402976,191.425808,76.570323,-9475.577496
422.403603,172.283227,76.570323,-9494.720077
422.404231,172.283227,57.427742,-9475.577496
422.404858,133.998066,114.855485,-9494.720077
422.405486,133.998066,153.140646,-9437.292334
422.406113,76.570323,172.283227,-9418.149754
422.406740,19.142581,191.425808,-9399.007173
422.407368,76.570323,248.853550,-9341.579430
422.407995,19.142581,229.710970,-9418.149754
422.408623,-19.142581,248.853550,-9360.722011
422.409250,-38.285162,133.998066,-9399.007173
422.409878,57.427742,191.425808,-9341.579430
422.410505,38.285162,172.283227,-9456.434915
422.411132,76.570323,114.855485,-9437.292334
422.411760,153.140646,114.855485,-9456.434915
422.412387,153.140646,133.998066,-9494.720077
422.413015,153.140646,95.712904,-9533.005238
422.413642,191.425808,76.570323,-9475.577496
422.414270,172.283227,76.570323,-9456.434915
422.414897,191.425808,76.570323,-9437.292334
422.415524,57.427742,172.283227,-9437.292334
422.416152,19.142581,153.140646,-9456.434915
422.416779,38.285162,172.283227,-9360.722011
422.417407,19.142581,172.283227,-9418.149754
422.418034,38.285162,229.710970,-9418.149754
422.418661,0.000000,248.853550,-9360.722011
422.419289,57.427742,248.853550,-9341.579430
422.419916,133.998066,191.425808,-9456.434915
422.420544,38.285162,114.855485,-9475.577496
422.421171,153.140646,114.855485,-9533.005238
422.421799,267.996131,133.998066,-9494.720077
422.422426,229.710970,76.570323,-9475.577496
422.423053,287.138712,57.427742,-9437.292334
422.423681,229.710970,38.285162,-9475.577496
422.424308,248.853550,133.998066,-9399.007173
422.424936,114.855485,114.855485,-9322.436850
422.425563,0.000000,191.425808,-9360.722011
422.426191,19.142581,248.853550,-9379.864592
422.426818,57.427742,191.425808,-9360.722011
422.427445,-38.285162,191.425808,-9399.007173
422.428073,-38.285162,172.283227,-9399.007173
422.428700,19.142581,153.140646,-9418.149754
422.429328,38.285162,229.710970,-9418.149754
422.429955,38.285162,114.855485,-9418.149754
422.430583,133.998066,153.140646,-9437.292334
422.431210,114.855485,95.712904,-9494.720077
422.431837,210.568389,133.998066,-9399.007173
422.432465,229.710970,76.570323,-9475.577496
422.433092,267.996131,133.998066,-9399.007173
422.433720,248.853550,133.998066,-9437.292334
422.434347,153.140646,133.998066,-9456.434915
422.434974,95.712904,114.855485,-9494.720077
422.435602,76.570323,210.568389,-9456.434915
422.436229,38.285162,210.568389,-9418.149754
422.436857,19.142581,229.710970,-9418.149754
422.437484,19.142581,248.853550,-9399.007173
422.438112,19.142581,267.996131,-9379.864592
422.438739,-38.285162,172.283227,-9399.007173
422.439366,153.140646,191.425808,-9399.007173
422.439994,76.570323,114.855485,-9494.720077
422.440621,133.998066,114.855485,-9533.005238
422.441249,191.425808,76.570323,-9418.149754
422.441876,172.283227,19.142581,-9437.292334
422.442504,210.568389,19.142581,-9475.577496
422.443131,191.425808,57.427742,-9533.005238
422.443758,153.140646,133.998066,-9494.720077
422.444386,172.283227,76.570323,-9418.149754
422.445013,38.285162,172.283227,-9418.149754
422.445641,0.000000,248.853550,-9341.579430
422.446268,57.427742,191.425808,-9360.722011
422.446896,19.142581,210.568389,-9418.149754
422.447523,57.427742,229.710970,-9360.722011
422.448150,-38.285162,191.425808,-9399.007173
422.448778,76.570323,210.568389,-9418.149754
422.449405,76.570323,153.140646,-9418.149754
422.450033,133.998066,114.855485,-9418.149754
422.450660,153.140646,133.998066,-9399.007173
422.451287,229.710970,76.570323,-9437.292334
422.451915,191.425808,57.427742,-9475.577496
422.452542,210.568389,133.998066,-9437.292334
422.453170,210.568389,38.285162,-9418.149754
422.453797,172.283227,76.570323,-9437.292334
422.454425,76.570323,172.283227,-9418.149754
422.455052,76.570323,114.855485,-9418.149754
422.455679,57.427742,210.568389,-9418.149754
422.456307,19.142581,229.710970,-9418.149754
422.456934,57.427742,229.710970,-9399.007173
422.457562,0.000000,191.425808,-9360.722011
422.458189,38.285162,153.140646,-9360.722011
422.458817,57.427742,153.140646,-9360.722011
422.459444,38.285162,114.855485,-9437.292334
422.460071,76.570323,114.855485,-9456.434915
422.460699,153.140646,133.998066,-9437.292334
422.461326,191.425808,76.570323,-9533.005238
422.461954,191.425808,19.142581,-9475.577496
422.462581,229.710970,76.570323,-9494.720077
422.463208,191.425808,76.570323,-9456.434915
422.463836,191.425808,153.140646,-9456.434915
422.464463,38.285162,210.568389,-9437.292334
422.465091,19.142581,153.140646,-9437.292334
422.465718,19.142581,229.710970,-9456.434915
422.466346,19.142581,153.140646,-9475.577496
422.466973,19.142581,229.710970,-9360.722011
422.467600,19.142581,210.568389,-9418.149754
422.468228,38.285162,229.710970,-9418.149754
422.468855,76.570323,153.140646,-9418.149754
422.469483,76.570323,114.855485,-9494.720077
422.470110,153.140646,95.712904,-9437.292334
422.470738,248.853550,133.998066,-9456.434915
422.471365,191.425808,38.285162,-9494.720077
422.471992,210.568389,76.570323,-9418.149754
422.472620,153.140646,133.998066,-9437.292334
422.473247,248.853550,133.998066,-9475.577496
422.473875,133.998066,153.140646,-9418.149754
422.474502,38.285162,172.283227,-9418.149754
422.475130,38.285162,229.710970,-9418.149754
422.475757,95.712904,248.853550,-9360.722011
422.476384,19.142581,287.138712,-9341.579430
422.477012,-38.285162,287.138712,-9360.722011
422.477639,19.142581,210.568389,-9360.722011
422.478267,57.427742,210.568389,-9360.722011
422.478894,76.570323,153.140646,-9475.577496
422.479521,133.998066,114.855485,-9418.149754
422.480149,153.140646,172.283227,-9399.007173
422.480776,191.425808,76.570323,-9494.720077
422.481404,191.425808,38.285162,-9456.434915
422.482031,172.283227,76.570323,-9437.292334
422.482659,191.425808,76.570323,-9475.577496
422.483286,153.140646,133.998066,-9456.434915
422.483913,133.998066,210.568389,-9418.149754
422.484541,19.142581,191.425808,-9418.149754
422.485168,57.427742,229.710970,-9399.007173
422.485796,19.142581,191.425808,-9418.149754
422.486423,0.000000,287.138712,-9379.864592
422.487051,57.427742,172.283227,-9360.722011
422.487678,38.285162,114.855485,-9418.149754
422.488305,57.427742,133.998066,-9360.722011
422.488933,133.998066,114.855485,-9418.149754
422.489560,172.283227,95.712904,-9494.720077
422.490188,191.425808,133.998066,-9399.007173
422.490815,172.283227,76.570323,-9456.434915
422.491443,191.425808,76.570323,-9456.434915
422.492070,191.425808,76.570323,-9418.149754
422.492697,191.425808,76.570323,-9437.292334
422.493325,172.283227,76.570323,-9418.149754
422.493953,76.570323,172.283227,-9418.149754
422.494580,38.285162,210.568389,-9418.149754
422.495208,-19.142581,133.998066,-9360.722011
422.495836,-76.570323,172.283227,-9379.864592
422.496463,-38.285162,191.425808,-9399.007173
422.497091,19.142581,172.283227,-9418.149754
422.497719,19.142581,172.283227,-9418.149754
422.498346,57.427742,114.855485,-9456.434915
422.498974,133.998066,114.855485,-9418.149754
422.499602,172.283227,76.570323,-9456.434915
422.500229,191.425808,76.570323,-9533.005238
422.500857,191.425808,76.570323,-9456.434915
422.501485,191.425808,76.570323,-9418.149754
422.502112,248.853550,133.998066,-9399.007173
422.502740,133.998066,153.140646,-9399.007173
422.503368,38.285162,210.568389,-9418.149754
422.503995,57.427742,133.998066,-9418.149754
422.504623,38.285162,210.568389,-9418.149754
422.505251,0.000000,248.853550,-9360.722011
422.505878,57.427742,267.996131,-9360.722011
422.506506,57.427742,172.283227,-9418.149754
422.507134,38.285162,210.568389,-9418.149754
422.507761,38.285162,210.568389,-9437.292334
422.508389,38.285162,114.855485,-9418.149754
422.509017,172.283227,95.712904,-9456.434915
422.509644,191.425808,57.427742,-9418.149754
422.510272,210.568389,133.998066,-9494.720077
422.510900,191.425808,76.570323,-9418.149754
422.511527,210.568389,133.998066,-9494.720077
422.512155,172.283227,76.570323,-9456.434915
422.512783,153.140646,133.998066,-9456.434915
422.513410,76.570323,172.283227,-9418.149754
422.514038,-38.285162,133.998066,-9399.007173
422.514666,57.427742,248.853550,-9360.722011
422.515293,-38.285162,248.853550,-9437.292334
422.515921,0.000000,287.138712,-9399.007173
422.516549,19.142581,191.425808,-9418.149754
422.517176,-19.142581,153.140646,-9379.864592
422.517804,38.285162,153.140646,-9399.007173
422.518432,210.568389,133.998066,-9399.007173
422.519059,229.710970,57.427742,-9437.292334
422.519687,191.425808,76.570323,-9418.149754
422.520315,248.853550,76.570323,-9475.577496
422.520942,172.283227,76.570323,-9475.577496
422.521570,172.283227,38.285162,-9418.149754
422.522198,172.283227,153.140646,-9379.864592
422.522825,76.570323,114.855485,-9456.434915
422.523453,38.285162,172.283227,-9418.149754
422.524081,95.712904,191.425808,-9341.579430
422.524708,0.000000,287.138712,-9399.007173
422.525336,-38.285162,210.568389,-9322.436850
422.525964,0.000000,191.425808,-9360.722011
422.526591,38.285162,229.710970,-9418.149754
422.527219,57.427742,153.140646,-9437.292334
422.527847,76.570323,114.855485,-9418.149754
422.528474,210.568389,133.998066,-9399.007173
422.529102,210.568389,133.998066,-9494.720077
422.529730,267.996131,133.998066,-9513.862658
422.530357,210.568389,133.998066,-9437.292334
422.530985,191.425808,38.285162,-9533.005238
422.531613,191.425808,76.570323,-9418.149754
422.532240,153.140646,153.140646,-9399.007173
422.532868,76.570323,229.710970,-9437.292334
422.533496,0.000000,248.853550,-9360.722011
422.534123,38.285162,287.138712,-9399.007173
422.534751,-57.427742,153.140646,-9437.292334
422.535379,-38.285162,248.853550,-9399.007173
422.536006,57.427742,191.425808,-9360.722011
422.536634,57.427742,133.998066,-9341.579430
422.537262,76.570323,114.855485,-9437.292334
422.537889,114.855485,95.712904,-9399.007173
422.538517,153.140646,133.998066,-9437.292334
422.539145,172.283227,76.570323,-9475.577496
422.539772,191.425808,114.855485,-9571.290400
422.540400,248.853550,57.427742,-9437.292334
422.541028,172.283227,38.285162,-9456.434915
422.541655,153.140646,133.998066,-9399.007173
422.542283,76.570323,114.855485,-9418.149754
422.542911,19.142581,114.855485,-9418.149754
422.543538,38.285162,210.568389,-9418.149754
422.544166,0.000000,153.140646,-9360.722011
422.544794,-38.285162,248.853550,-9379.864592
422.545421,38.285162,229.710970,-9437.292334
422.546049,76.570323,210.568389,-9418.149754
422.546677,76.570323,210.568389,-9418.149754
422.547304,133.998066,114.855485,-9475.577496
422.547932,114.855485,95.712904,-9494.720077
422.548560,191.425808,57.427742,-9456.434915
422.549187,191.425808,38.285162,-9533.005238
422.549815,191.425808,76.570323,-9475.577496
422.550443,229.710970,76.570323,-9475.577496
422.551070,172.283227,76.570323,-9418.149754
422.551698,114.855485,133.998066,-9360.722011
422.552326,76.570323,153.140646,-9418.149754
422.552953,19.142581,153.140646,-9418.149754
422.553581,19.142581,210.568389,-9360.722011
422.554209,19.142581,153.140646,-9418.149754
422.554836,-19.142581,267.996131,-9418.149754
422.555464,57.427742,248.853550,-9360.722011
422.556092,57.427742,248.853550,-9341.579430
422.556719,133.998066,210.568389,-9456.434915
422.557347,133.998066,114.855485,-9418.149754
422.557975,191.425808,76.570323,-9418.149754
422.558602,191.425808,76.570323,-9418.149754
422.559230,172.283227,76.570323,-9533.005238
422.559858,153.140646,133.998066,-9494.720077
422.560485,153.140646,133.998066,-9399.007173
422.561113,153.140646,133.998066,-9456.434915
422.561741,38.285162,210.568389,-9418.149754
422.562368,57.427742,95.712904,-9379.864592
422.562996,-38.285162,248.853550,-9399.007173
422.563624,38.285162,210.568389,-9418.149754
422.564251,57.427742,287.138712,-9379.864592
422.564879,57.427742,172.283227,-9360.722011
422.565507,38.285162,172.283227,-9418.149754
422.566134,76.570323,172.283227,-9418.149754
422.566762,133.998066,153.140646,-9418.149754
422.567390,133.998066,114.855485,-9456.434915
422.568017,153.140646,133.998066,-9494.720077
422.568645,248.853550,133.998066,-9513.862658
422.569273,210.568389,76.570323,-9475.577496
422.569900,133.998066,114.855485,-9533.005238
422.570528,153.140646,133.998066,-9399.007173
422.571156,114.855485,114.855485,-9379.864592
422.571783,0.000000,114.855485,-9437.292334
422.572411,0.000000,191.425808,-9360.722011
422.573039,57.427742,210.568389,-9360.722011
422.573666,0.000000,191.425808,-9360.722011
422.574294,0.000000,248.853550,-9360.722011
422.574922,-38.285162,172.283227,-9399.007173
422.575549,95.712904,114.855485,-9418.149754
422.576177,95.712904,172.283227,-9437.292334
422.576805,133.998066,95.712904,-9475.577496
422.577432,153.140646,95.712904,-9533.005238
422.578060,153.140646,95.712904,-9552.147819
422.578688,191.425808,76.570323,-9533.005238
422.579316,229.710970,76.570323,-9494.720077
422.579943,210.568389,76.570323,-9475.577496
422.580571,114.855485,95.712904,-9437.292334
422.581199,76.570323,172.283227,-9418.149754
422.581826,57.427742,153.140646,-9360.722011
422.582454,57.427742,153.140646,-9360.722011
422.583082,0.000000,133.998066,-9360.722011
422.583709,-76.570323,229.710970,-9341.579430
422.584337,-19.142581,229.710970,-9379.864592
422.584965,19.142581,229.710970,-9456.434915
422.585592,19.142581,114.855485,-9418.149754
422.586220,38.285162,95.712904,-9418.149754
422.586848,133.998066,114.855485,-9533.005238
422.587475,153.140646,114.855485,-9437.292334
422.588103,172.283227,76.570323,-9475.577496
422.588731,153.140646,133.998066,-9399.007173
422.589358,153.140646,133.998066,-9456.434915
422.589986,172.283227,95.712904,-9399.007173
422.590614,153.140646,133.998066,-9456.434915
422.591241,38.285162,172.283227,-9418.149754
422.591869,95.712904,153.140646,-9360.722011
422.592497,38.285162,114.855485,-9418.149754
422.593124,-57.427742,153.140646,-9399.007173
422.593752,57.427742,172.283227,-9360.722011
422.594380,19.142581,114.855485,-9437.292334
422.595007,19.142581,191.425808,-9456.434915
422.595635,38.285162,114.855485,-9475.577496
422.596263,76.570323,114.855485,-9418.149754
422.596890,172.283227,76.570323,-9533.005238
422.597518,248.853550,76.570323,-9475.577496
422.598146,210.568389,133.998066,-9494.720077
422.598773,229.710970,57.427742,-9418.149754
422.599401,210.568389,95.712904,-9533.005238
422.600029,229.710970,76.570323,-9418.149754
422.600657,95.712904,114.855485,-9418.149754
422.601284,76.570323,95.712904,-9379.864592
422.601912,57.427742,210.568389,-9360.722011
422.602540,38.285162,229.710970,-9418.149754
422.603167,19.142581,248.853550,-9399.007173
422.603795,19.142581,287.138712,-9360.722011
422.604423,-38.285162,248.853550,-9399.007173
422.605050,38.285162,210.568389,-9418.149754
422.605678,0.000000,133.998066,-9360.722011
422.606306,133.998066,95.712904,-9399.007173
422.606934,172.283227,95.712904,-9399.007173
422.607561,172.283227,76.570323,-9437.292334
422.608189,229.710970,133.998066,-9437.292334
422.608817,210.568389,95.712904,-9418.149754
422.609444,229.710970,76.570323,-9418.149754
422.610072,153.140646,153.140646,-9475.577496
422.610700,76.570323,114.855485,-9418.149754
422.611327,133.998066,114.855485,-9418.149754
422.611955,57.427742,172.283227,-9360.722011
422.612583,-19.142581,229.710970,-9379.864592
422.613211,19.142581,191.425808,-9379.864592
422.613838,0.000000,248.853550,-9360.722011
422.614466,38.285162,210.568389,-9418.149754
422.615094,38.285162,153.140646,-9494.720077
422.615721,76.570323,114.855485,-9437.292334
422.616349,153.140646,133.998066,-9456.434915
422.616977,210.568389,38.285162,-9360.722011
422.617604,191.425808,76.570323,-9533.005238
422.618232,153.140646,133.998066,-9494.720077
422.618860,172.283227,76.570323,-9456.434915
422.619488,191.425808,76.570323,-9437.292334
422.620115,133.998066,172.283227,-9399.007173
422.620743,76.570323,114.855485,-9418.149754
422.621371,19.142581,191.425808,-9418.149754
422.621998,0.000000,229.710970,-9379.864592
422.622626,-38.285162,191.425808,-9399.007173
422.623254,19.142581,229.710970,-9341.579430
422.623881,38.285162,210.568389,-9418.149754
422.624509,114.855485,172.283227,-9360.722011
422.625137,38.285162,114.855485,-9418.149754
422.625764,153.140646,153.140646,-9418.149754
422.626392,210.568389,133.998066,-9456.434915
422.627020,172.283227,76.570323,-9533.005238
422.627648,248.853550,76.570323,-9456.434915
422.628275,210.568389,133.998066,-9399.007173
422.628903,229.710970,76.570323,-9437.292334
422.629531,133.998066,114.855485,-9494.720077
422.630158,76.570323,114.855485,-9418.149754
422.630786,19.142581,210.568389,-9437.292334
422.631414,0.000000,191.425808,-9341.579430
422.632041,-19.142581,229.710970,-9379.864592
422.632669,19.142581,229.710970,-9418.149754
422.633297,0.000000,191.425808,-9360.722011
422.633925,38.285162,172.283227,-9360.722011
422.634552,38.285162,153.140646,-9418.149754
422.635180,38.285162,114.855485,-9437.292334
422.635808,95.712904,95.712904,-9475.577496
422.636435,172.283227,57.427742,-9437.292334
422.637063,229.710970,57.427742,-9437.292334
422.637691,172.283227,76.570323,-9418.149754
422.638318,191.425808,57.427742,-9475.577496
422.638946,210.568389,133.998066,-9475.577496
422.639574,133.998066,133.998066,-9475.577496
422.640202,76.570323,114.855485,-9360.722011
422.640829,57.427742,248.853550,-9360.722011
422.641457,19.142581,210.568389,-9418.149754
422.642085,19.142581,229.710970,-9418.149754
422.642712,19.142581,210.568389,-9418.149754
422.643340,-57.427742,133.998066,-9399.007173
422.643968,38.285162,172.283227,-9418.149754
422.644595,38.285162,153.140646,-9418.149754
422.645223,133.998066,114.855485,-9437.292334
422.645851,210.568389,133.998066,-9437.292334
422.646479,191.425808,76.570323,-9494.720077
422.647106,267.996131,95.712904,-9475.577496
422.647734,172.283227,57.427742,-9418.149754
422.648362,172.283227,76.570323,-9418.149754
422.648989,133.998066,172.283227,-9418.149754
422.649617,38.285162,114.855485,-9418.149754
422.650245,57.427742,95.712904,-9399.007173
422.650872,38.285162,172.283227,-9418.149754
422.651500,19.142581,229.710970,-9418.149754
422.652128,-19.142581,267.996131,-9360.722011
422.652756,19.142581,191.425808,-9399.007173
422.653383,57.427742,287.138712,-9399.007173
422.654011,76.570323,153.140646,-9418.149754
422.654639,133.998066,114.855485,-9418.149754
422.655266,210.568389,133.998066,-9494.720077
422.655894,229.710970,114.855485,-9513.862658
422.656522,229.710970,76.570323,-9475.577496
422.657149,248.853550,133.998066,-9399.007173
422.657777,267.996131,133.998066,-9513.862658
422.658405,210.568389,76.570323,-9418.149754
422.659033,76.570323,172.283227,-9418.149754
422.659660,38.285162,114.855485,-9418.149754
422.660288,95.712904,153.140646,-9360.722011
422.660916,0.000000,191.425808,-9360.722011
422.661543,-38.285162,191.425808,-9399.007173
422.662171,0.000000,229.710970,-9399.007173
422.662799,-38.285162,210.568389,-9399.007173
422.663426,38.285162,191.425808,-9418.149754
422.664054,114.855485,172.283227,-9360.722011
422.664682,114.855485,95.712904,-9399.007173
422.665309,248.853550,133.998066,-9399.007173
422.665937,191.425808,76.570323,-9437.292334
422.666565,172.283227,76.570323,-9533.005238
422.667193,210.568389,133.998066,-9475.577496
422.667820,191.425808,57.427742,-9475.577496
422.668448,114.855485,76.570323,-9418.149754
422.669076,76.570323,114.855485,-9418.149754
422.669703,95.712904,191.425808,-9341.579430
422.670331,0.000000,191.425808,-9360.722011
422.670959,0.000000,191.425808,-9360.722011
422.671586,-76.570323,210.568389,-9399.007173
422.672214,0.000000,210.568389,-9379.864592
422.672842,38.285162,153.140646,-9418.149754
422.673470,57.427742,153.140646,-9360.722011
422.674097,38.285162,114.855485,-9475.577496
422.674725,191.425808,76.570323,-9418.149754
422.675353,172.283227,76.570323,-9418.149754
422.675980,191.425808,76.570323,-9475.577496
422.676608,191.425808,76.570323,-9475.577496
422.677236,153.140646,133.998066,-9399.007173
422.677863,210.568389,133.998066,-9437.292334
422.678491,191.425808,133.998066,-9399.007173
422.679119,95.712904,172.283227,-9360.722011
422.679747,19.142581,210.568389,-9418.149754
422.680374,76.570323,210.568389,-9418.149754
422.681002,-57.427742,248.853550,-9456.434915
422.681630,19.142581,287.138712,-9418.149754
422.682257,38.285162,229.710970,-9418.149754
422.682885,95.712904,114.855485,-9418.149754
422.683513,114.855485,95.712904,-9399.007173
422.684140,133.998066,114.855485,-9437.292334
422.684768,172.283227,76.570323,-9437.292334
422.685396,248.853550,133.998066,-9494.720077
422.686024,191.425808,57.427742,-9456.434915
422.686651,229.710970,76.570323,-9533.005238
422.687279,153.140646,133.998066,-9437.292334
422.687907,210.568389,133.998066,-9399.007173
422.688534,133.998066,153.140646,-9418.149754
422.689162,133.998066,172.283227,-9418.149754
422.689790,57.427742,267.996131,-9379.864592
422.690417,19.142581,191.425808,-9360.722011
422.691045,-19.142581,210.568389,-9379.864592
422.691673,0.000000,191.425808,-9360.722011
