#time,accel_x,accel_y,accel_z
454.398547,57.427742,191.425808,-9341.579430
454.399175,57.427742,248.853550,-9303.294269
454.399802,57.427742,191.425808,-9245.866526
454.400429,76.570323,153.140646,-9360.722011
454.401057,76.570323,210.568389,-9418.149754
454.401684,76.570323,191.425808,-9418.149754
454.402311,133.998066,191.425808,-9437.292334
454.402939,210.568389,133.998066,-9475.577496
454.403566,210.568389,95.712904,-9609.575562
454.404193,191.425808,114.855485,-9571.290400
454.404821,191.425808,57.427742,-9533.005238
454.405448,210.568389,76.570323,-9533.005238
454.406075,95.712904,95.712904,-9399.007173
454.406702,95.712904,95.712904,-9399.007173
454.407330,133.998066,153.140646,-9418.149754
454.407957,95.712904,153.140646,-9341.579430
454.408584,0.000000,133.998066,-9360.722011
454.409212,57.427742,248.853550,-9341.579430
454.409839,57.427742,191.425808,-9341.579430
454.410466,172.283227,153.140646,-9284.151688
454.411094,95.712904,172.283227,-9360.722011
454.411721,38.285162,153.140646,-9456.434915
454.412348,133.998066,114.855485,-9494.720077
454.412976,153.140646,133.998066,-9437.292334
454.413603,153.140646,133.998066,-9494.720077
454.414230,133.998066,114.855485,-9418.149754
454.414858,114.855485,95.712904,-9494.720077
454.415485,153.140646,133.998066,-9399.007173
454.416112,76.570323,114.855485,-9456.434915
454.416739,133.998066,153.140646,-9418.149754
454.417367,76.570323,210.568389,-9341.579430
454.417994,95.712904,191.425808,-9284.151688
454.418621,38.285162,210.568389,-9418.149754
454.419249,19.142581,210.568389,-9418.149754
454.419876,38.285162,210.568389,-9418.149754
454.420503,57.427742,172.283227,-9360.722011
454.421131,38.285162,153.140646,-9437.292334
454.421758,95.712904,114.855485,-9475.577496
454.422385,153.140646,76.570323,-9513.862658
454.423013,172.283227,57.427742,-9475.577496
454.423640,133.998066,19.142581,-9571.290400
454.424267,210.568389,76.570323,-9399.007173
454.424895,210.568389,76.570323,-9437.292334
454.425522,191.425808,133.998066,-9399.007173
454.426149,95.712904,133.998066,-9360.722011
454.426776,57.427742,248.853550,-9341.579430
454.427404,38.285162,248.853550,-9341.579430
454.428031,38.285162,267.996131,-9322.436850
454.428658,57.427742,287.138712,-9379.864592
454.429286,-38.285162,248.853550,-9284.151688
454.429913,19.142581,191.425808,-9418.149754
454.430540,38.285162,229.710970,-9418.149754
454.431168,19.142581,114.855485,-9456.434915
454.431795,95.712904,114.855485,-9456.434915
454.432422,210.568389,133.998066,-9494.720077
454.433050,191.425808,114.855485,-9571.290400
454.433677,172.283227,133.998066,-9609.575562
454.434304,133.998066,38.285162,-9552.147819
454.434932,133.998066,19.142581,-9513.862658
454.435559,76.570323,114.855485,-9475.577496
454.436186,95.712904,95.712904,-9437.292334
454.436814,76.570323,114.855485,-9418.149754
454.437441,95.712904,172.283227,-9341.579430
454.438068,38.285162,153.140646,-9303.294269
454.438695,-38.285162,191.425808,-9399.007173
454.439323,0.000000,248.853550,-9341.579430
454.439950,0.000000,114.855485,-9322.436850
454.440577,95.712904,191.425808,-9379.864592
454.441205,95.712904,191.425808,-9360.722011
454.441832,153.140646,114.855485,-9418.149754
454.442459,210.568389,133.998066,-9494.720077
454.443087,210.568389,133.998066,-9475.577496
454.443714,210.568389,133.998066,-9494.720077
454.444341,172.283227,76.570323,-9475.577496
454.444969,287.138712,76.570323,-9475.577496
454.445596,153.140646,133.998066,-9494.720077
454.446223,114.855485,95.712904,-9399.007173
454.446851,95.712904,153.140646,-9360.722011
454.447478,95.712904,133.998066,-9360.722011
454.448105,0.000000,172.283227,-9360.722011
454.448732,-38.285162,248.853550,-9399.007173
454.449360,57.427742,172.283227,-9418.149754
454.449987,38.285162,172.283227,-9418.149754
454.450614,57.427742,133.998066,-9360.722011
454.451241,57.427742,95.712904,-9399.007173
454.451869,153.140646,153.140646,-9475.577496
454.452496,133.998066,114.855485,-9475.577496
454.453123,229.710970,76.570323,-9437.292334
454.453750,191.425808,76.570323,-9456.434915
454.454377,172.283227,76.570323,-9533.005238
454.455004,229.710970,76.570323,-9418.149754
454.455631,76.570323,153.140646,-9456.434915
454.456258,76.570323,210.568389,-9418.149754
454.456885,76.570323,172.283227,-9418.149754
454.457512,57.427742,248.853550,-9284.151688
454.458139,57.427742,248.853550,-9360.722011
454.458766,0.000000,248.853550,-9284.151688
454.459394,0.000000,248.853550,-9322.436850
454.460021,76.570323,210.568389,-9418.149754
454.460648,38.285162,114.855485,-9418.149754
454.461275,95.712904,210.568389,-9533.005238
454.461902,210.568389,133.998066,-9456.434915
454.462529,210.568389,133.998066,-9513.862658
454.463156,133.998066,76.570323,-9571.290400
454.463783,191.425808,76.570323,-9475.577496
454.464410,172.283227,76.570323,-9533.005238
454.465037,191.425808,76.570323,-9437.292334
454.465664,153.140646,133.998066,-9437.292334
454.466291,76.570323,172.283227,-9418.149754
454.466918,95.712904,191.425808,-9341.579430
454.467546,76.570323,248.853550,-9284.151688
454.468173,0.000000,248.853550,-9303.294269
454.468800,0.000000,248.853550,-9341.579430
454.469427,57.427742,172.283227,-9341.579430
454.470054,95.712904,172.283227,-9360.722011
454.470681,95.712904,229.710970,-9418.149754
454.471308,57.427742,95.712904,-9399.007173
454.471935,153.140646,133.998066,-9399.007173
454.472562,153.140646,114.855485,-9533.005238
454.473189,133.998066,76.570323,-9513.862658
454.473816,172.283227,38.285162,-9533.005238
454.474443,210.568389,95.712904,-9533.005238
454.475071,210.568389,76.570323,-9456.434915
454.475698,76.570323,172.283227,-9475.577496
454.476325,76.570323,114.855485,-9418.149754
454.476952,38.285162,114.855485,-9437.292334
454.477579,19.142581,153.140646,-9418.149754
454.478206,-38.285162,210.568389,-9418.149754
454.478833,-38.285162,191.425808,-9379.864592
454.479460,57.427742,191.425808,-9341.579430
454.480087,114.855485,210.568389,-9379.864592
454.480714,57.427742,210.568389,-9418.149754
454.481341,133.998066,114.855485,-9456.434915
454.481968,191.425808,76.570323,-9475.577496
454.482595,191.425808,76.570323,-9456.434915
454.483223,172.283227,114.855485,-9513.862658
454.483850,191.425808,76.570323,-9533.005238
454.484477,191.425808,114.855485,-9494.720077
454.485104,248.853550,133.998066,-9399.007173
454.485731,133.998066,114.855485,-9418.149754
454.486358,38.285162,229.710970,-9360.722011
454.486985,57.427742,248.853550,-9341.579430
454.487612,95.712904,248.853550,-9303.294269
454.488239,0.000000,248.853550,-9341.579430
454.488866,-19.142581,191.425808,-9360.722011
454.489493,76.570323,172.283227,-9360.722011
454.490120,133.998066,172.283227,-9437.292334
454.490747,57.427742,95.712904,-9494.720077
454.491375,172.283227,76.570323,-9533.005238
454.492002,114.855485,95.712904,-9513.862658
454.492629,172.283227,57.427742,-9533.005238
454.493256,210.568389,95.712904,-9552.147819
454.493883,191.425808,57.427742,-9475.577496
454.494510,191.425808,76.570323,-9418.149754
454.495137,210.568389,133.998066,-9399.007173
454.495764,76.570323,172.283227,-9418.149754
454.496391,76.570323,191.425808,-9341.579430
454.497018,57.427742,248.853550,-9284.151688
454.497645,95.712904,248.853550,-9245.866526
454.498272,38.285162,325.423874,-9284.151688
454.498900,19.142581,267.996131,-9379.864592
454.499527,57.427742,172.283227,-9341.579430
454.500154,57.427742,133.998066,-9360.722011
454.500781,57.427742,114.855485,-9418.149754
454.501408,133.998066,114.855485,-9533.005238
454.502035,153.140646,133.998066,-9513.862658
454.502662,191.425808,76.570323,-9494.720077
454.503289,210.568389,95.712904,-9533.005238
454.503916,153.140646,95.712904,-9552.147819
454.504543,172.283227,57.427742,-9475.577496
454.505170,114.855485,95.712904,-9494.720077
454.505797,38.285162,114.855485,-9437.292334
454.506424,57.427742,114.855485,-9418.149754
454.507052,19.142581,210.568389,-9418.149754
454.507679,0.000000,133.998066,-9360.722011
454.508306,38.285162,267.996131,-9379.864592
454.508933,0.000000,229.710970,-9379.864592
454.509560,95.712904,153.140646,-9360.722011
454.510187,114.855485,153.140646,-9360.722011
454.510814,76.570323,114.855485,-9475.577496
454.511441,133.998066,114.855485,-9475.577496
454.512068,191.425808,76.570323,-9437.292334
454.512695,191.425808,76.570323,-9533.005238
454.513322,191.425808,76.570323,-9475.577496
454.513949,172.283227,76.570323,-9533.005238
454.514577,172.283227,76.570323,-9437.292334
454.515204,76.570323,114.855485,-9418.149754
454.515831,76.570323,191.425808,-9418.149754
454.516458,57.427742,191.425808,-9341.579430
454.517085,57.427742,172.283227,-9245.866526
454.517712,57.427742,191.425808,-9341.579430
454.518339,19.142581,210.568389,-9418.149754
454.518966,38.285162,114.855485,-9418.149754
454.519593,57.427742,133.998066,-9360.722011
454.520220,133.998066,114.855485,-9475.577496
454.520847,76.570323,133.998066,-9552.147819
454.521474,133.998066,114.855485,-9533.005238
454.522101,191.425808,76.570323,-9533.005238
454.522729,172.283227,95.712904,-9513.862658
454.523356,114.855485,38.285162,-9399.007173
454.523983,153.140646,95.712904,-9552.147819
454.524610,172.283227,76.570323,-9418.149754
454.525237,153.140646,191.425808,-9399.007173
454.525864,95.712904,172.283227,-9418.149754
454.526491,95.712904,248.853550,-9341.579430
454.527118,57.427742,191.425808,-9341.579430
454.527745,38.285162,248.853550,-9379.864592
454.528372,0.000000,248.853550,-9341.579430
454.528999,0.000000,210.568389,-9379.864592
454.529626,57.427742,133.998066,-9360.722011
454.530254,38.285162,114.855485,-9418.149754
454.530881,114.855485,133.998066,-9475.577496
454.531508,133.998066,114.855485,-9533.005238
454.532135,191.425808,95.712904,-9552.147819
454.532762,133.998066,57.427742,-9571.290400
454.533389,172.283227,19.142581,-9533.005238
454.534016,133.998066,0.000000,-9513.862658
454.534643,114.855485,38.285162,-9437.292334
454.535270,114.855485,76.570323,-9418.149754
454.535897,38.285162,172.283227,-9437.292334
454.536524,38.285162,172.283227,-9418.149754
454.537151,95.712904,191.425808,-9284.151688
454.537778,38.285162,267.996131,-9322.436850
454.538406,57.427742,191.425808,-9322.436850
454.539033,95.712904,248.853550,-9303.294269
454.539660,172.283227,153.140646,-9379.864592
454.540287,57.427742,114.855485,-9418.149754
454.540914,76.570323,153.140646,-9437.292334
454.541541,133.998066,114.855485,-9437.292334
454.542168,191.425808,76.570323,-9437.292334
454.542795,210.568389,38.285162,-9533.005238
454.543422,191.425808,76.570323,-9533.005238
454.544049,153.140646,95.712904,-9475.577496
454.544676,210.568389,76.570323,-9475.577496
454.545303,95.712904,95.712904,-9399.007173
454.545930,38.285162,114.855485,-9418.149754
454.546558,57.427742,133.998066,-9284.151688
454.547185,57.427742,172.283227,-9322.436850
454.547812,57.427742,153.140646,-9284.151688
454.548439,57.427742,172.283227,-9360.722011
454.549066,19.142581,153.140646,-9418.149754
454.549693,-38.285162,133.998066,-9399.007173
454.550320,38.285162,114.855485,-9418.149754
454.550947,114.855485,95.712904,-9399.007173
454.551574,191.425808,76.570323,-9437.292334
454.552201,210.568389,76.570323,-9475.577496
454.552829,153.140646,133.998066,-9456.434915
454.553456,210.568389,76.570323,-9533.005238
454.554083,210.568389,210.568389,-9399.007173
454.554710,76.570323,114.855485,-9456.434915
454.555337,76.570323,172.283227,-9418.149754
454.555964,76.570323,210.568389,-9418.149754
454.556592,38.285162,210.568389,-9341.579430
454.557219,57.427742,153.140646,-9360.722011
454.557846,-38.285162,172.283227,-9399.007173
454.558473,38.285162,229.710970,-9418.149754
454.559100,38.285162,153.140646,-9418.149754
454.559727,38.285162,114.855485,-9418.149754
454.560355,76.570323,114.855485,-9533.005238
454.560982,153.140646,133.998066,-9475.577496
454.561609,133.998066,95.712904,-9513.862658
454.562236,114.855485,95.712904,-9456.434915
454.562863,191.425808,57.427742,-9475.577496
454.563490,191.425808,57.427742,-9437.292334
454.564118,210.568389,133.998066,-9437.292334
454.564745,153.140646,114.855485,-9418.149754
454.565372,133.998066,153.140646,-9418.149754
454.565999,57.427742,191.425808,-9360.722011
454.566626,19.142581,306.281293,-9245.866526
454.567253,76.570323,325.423874,-9322.436850
454.567881,0.000000,267.996131,-9360.722011
454.568508,19.142581,267.996131,-9379.864592
454.569135,76.570323,172.283227,-9418.149754
454.569762,95.712904,133.998066,-9418.149754
454.570389,133.998066,114.855485,-9418.149754
454.571016,133.998066,114.855485,-9475.577496
454.571644,153.140646,133.998066,-9456.434915
454.572271,191.425808,76.570323,-9533.005238
454.572898,229.710970,95.712904,-9571.290400
454.573525,114.855485,19.142581,-9533.005238
454.574152,172.283227,76.570323,-9533.005238
454.574779,95.712904,95.712904,-9437.292334
454.575407,38.285162,172.283227,-9418.149754
454.576034,38.285162,114.855485,-9418.149754
454.576661,95.712904,191.425808,-9360.722011
454.577288,0.000000,172.283227,-9341.579430
454.577915,57.427742,191.425808,-9360.722011
454.578542,38.285162,172.283227,-9418.149754
454.579170,76.570323,210.568389,-9418.149754
454.579797,95.712904,172.283227,-9418.149754
454.580424,95.712904,114.855485,-9475.577496
454.581051,153.140646,114.855485,-9494.720077
454.581678,287.138712,114.855485,-9494.720077
454.582305,229.710970,114.855485,-9571.290400
454.582933,210.568389,172.283227,-9513.862658
454.583560,210.568389,133.998066,-9494.720077
454.584187,153.140646,133.998066,-9456.434915
454.584814,95.712904,172.283227,-9418.149754
454.585441,38.285162,172.283227,-9418.149754
454.586068,38.285162,172.283227,-9418.149754
454.586696,0.000000,153.140646,-9360.722011
454.587323,0.000000,210.568389,-9341.579430
454.587950,0.000000,210.568389,-9379.864592
454.588577,19.142581,172.283227,-9418.149754
454.589204,95.712904,191.425808,-9360.722011
454.589831,76.570323,114.855485,-9475.577496
454.590459,133.998066,133.998066,-9494.720077
454.591086,133.998066,76.570323,-9494.720077
454.591713,172.283227,38.285162,-9475.577496
454.592340,172.283227,76.570323,-9475.577496
454.592967,191.425808,38.285162,-9437.292334
454.593594,191.425808,76.570323,-9475.577496
454.594221,133.998066,133.998066,-9437.292334
454.594849,57.427742,191.425808,-9418.149754
454.595476,38.285162,229.710970,-9418.149754
454.596103,114.855485,191.425808,-9341.579430
454.596730,38.285162,248.853550,-9341.579430
454.597357,95.712904,325.423874,-9303.294269
454.597984,38.285162,248.853550,-9379.864592
454.598612,114.855485,248.853550,-9341.579430
454.599239,76.570323,153.140646,-9418.149754
454.599866,133.998066,114.855485,-9437.292334
454.600493,172.283227,76.570323,-9418.149754
454.601120,133.998066,76.570323,-9494.720077
454.601747,153.140646,38.285162,-9552.147819
454.602375,210.568389,95.712904,-9552.147819
454.603002,210.568389,76.570323,-9513.862658
454.603629,191.425808,76.570323,-9475.577496
454.604256,38.285162,114.855485,-9475.577496
454.604883,114.855485,95.712904,-9399.007173
454.605510,0.000000,133.998066,-9360.722011
454.606138,19.142581,210.568389,-9418.149754
454.606765,0.000000,267.996131,-9322.436850
454.607392,0.000000,248.853550,-9341.579430
454.608019,0.000000,229.710970,-9379.864592
454.608646,57.427742,248.853550,-9322.436850
454.609273,76.570323,191.425808,-9418.149754
454.609901,114.855485,133.998066,-9360.722011
454.610528,133.998066,114.855485,-9437.292334
454.611155,153.140646,133.998066,-9513.862658
454.611782,229.710970,76.570323,-9533.005238
454.612409,191.425808,76.570323,-9533.005238
454.613036,172.283227,57.427742,-9533.005238
454.613664,172.283227,76.570323,-9418.149754
454.614291,153.140646,133.998066,-9399.007173
454.614918,76.570323,95.712904,-9399.007173
454.615545,76.570323,114.855485,-9418.149754
454.616172,57.427742,114.855485,-9418.149754
454.616799,-38.285162,191.425808,-9399.007173
454.617427,19.142581,267.996131,-9322.436850
454.618054,38.285162,229.710970,-9418.149754
454.618681,95.712904,191.425808,-9360.722011
454.619308,76.570323,153.140646,-9437.292334
454.619935,76.570323,114.855485,-9437.292334
454.620562,153.140646,95.712904,-9437.292334
454.621190,210.568389,57.427742,-9494.720077
454.621817,191.425808,76.570323,-9533.005238
454.622444,153.140646,133.998066,-9437.292334
454.623071,153.140646,95.712904,-9533.005238
454.623698,172.283227,153.140646,-9379.864592
454.624325,153.140646,153.140646,-9399.007173
454.624953,133.998066,210.568389,-9399.007173
454.625580,57.427742,191.425808,-9360.722011
454.626207,95.712904,248.853550,-9360.722011
454.626834,19.142581,267.996131,-9322.436850
454.627461,57.427742,191.425808,-9360.722011
454.628088,38.285162,172.283227,-9418.149754
454.628716,38.285162,153.140646,-9418.149754
454.629343,19.142581,153.140646,-9475.577496
454.629970,133.998066,114.855485,-9456.434915
454.630597,191.425808,57.427742,-9475.577496
454.631224,114.855485,95.712904,-9513.862658
454.631851,210.568389,38.285162,-9552.147819
454.632479,210.568389,133.998066,-9513.862658
454.633106,172.283227,76.570323,-9475.577496
454.633733,210.568389,133.998066,-9399.007173
454.634360,76.570323,114.855485,-9437.292334
454.634987,76.570323,210.568389,-9360.722011
454.635614,0.000000,248.853550,-9284.151688
454.636242,38.285162,248.853550,-9303.294269
454.636869,0.000000,248.853550,-9341.579430
454.637496,19.142581,229.710970,-9418.149754
454.638123,57.427742,287.138712,-9379.864592
454.638750,0.000000,191.425808,-9360.722011
454.639377,38.285162,114.855485,-9418.149754
454.640005,114.855485,114.855485,-9418.149754
454.640632,153.140646,114.855485,-9437.292334
454.641259,210.568389,76.570323,-9475.577496
454.641886,210.568389,95.712904,-9533.005238
454.642513,229.710970,38.285162,-9552.147819
454.643140,191.425808,76.570323,-9475.577496
454.643768,133.998066,172.283227,-9475.577496
454.644395,19.142581,114.855485,-9456.434915
454.645022,38.285162,114.855485,-9418.149754
454.645649,19.142581,114.855485,-9418.149754
454.646276,-38.285162,229.710970,-9360.722011
454.646903,-19.142581,267.996131,-9418.149754
454.647530,95.712904,191.425808,-9360.722011
454.648158,76.570323,229.710970,-9418.149754
454.648785,133.998066,229.710970,-9418.149754
454.649412,133.998066,153.140646,-9418.149754
454.650039,133.998066,153.140646,-9418.149754
454.650666,153.140646,114.855485,-9418.149754
454.651293,172.283227,76.570323,-9437.292334
454.651921,172.283227,76.570323,-9437.292334
454.652548,153.140646,133.998066,-9437.292334
454.653175,153.140646,95.712904,-9360.722011
454.653802,76.570323,172.283227,-9418.149754
454.654429,114.855485,133.998066,-9341.579430
454.655057,38.285162,153.140646,-9418.149754
454.655684,38.285162,210.568389,-9418.149754
454.656311,0.000000,210.568389,-9360.722011
454.656938,0.000000,248.853550,-9418.149754
454.657565,-38.285162,172.283227,-9399.007173
454.658192,57.427742,114.855485,-9437.292334
454.658820,95.712904,114.855485,-9456.434915
454.659447,76.570323,114.855485,-9437.292334
454.660074,76.570323,114.855485,-9533.005238
454.660701,172.283227,114.855485,-9571.290400
454.661328,153.140646,95.712904,-9552.147819
454.661956,133.998066,76.570323,-9494.720077
454.662583,172.283227,95.712904,-9437.292334
454.663210,229.710970,76.570323,-9418.149754
454.663837,76.570323,114.855485,-9437.292334
454.664464,57.427742,229.710970,-9418.149754
454.665091,38.285162,248.853550,-9379.864592
454.665719,-19.142581,229.710970,-9265.009107
454.666346,57.427742,191.425808,-9360.722011
454.666973,95.712904,267.996131,-9379.864592
454.667600,114.855485,191.425808,-9341.579430
454.668227,76.570323,229.710970,-9418.149754
454.668855,76.570323,153.140646,-9437.292334
454.669482,133.998066,114.855485,-9456.434915
454.670109,133.998066,114.855485,-9494.720077
454.670736,191.425808,76.570323,-9533.005238
454.671363,172.283227,38.285162,-9475.577496
454.671990,210.568389,19.142581,-9533.005238
454.672618,133.998066,38.285162,-9494.720077
454.673245,153.140646,133.998066,-9437.292334
454.673872,57.427742,114.855485,-9418.149754
454.674499,38.285162,172.283227,-9418.149754
454.675126,57.427742,153.140646,-9360.722011
454.675754,-19.142581,153.140646,-9360.722011
454.676381,-38.285162,191.425808,-9399.007173
454.677008,0.000000,229.710970,-9399.007173
454.677635,0.000000,229.710970,-9399.007173
454.678262,76.570323,153.140646,-9418.149754
454.678889,133.998066,114.855485,-9418.149754
454.679517,133.998066,114.855485,-9418.149754
454.680144,153.140646,133.998066,-9437.292334
454.680771,229.710970,76.570323,-9494.720077
454.681398,248.853550,133.998066,-9437.292334
454.682025,172.283227,95.712904,-9475.577496
454.682653,114.855485,95.712904,-9494.720077
454.683280,114.855485,114.855485,-9399.007173
454.683907,76.570323,114.855485,-9418.149754
454.684534,76.570323,133.998066,-9379.864592
454.685161,38.285162,191.425808,-9418.149754
454.685788,0.000000,172.283227,-9360.722011
454.686416,76.570323,267.996131,-9379.864592
454.687043,19.142581,114.855485,-9418.149754
454.687670,95.712904,191.425808,-9341.579430
454.688297,57.427742,172.283227,-9437.292334
454.688924,57.427742,95.712904,-9456.434915
454.689552,153.140646,114.855485,-9494.720077
454.690179,153.140646,114.855485,-9456.434915
454.690806,210.568389,133.998066,-9456.434915
454.691433,248.853550,153.140646,-9437.292334
454.692060,210.568389,133.998066,-9494.720077
454.692687,191.425808,172.283227,-9379.864592
454.693315,95.712904,95.712904,-9399.007173
454.693942,0.000000,133.998066,-9360.722011
454.694569,57.427742,133.998066,-9360.722011
454.695196,0.000000,191.425808,-9245.866526
454.695823,-38.285162,248.853550,-9379.864592
454.696450,0.000000,248.853550,-9360.722011
454.697078,57.427742,153.140646,-9418.149754
454.697705,95.712904,133.998066,-9360.722011
454.698332,19.142581,114.855485,-9418.149754
454.698959,95.712904,114.855485,-9533.005238
454.699586,172.283227,76.570323,-9533.005238
454.700214,172.283227,114.855485,-9571.290400
454.700841,172.283227,76.570323,-9533.005238
454.701468,172.283227,19.142581,-9475.577496
454.702095,114.855485,95.712904,-9513.862658
454.702722,172.283227,76.570323,-9418.149754
454.703349,95.712904,114.855485,-9456.434915
454.703977,57.427742,133.998066,-9341.579430
454.704604,38.285162,229.710970,-9418.149754
454.705231,95.712904,248.853550,-9245.866526
454.705858,38.285162,229.710970,-9341.579430
454.706485,57.427742,248.853550,-9360.722011
454.707113,57.427742,248.853550,-9341.579430
454.707740,57.427742,191.425808,-9360.722011
454.708367,38.285162,210.568389,-9456.434915
454.708994,133.998066,114.855485,-9437.292334
454.709621,191.425808,38.285162,-9475.577496
454.710248,191.425808,133.998066,-9456.434915
454.710876,133.998066,133.998066,-9571.290400
454.711503,153.140646,76.570323,-9456.434915
454.712130,287.138712,76.570323,-9475.577496
454.712757,133.998066,133.998066,-9475.577496
454.713384,76.570323,114.855485,-9475.577496
454.714012,57.427742,95.712904,-9399.007173
454.714639,57.427742,133.998066,-9341.579430
454.715266,57.427742,210.568389,-9341.579430
454.715893,38.285162,172.283227,-9418.149754
454.716520,38.285162,153.140646,-9418.149754
454.717147,76.570323,191.425808,-9418.149754
454.717775,38.285162,153.140646,-9437.292334
454.718402,95.712904,114.855485,-9418.149754
454.719029,153.140646,114.855485,-9533.005238
454.719656,153.140646,153.140646,-9456.434915
454.720283,172.283227,76.570323,-9494.720077
454.720911,210.568389,133.998066,-9494.720077
454.721538,210.568389,133.998066,-9399.007173
454.722165,229.710970,76.570323,-9456.434915
454.722792,172.283227,76.570323,-9418.149754
454.723419,76.570323,172.283227,-9418.149754
454.724046,95.712904,153.140646,-9360.722011
454.724674,95.712904,133.998066,-9341.579430
454.725301,0.000000,153.140646,-9360.722011
454.725928,-76.570323,229.710970,-9284.151688
454.726555,19.142581,114.855485,-9437.292334
454.727182,76.570323,191.425808,-9360.722011
454.727810,76.570323,114.855485,-9533.005238
454.728437,57.427742,95.712904,-9399.007173
454.729064,114.855485,95.712904,-9494.720077
454.729691,210.568389,76.570323,-9456.434915
454.730318,248.853550,95.712904,-9552.147819
454.730945,153.140646,95.712904,-9552.147819
454.731573,153.140646,95.712904,-9552.147819
454.732200,153.140646,133.998066,-9494.720077
454.732827,153.140646,133.998066,-9437.292334
454.733454,76.570323,172.283227,-9418.149754
454.734081,133.998066,114.855485,-9418.149754
454.734709,0.000000,191.425808,-9303.294269
454.735336,0.000000,248.853550,-9322.436850
454.735963,19.142581,248.853550,-9284.151688
454.736590,57.427742,191.425808,-9360.722011
454.737217,57.427742,229.710970,-9399.007173
454.737844,95.712904,153.140646,-9437.292334
454.738472,133.998066,95.712904,-9533.005238
454.739099,153.140646,133.998066,-9494.720077
454.739726,133.998066,95.712904,-9533.005238
454.740353,210.568389,95.712904,-9552.147819
454.740980,191.425808,76.570323,-9494.720077
454.741608,172.283227,57.427742,-9475.577496
454.742235,172.283227,76.570323,-9418.149754
454.742862,76.570323,114.855485,-9456.434915
454.743489,133.998066,133.998066,-9399.007173
454.744116,57.427742,172.283227,-9418.149754
454.744743,57.427742,133.998066,-9360.722011
454.745371,76.570323,210.568389,-9456.434915
454.745998,0.000000,153.140646,-9322.436850
454.746625,38.285162,172.283227,-9418.149754
454.747252,38.285162,210.568389,-9437.292334
454.747879,95.712904,172.283227,-9418.149754
454.748506,191.425808,133.998066,-9437.292334
454.749134,248.853550,133.998066,-9494.720077
454.749761,172.283227,76.570323,-9494.720077
454.750388,191.425808,76.570323,-9456.434915
454.751015,210.568389,133.998066,-9494.720077
454.751642,248.853550,76.570323,-9456.434915
454.752270,133.998066,114.855485,-9437.292334
454.752897,38.285162,114.855485,-9418.149754
454.753524,133.998066,191.425808,-9399.007173
454.754151,19.142581,191.425808,-9399.007173
454.754778,38.285162,172.283227,-9360.722011
454.755405,-19.142581,153.140646,-9322.436850
454.756033,19.142581,172.283227,-9399.007173
454.756660,38.285162,210.568389,-9360.722011
454.757287,95.712904,133.998066,-9360.722011
454.757915,76.570323,114.855485,-9418.149754
454.758543,114.855485,95.712904,-9456.434915
454.759170,210.568389,95.712904,-9552.147819
454.759798,114.855485,0.000000,-9513.862658
454.760425,95.712904,95.712904,-9494.720077
454.761053,153.140646,133.998066,-9437.292334
454.761680,133.998066,114.855485,-9418.149754
454.762308,76.570323,153.140646,-9456.434915
454.762935,95.712904,153.140646,-9360.722011
454.763563,76.570323,267.996131,-9341.579430
454.764190,95.712904,248.853550,-9303.294269
454.764818,0.000000,153.140646,-9341.579430
454.765446,-38.285162,229.710970,-9360.722011
454.766073,-38.285162,229.710970,-9360.722011
454.766701,95.712904,191.425808,-9360.722011
454.767328,133.998066,114.855485,-9456.434915
454.767956,133.998066,114.855485,-9437.292334
454.768583,153.140646,172.283227,-9513.862658
454.769211,153.140646,57.427742,-9513.862658
454.769838,153.140646,38.285162,-9552.147819
454.770466,172.283227,76.570323,-9475.577496
454.771094,172.283227,76.570323,-9533.005238
454.771721,133.998066,114.855485,-9418.149754
454.772349,95.712904,95.712904,-9418.149754
454.772976,57.427742,210.568389,-9360.722011
454.773604,76.570323,114.855485,-9418.149754
454.774231,76.570323,210.568389,-9360.722011
454.774859,19.142581,210.568389,-9418.149754
454.775486,57.427742,248.853550,-9341.579430
454.776114,57.427742,172.283227,-9360.722011
454.776741,57.427742,172.283227,-9360.722011
454.777369,95.712904,95.712904,-9399.007173
454.777997,133.998066,114.855485,-9418.149754
454.778624,229.710970,172.283227,-9571.290400
454.779252,210.568389,133.998066,-9513.862658
454.779879,229.710970,114.855485,-9513.862658
454.780507,153.140646,114.855485,-9437.292334
454.781134,172.283227,76.570323,-9475.577496
454.781762,172.283227,76.570323,-9437.292334
454.782389,95.712904,133.998066,-9360.722011
454.783017,76.570323,114.855485,-9418.149754
454.783645,38.285162,114.855485,-9418.149754
454.784272,0.000000,210.568389,-9418.149754
454.784900,19.142581,248.853550,-9399.007173
454.785527,0.000000,133.998066,-9360.722011
454.786155,0.000000,95.712904,-9399.007173
454.786782,76.570323,210.568389,-9418.149754
454.787410,76.570323,95.712904,-9399.007173
454.788037,133.998066,114.855485,-9437.292334
454.788665,191.425808,57.427742,-9533.005238
454.789293,191.425808,76.570323,-9494.720077
454.789920,210.568389,153.140646,-9437.292334
454.790548,248.853550,133.998066,-9456.434915
454.791175,229.710970,133.998066,-9399.007173
454.791803,153.140646,133.998066,-9399.007173
454.792430,114.855485,133.998066,-9360.722011
454.793058,38.285162,114.855485,-9418.149754
454.793685,95.712904,191.425808,-9360.722011
454.794313,0.000000,229.710970,-9322.436850
454.794940,19.142581,267.996131,-9284.151688
454.795568,-38.285162,191.425808,-9399.007173
454.796196,38.285162,210.568389,-9418.149754
454.796823,38.285162,114.855485,-9437.292334
454.797451,95.712904,95.712904,-9437.292334
454.798078,76.570323,76.570323,-9571.290400
454.798706,172.283227,95.712904,-9494.720077
454.799333,172.283227,76.570323,-9533.005238
454.799961,191.425808,76.570323,-9533.005238
454.800588,191.425808,57.427742,-9475.577496
454.801216,172.283227,76.570323,-9418.149754
454.801844,133.998066,153.140646,-9437.292334
454.802471,114.855485,133.998066,-9341.579430
454.803099,95.712904,287.138712,-9322.436850
454.803726,0.000000,153.140646,-9245.866526
454.804354,0.000000,191.425808,-9284.151688
454.804981,38.285162,267.996131,-9284.151688
454.805609,95.712904,229.710970,-9418.149754
454.806236,95.712904,287.138712,-9399.007173
454.806864,133.998066,153.140646,-9418.149754
454.807492,172.283227,76.570323,-9437.292334
454.808119,133.998066,114.855485,-9475.577496
454.808747,210.568389,76.570323,-9475.577496
454.809374,191.425808,95.712904,-9533.005238
454.810002,191.425808,57.427742,-9418.149754
454.810629,191.425808,38.285162,-9418.149754
454.811257,133.998066,114.855485,-9456.434915
454.811884,76.570323,172.283227,-9418.149754
454.812512,38.285162,114.855485,-9418.149754
454.813139,76.570323,210.568389,-9341.579430
454.813767,0.000000,153.140646,-9360.722011
454.814395,57.427742,191.425808,-9360.722011
454.815022,-19.142581,172.283227,-9379.864592
454.815650,57.427742,133.998066,-9360.722011
454.816277,38.285162,153.140646,-9437.292334
454.816905,76.570323,153.140646,-9418.149754
454.817532,133.998066,114.855485,-9418.149754
454.818160,210.568389,133.998066,-9437.292334
454.818787,172.283227,76.570323,-9533.005238
454.819415,191.425808,76.570323,-9456.434915
454.820043,191.425808,76.570323,-9494.720077
454.820670,210.568389,133.998066,-9437.292334
454.821298,133.998066,133.998066,-9399.007173
454.821925,76.570323,114.855485,-9418.149754
454.822553,0.000000,248.853550,-9360.722011
454.823180,38.285162,153.140646,-9284.151688
454.823808,38.285162,153.140646,-9418.149754
454.824435,-38.285162,210.568389,-9418.149754
454.825063,19.142581,210.568389,-9418.149754
454.825690,19.142581,76.570323,-9379.864592
454.826318,76.570323,114.855485,-9418.149754
454.826946,153.140646,133.998066,-9437.292334
454.827573,114.855485,133.998066,-9552.147819
454.828201,191.425808,76.570323,-9533.005238
454.828828,172.283227,76.570323,-9456.434915
454.829456,229.710970,57.427742,-9475.577496
454.830083,114.855485,95.712904,-9437.292334
454.830711,191.425808,76.570323,-9418.149754
454.831338,95.712904,133.998066,-9360.722011
454.831966,57.427742,210.568389,-9360.722011
454.832594,38.285162,229.710970,-9360.722011
454.833221,57.427742,248.853550,-9303.294269
454.833849,19.142581,267.996131,-9303.294269
454.834476,0.000000,191.425808,-9322.436850
454.835104,19.142581,191.425808,-9399.007173
454.835731,95.712904,114.855485,-9418.149754
454.836359,76.570323,114.855485,-9418.149754
454.836986,95.712904,95.712904,-9456.434915
454.837614,172.283227,76.570323,-9533.005238
454.838242,153.140646,38.285162,-9552.147819
454.838869,191.425808,19.142581,-9533.005238
454.839497,191.425808,76.570323,-9494.720077
454.840124,153.140646,95.712904,-9533.005238
454.840752,210.568389,76.570323,-9533.005238
454.841379,95.712904,95.712904,-9399.007173
454.842007,38.285162,153.140646,-9418.149754
454.842634,19.142581,210.568389,-9418.149754
454.843262,19.142581,229.710970,-9418.149754
454.843889,0.000000,229.710970,-9379.864592
454.844517,38.285162,267.996131,-9379.864592
454.845145,95.712904,248.853550,-9245.866526
454.845772,76.570323,191.425808,-9360.722011
454.846400,76.570323,114.855485,-9418.149754
454.847027,95.712904,172.283227,-9456.434915
454.847655,153.140646,114.855485,-9475.577496
454.848282,191.425808,133.998066,-9494.720077
454.848910,191.425808,76.570323,-9456.434915
454.849537,210.568389,133.998066,-9494.720077
454.850165,229.710970,76.570323,-9456.434915
454.850793,172.283227,76.570323,-9418.149754
454.851420,95.712904,95.712904,-9399.007173
454.852048,38.285162,114.855485,-9418.149754
454.852675,57.427742,133.998066,-9341.579430
454.853303,0.000000,153.140646,-9379.864592
454.853930,19.142581,172.283227,-9418.149754
454.854558,19.142581,76.570323,-9379.864592
454.855185,95.712904,76.570323,-9322.436850
454.855813,38.285162,153.140646,-9437.292334
454.856441,95.712904,95.712904,-9475.577496
454.857068,133.998066,114.855485,-9533.005238
454.857696,210.568389,133.998066,-9513.862658
454.858323,210.568389,133.998066,-9494.720077
454.858951,172.283227,76.570323,-9437.292334
454.859578,133.998066,114.855485,-9475.577496
454.860206,153.140646,172.283227,-9418.149754
454.860833,76.570323,210.568389,-9418.149754
454.861461,95.712904,191.425808,-9360.722011
454.862089,57.427742,248.853550,-9360.722011
454.862716,114.855485,248.853550,-9322.436850
454.863344,19.142581,267.996131,-9322.436850
454.863971,19.142581,248.853550,-9322.436850
454.864599,38.285162,229.710970,-9418.149754
454.865226,95.712904,133.998066,-9360.722011
454.865854,95.712904,114.855485,-9494.720077
454.866482,38.285162,114.855485,-9494.720077
454.867109,114.855485,38.285162,-9513.862658
454.867737,153.140646,38.285162,-9552.147819
454.868364,172.283227,57.427742,-9494.720077
454.868992,191.425808,57.427742,-9437.292334
454.869619,248.853550,133.998066,-9513.862658
454.870247,191.425808,76.570323,-9437.292334
454.870875,114.855485,95.712904,-9399.007173
454.871502,76.570323,172.283227,-9418.149754
454.872130,19.142581,267.996131,-9379.864592
454.872757,0.000000,248.853550,-9341.579430
454.873385,19.142581,191.425808,-9379.864592
454.874012,57.427742,248.853550,-9360.722011
454.874640,38.285162,229.710970,-9341.579430
454.875268,76.570323,248.853550,-9360.722011
454.875895,76.570323,172.283227,-9360.722011
454.876523,133.998066,114.855485,-9437.292334
454.877150,153.140646,133.998066,-9494.720077
454.877778,191.425808,114.855485,-9513.862658
454.878405,191.425808,38.285162,-9475.577496
454.879033,172.283227,76.570323,-9533.005238
454.879660,191.425808,38.285162,-9475.577496
454.880288,172.283227,76.570323,-9437.292334
454.880916,133.998066,114.855485,-9494.720077
454.881543,38.285162,172.283227,-9456.434915
454.882171,38.285162,114.855485,-9418.149754
454.882798,38.285162,114.855485,-9418.149754
454.883426,19.142581,114.855485,-9456.434915
454.884053,19.142581,114.855485,-9418.149754
454.884681,76.570323,114.855485,-9437.292334
454.885309,38.285162,114.855485,-9418.149754
454.885936,76.570323,114.855485,-9437.292334
454.886564,153.140646,210.568389,-9456.434915
454.887191,210.568389,133.998066,-9494.720077
454.887819,210.568389,133.998066,-9513.862658
454.888446,210.568389,133.998066,-9494.720077
454.889074,248.853550,133.998066,-9513.862658
454.889702,191.425808,172.283227,-9456.434915
454.890329,153.140646,191.425808,-9437.292334
454.890957,95.712904,210.568389,-9360.722011
454.891584,95.712904,191.425808,-9360.722011
454.892212,19.142581,229.710970,-9418.149754
454.892839,-38.285162,248.853550,-9399.007173
454.893467,57.427742,191.425808,-9360.722011
454.894095,19.142581,153.140646,-9437.292334
454.894722,0.000000,133.998066,-9360.722011
454.895350,38.285162,172.283227,-9418.149754
454.895977,95.712904,114.855485,-9475.577496
454.896605,133.998066,57.427742,-9590.432981
454.897232,191.425808,57.427742,-9533.005238
454.897860,172.283227,57.427742,-9533.005238
454.898488,210.568389,95.712904,-9513.862658
454.899115,172.283227,76.570323,-9475.577496
454.899743,191.425808,133.998066,-9437.292334
454.900370,76.570323,153.140646,-9437.292334
454.900998,76.570323,172.283227,-9360.722011
454.901625,95.712904,287.138712,-9399.007173
454.902253,95.712904,153.140646,-9360.722011
454.902880,19.142581,191.425808,-9379.864592
454.903508,76.570323,267.996131,-9341.579430
454.904136,95.712904,191.425808,-9284.151688
454.904763,57.427742,191.425808,-9341.579430
454.905391,133.998066,172.283227,-9418.149754
454.906018,191.425808,76.570323,-9475.577496
454.906646,153.140646,95.712904,-9533.005238
454.907273,210.568389,76.570323,-9533.005238
454.907901,248.853550,95.712904,-9552.147819
454.908529,172.283227,76.570323,-9533.005238
454.909156,153.140646,38.285162,-9475.577496
454.909784,172.283227,76.570323,-9418.149754
454.910411,114.855485,95.712904,-9399.007173
454.911039,76.570323,114.855485,-9418.149754
454.911666,38.285162,114.855485,-9360.722011
454.912294,57.427742,114.855485,-9399.007173
454.912922,0.000000,153.140646,-9284.151688
454.913549,57.427742,153.140646,-9360.722011
454.914177,95.712904,114.855485,-9418.149754
454.914804,114.855485,172.283227,-9360.722011
454.915432,133.998066,114.855485,-9418.149754
454.916059,172.283227,95.712904,-9475.577496
454.916687,248.853550,133.998066,-9513.862658
454.917315,191.425808,114.855485,-9513.862658
454.917942,191.425808,133.998066,-9418.149754
454.918570,210.568389,133.998066,-9513.862658
454.919197,191.425808,133.998066,-9456.434915
454.919825,76.570323,153.140646,-9418.149754
454.920452,57.427742,133.998066,-9360.722011
454.921080,57.427742,191.425808,-9341.579430
454.921708,95.712904,191.425808,-9341.579430
454.922335,19.142581,191.425808,-9418.149754
454.922963,19.142581,153.140646,-9418.149754
454.923590,-38.285162,191.425808,-9399.007173
454.924218,76.570323,114.855485,-9418.149754
454.924845,38.285162,114.855485,-9437.292334
454.925473,0.000000,95.712904,-9456.434915
454.926100,153.140646,114.855485,-9533.005238
454.926728,153.140646,38.285162,-9533.005238
454.927356,191.425808,76.570323,-9475.577496
454.927983,114.855485,38.285162,-9494.720077
454.928611,172.283227,76.570323,-9475.577496
454.929238,210.568389,76.570323,-9418.149754
454.929866,133.998066,114.855485,-9418.149754
454.930493,38.285162,172.283227,-9360.722011
454.931121,76.570323,248.853550,-9341.579430
454.931749,114.855485,210.568389,-9284.151688
454.932376,38.285162,229.710970,-9360.722011
454.933004,57.427742,248.853550,-9360.722011
454.933631,95.712904,133.998066,-9360.722011
454.934259,76.570323,172.283227,-9418.149754
454.934886,38.285162,114.855485,-9418.149754
454.935514,153.140646,172.283227,-9437.292334
454.936142,172.283227,57.427742,-9475.577496
454.936769,191.425808,57.427742,-9533.005238
454.937397,172.283227,76.570323,-9533.005238
454.938024,172.283227,38.285162,-9475.577496
454.938652,153.140646,38.285162,-9475.577496
454.939279,114.855485,76.570323,-9475.577496
454.939907,38.285162,172.283227,-9437.292334
454.940535,95.712904,153.140646,-9360.722011
454.941162,57.427742,153.140646,-9322.436850
454.941790,0.000000,172.283227,-9418.149754
454.942417,38.285162,114.855485,-9360.722011
454.943045,57.427742,153.140646,-9322.436850
454.943672,38.285162,210.568389,-9418.149754
454.944300,38.285162,229.710970,-9418.149754
454.944928,95.712904,114.855485,-9475.577496
454.945555,153.140646,114.855485,-9418.149754
454.946183,248.853550,133.998066,-9456.434915
454.946810,191.425808,76.570323,-9475.577496
454.947438,210.568389,133.998066,-9399.007173
454.948065,191.425808,76.570323,-9475.577496
454.948693,153.140646,133.998066,-9456.434915
454.949320,153.140646,133.998066,-9399.007173
454.949948,76.570323,114.855485,-9456.434915
454.950576,95.712904,191.425808,-9303.294269
454.951203,0.000000,191.425808,-9341.579430
454.951831,-38.285162,133.998066,-9399.007173
454.952458,-38.285162,114.855485,-9418.149754
454.953086,19.142581,114.855485,-9418.149754
454.953713,0.000000,191.425808,-9418.149754
454.954341,38.285162,95.712904,-9437.292334
454.954969,38.285162,114.855485,-9456.434915
454.955596,153.140646,114.855485,-9475.577496
454.956224,229.710970,76.570323,-9475.577496
454.956851,133.998066,114.855485,-9533.005238
454.957479,153.140646,133.998066,-9437.292334
454.958106,191.425808,114.855485,-9513.862658
454.958734,153.140646,172.283227,-9399.007173
454.959361,133.998066,210.568389,-9418.149754
454.959989,57.427742,248.853550,-9360.722011
454.960616,95.712904,191.425808,-9284.151688
454.961243,19.142581,267.996131,-9322.436850
454.961871,-76.570323,210.568389,-9322.436850
454.962498,38.285162,210.568389,-9418.149754
454.963126,38.285162,210.568389,-9418.149754
454.963753,38.285162,114.855485,-9418.149754
454.964380,38.285162,153.140646,-9456.434915
454.965008,114.855485,95.712904,-9494.720077
454.965635,133.998066,57.427742,-9571.290400
454.966263,114.855485,57.427742,-9533.005238
454.966890,191.425808,76.570323,-9533.005238
454.967517,172.283227,76.570323,-9533.005238
454.968145,153.140646,95.712904,-9533.005238
454.968772,114.855485,133.998066,-9533.005238
454.969400,19.142581,153.140646,-9456.434915
454.970027,38.285162,210.568389,-9418.149754
454.970655,57.427742,287.138712,-9379.864592
454.971282,38.285162,267.996131,-9379.864592
454.971909,38.285162,229.710970,-9360.722011
454.972537,38.285162,172.283227,-9360.722011
454.973164,76.570323,191.425808,-9341.579430
454.973792,57.427742,133.998066,-9341.579430
454.974419,114.855485,95.712904,-9399.007173
454.975046,114.855485,38.285162,-9399.007173
454.975674,191.425808,76.570323,-9418.149754
454.976301,210.568389,133.998066,-9494.720077
454.976929,191.425808,133.998066,-9437.292334
454.977556,191.425808,133.998066,-9513.862658
454.978184,133.998066,133.998066,-9475.577496
454.978811,133.998066,153.140646,-9456.434915
454.979438,76.570323,153.140646,-9418.149754
454.980066,38.285162,191.425808,-9360.722011
454.980693,-19.142581,191.425808,-9341.579430
454.981321,19.142581,153.140646,-9437.292334
454.981948,57.427742,153.140646,-9418.149754
454.982575,19.142581,114.855485,-9418.149754
454.983203,-19.142581,153.140646,-9379.864592
454.983830,38.285162,114.855485,-9418.149754
454.984458,95.712904,114.855485,-9418.149754
454.985085,133.998066,114.855485,-9437.292334
454.985712,172.283227,76.570323,-9418.149754
454.986340,210.568389,133.998066,-9437.292334
454.986967,210.568389,133.998066,-9399.007173
454.987595,191.425808,76.570323,-9418.149754
454.988222,191.425808,133.998066,-9475.577496
454.988850,76.570323,210.568389,-9418.149754
454.989477,95.712904,229.710970,-9418.149754
454.990104,38.285162,229.710970,-9379.864592
454.990732,0.000000,191.425808,-9360.722011
454.991359,-19.142581,229.710970,-9379.864592
454.991987,-38.285162,172.283227,-9399.007173
454.992614,38.285162,172.283227,-9360.722011
454.993241,38.285162,114.855485,-9418.149754
454.993869,133.998066,133.998066,-9399.007173
454.994496,133.998066,114.855485,-9533.005238
454.995124,210.568389,95.712904,-9533.005238
454.995751,191.425808,76.570323,-9533.005238
454.996379,191.425808,76.570323,-9533.005238
454.997006,191.425808,76.570323,-9533.005238
454.997633,114.855485,133.998066,-9533.005238
454.998261,133.998066,114.855485,-9418.149754
454.998888,0.000000,95.712904,-9399.007173
454.999516,-38.285162,210.568389,-9399.007173
455.000143,19.142581,229.710970,-9418.149754
455.000770,-19.142581,267.996131,-9418.149754
455.001398,38.285162,248.853550,-9341.579430
455.002025,57.427742,248.853550,-9360.722011
455.002653,114.855485,191.425808,-9360.722011
455.003280,38.285162,114.855485,-9418.149754
455.003907,76.570323,76.570323,-9379.864592
455.004535,153.140646,95.712904,-9533.005238
455.005162,210.568389,133.998066,-9437.292334
455.005790,210.568389,76.570323,-9533.005238
455.006417,248.853550,76.570323,-9494.720077
455.007045,153.140646,57.427742,-9533.005238
455.007672,153.140646,133.998066,-9494.720077
455.008299,153.140646,133.998066,-9437.292334
455.008927,95.712904,153.140646,-9475.577496
455.009554,38.285162,114.855485,-9418.149754
455.010182,57.427742,191.425808,-9360.722011
455.010809,0.000000,210.568389,-9418.149754
455.011436,0.000000,248.853550,-9360.722011
455.012064,57.427742,172.283227,-9360.722011
455.012691,38.285162,172.283227,-9418.149754
455.013319,95.712904,95.712904,-9399.007173
455.013946,95.712904,153.140646,-9418.149754
455.014573,191.425808,133.998066,-9399.007173
455.015201,210.568389,133.998066,-9437.292334
455.015828,191.425808,76.570323,-9533.005238
455.016456,210.568389,133.998066,-9456.434915
455.017083,153.140646,133.998066,-9399.007173
455.017711,133.998066,172.283227,-9533.005238
455.018338,76.570323,114.855485,-9456.434915
455.018965,153.140646,248.853550,-9399.007173
455.019593,0.000000,287.138712,-9399.007173
455.020220,57.427742,172.283227,-9322.436850
455.020848,-76.570323,153.140646,-9322.436850
455.021475,0.000000,191.425808,-9418.149754
455.022102,38.285162,153.140646,-9418.149754
455.022730,57.427742,114.855485,-9418.149754
455.023357,95.712904,114.855485,-9437.292334
455.023985,76.570323,38.285162,-9513.862658
455.024612,114.855485,95.712904,-9494.720077
455.025240,133.998066,95.712904,-9552.147819
455.025867,210.568389,95.712904,-9533.005238
455.026494,172.283227,76.570323,-9437.292334
455.027122,172.283227,76.570323,-9456.434915
455.027749,153.140646,133.998066,-9456.434915
455.028377,76.570323,153.140646,-9418.149754
455.029004,57.427742,210.568389,-9360.722011
455.029631,57.427742,248.853550,-9303.294269
455.030259,0.000000,248.853550,-9303.294269
455.030886,-19.142581,229.710970,-9303.294269
455.031514,57.427742,248.853550,-9245.866526
455.032141,133.998066,248.853550,-9379.864592
455.032768,95.712904,133.998066,-9360.722011
455.033396,38.285162,114.855485,-9418.149754
455.034023,153.140646,133.998066,-9513.862658
455.034651,210.568389,133.998066,-9399.007173
455.035278,191.425808,76.570323,-9533.005238
455.035906,172.283227,95.712904,-9513.862658
455.036533,133.998066,57.427742,-9513.862658
455.037160,172.283227,76.570323,-9418.149754
455.037788,133.998066,172.283227,-9494.720077
455.038415,133.998066,191.425808,-9418.149754
455.039043,38.285162,133.998066,-9379.864592
455.039670,38.285162,191.425808,-9360.722011
455.040297,19.142581,229.710970,-9418.149754
455.040925,38.285162,191.425808,-9303.294269
455.041552,38.285162,172.283227,-9418.149754
455.042180,38.285162,153.140646,-9418.149754
455.042807,95.712904,95.712904,-9399.007173
455.043435,38.285162,114.855485,-9456.434915
455.044062,133.998066,114.855485,-9418.149754
455.044689,191.425808,76.570323,-9437.292334
455.045317,133.998066,114.855485,-9533.005238
455.045944,153.140646,133.998066,-9494.720077
455.046572,191.425808,76.570323,-9456.434915
455.047199,210.568389,133.998066,-9437.292334
455.047826,153.140646,133.998066,-9399.007173
455.048454,38.285162,153.140646,-9418.149754
455.049081,95.712904,248.853550,-9360.722011
455.049709,-38.285162,210.568389,-9418.149754
455.050336,-38.285162,133.998066,-9379.864592
455.050963,38.285162,114.855485,-9418.149754
455.051591,38.285162,172.283227,-9418.149754
455.052218,19.142581,133.998066,-9456.434915
455.052846,38.285162,114.855485,-9437.292334
455.053473,133.998066,114.855485,-9437.292334
455.054101,191.425808,76.570323,-9418.149754
455.054728,172.283227,76.570323,-9533.005238
455.055355,191.425808,76.570323,-9533.005238
455.055983,191.425808,76.570323,-9533.005238
455.056610,153.140646,133.998066,-9456.434915
455.057238,133.998066,153.140646,-9418.149754
455.057865,57.427742,172.283227,-9360.722011
455.058492,38.285162,76.570323,-9379.864592
455.059120,0.000000,248.853550,-9360.722011
455.059747,38.285162,153.140646,-9360.722011
455.060375,38.285162,191.425808,-9341.579430
455.061002,38.285162,267.996131,-9379.864592
455.061630,38.285162,210.568389,-9418.149754
455.062257,57.427742,114.855485,-9418.149754
455.062885,133.998066,114.855485,-9437.292334
455.063512,191.425808,133.998066,-9513.862658
455.064140,210.568389,133.998066,-9494.720077
455.064767,172.283227,114.855485,-9571.290400
455.065395,191.425808,76.570323,-9475.577496
455.066022,248.853550,38.285162,-9533.005238
455.066650,172.283227,133.998066,-9494.720077
455.067277,76.570323,114.855485,-9418.149754
455.067905,76.570323,172.283227,-9418.149754
455.068532,-19.142581,229.710970,-9379.864592
455.069160,0.000000,248.853550,-9360.722011
455.069787,0.000000,325.423874,-9399.007173
455.070415,19.142581,287.138712,-9303.294269
455.071042,57.427742,191.425808,-9341.579430
455.071670,114.855485,153.140646,-9322.436850
455.072297,133.998066,114.855485,-9418.149754
455.072925,153.140646,133.998066,-9399.007173
455.073552,153.140646,133.998066,-9456.434915
455.074180,191.425808,114.855485,-9571.290400
455.074807,153.140646,76.570323,-9571.290400
455.075435,191.425808,38.285162,-9475.577496
455.076062,229.710970,76.570323,-9456.434915
455.076689,172.283227,76.570323,-9418.149754
455.077317,76.570323,114.855485,-9475.577496
455.077944,38.285162,114.855485,-9437.292334
455.078572,76.570323,210.568389,-9418.149754
455.079199,57.427742,172.283227,-9360.722011
455.079827,0.000000,153.140646,-9360.722011
455.080454,0.000000,210.568389,-9379.864592
455.081082,38.285162,153.140646,-9418.149754
455.081709,38.285162,114.855485,-9456.434915
455.082337,114.855485,95.712904,-9399.007173
455.082964,133.998066,153.140646,-9418.149754
455.083592,210.568389,95.712904,-9360.722011
455.084219,191.425808,76.570323,-9494.720077
455.084847,172.283227,76.570323,-9418.149754
455.085474,153.140646,133.998066,-9475.577496
455.086102,210.568389,133.998066,-9494.720077
455.086729,172.283227,153.140646,-9437.292334
455.087357,76.570323,229.710970,-9418.149754
455.087984,57.427742,191.425808,-9360.722011
455.088612,38.285162,172.283227,-9418.149754
455.089239,-19.142581,229.710970,-9379.864592
455.089867,0.000000,267.996131,-9418.149754
455.090494,19.142581,210.568389,-9418.149754
455.091122,95.712904,133.998066,-9360.722011
455.091749,95.712904,95.712904,-9456.434915
455.092377,153.140646,133.998066,-9494.720077
455.093004,172.283227,57.427742,-9494.720077
455.093632,191.425808,95.712904,-9494.720077
455.094259,248.853550,133.998066,-9494.720077
455.094887,172.283227,95.712904,-9494.720077
455.095514,172.283227,76.570323,-9437.292334
455.096141,153.140646,153.140646,-9456.434915
455.096769,76.570323,210.568389,-9418.149754
455.097396,38.285162,114.855485,-9456.434915
455.098024,0.000000,248.853550,-9360.722011
455.098651,38.285162,248.853550,-9341.579430
455.099279,0.000000,267.996131,-9360.722011
455.099906,0.000000,248.853550,-9360.722011
455.100534,19.142581,191.425808,-9379.864592
455.101161,95.712904,210.568389,-9418.149754
455.101789,133.998066,114.855485,-9418.149754
455.102416,153.140646,114.855485,-9494.720077
455.103044,267.996131,133.998066,-9494.720077
455.103671,248.853550,133.998066,-9437.292334
455.104299,191.425808,38.285162,-9533.005238
455.104926,172.283227,95.712904,-9513.862658
455.105554,172.283227,57.427742,-9475.577496
455.106181,172.283227,76.570323,-9456.434915
455.106809,95.712904,172.283227,-9418.149754
455.107436,19.142581,172.283227,-9456.434915
455.108064,0.000000,210.568389,-9379.864592
455.108691,-57.427742,248.853550,-9399.007173
455.109319,0.000000,191.425808,-9360.722011
455.109946,38.285162,210.568389,-9418.149754
455.110574,38.285162,210.568389,-9418.149754
455.111201,76.570323,229.710970,-9418.149754
455.111829,133.998066,114.855485,-9418.149754
455.112456,153.140646,114.855485,-9418.149754
455.113084,210.568389,133.998066,-9494.720077
455.113711,172.283227,76.570323,-9475.577496
455.114338,172.283227,76.570323,-9418.149754
455.114966,210.568389,95.712904,-9552.147819
455.115593,210.568389,133.998066,-9456.434915
455.116221,133.998066,153.140646,-9437.292334
455.116848,76.570323,153.140646,-9360.722011
455.117476,38.285162,114.855485,-9418.149754
455.118103,57.427742,191.425808,-9360.722011
455.118731,-38.285162,248.853550,-9399.007173
455.119358,0.000000,172.283227,-9360.722011
455.119986,38.285162,114.855485,-9418.149754
455.120613,38.285162,114.855485,-9418.149754
455.121241,95.712904,172.283227,-9437.292334
455.121868,133.998066,95.712904,-9456.434915
455.122496,133.998066,114.855485,-9418.149754
455.123123,172.283227,19.142581,-9533.005238
455.123751,172.283227,95.712904,-9494.720077
455.124378,191.425808,76.570323,-9437.292334
455.125006,191.425808,133.998066,-9437.292334
455.125633,133.998066,133.998066,-9399.007173
455.126261,76.570323,153.140646,-9418.149754
455.126888,95.712904,210.568389,-9360.722011
455.127516,57.427742,210.568389,-9360.722011
455.128143,0.000000,248.853550,-9360.722011
455.128771,-38.285162,306.281293,-9341.579430
455.129398,-19.142581,210.568389,-9360.722011
455.130026,57.427742,248.853550,-9360.722011
455.130653,76.570323,153.140646,-9456.434915
455.131281,95.712904,114.855485,-9418.149754
455.131908,114.855485,95.712904,-9456.434915
455.132535,191.425808,76.570323,-9418.149754
455.133163,191.425808,57.427742,-9475.577496
455.133790,210.568389,38.285162,-9456.434915
455.134418,133.998066,76.570323,-9571.290400
455.135045,133.998066,133.998066,-9513.862658
455.135673,133.998066,172.283227,-9475.577496
455.136300,76.570323,172.283227,-9418.149754
455.136928,76.570323,172.283227,-9418.149754
455.137555,38.285162,229.710970,-9418.149754
455.138183,-19.142581,267.996131,-9437.292334
455.138810,57.427742,248.853550,-9360.722011
455.139438,95.712904,191.425808,-9360.722011
455.140065,95.712904,191.425808,-9360.722011
455.140693,38.285162,229.710970,-9418.149754
455.141320,133.998066,114.855485,-9418.149754
455.141948,210.568389,172.283227,-9475.577496
455.142575,210.568389,133.998066,-9494.720077
455.143203,210.568389,133.998066,-9475.577496
455.143830,191.425808,57.427742,-9437.292334
455.144458,191.425808,76.570323,-9475.577496
455.145085,191.425808,76.570323,-9418.149754
455.145713,76.570323,114.855485,-9456.434915
455.146340,95.712904,248.853550,-9418.149754
455.146968,19.142581,191.425808,-9418.149754
455.147595,19.142581,229.710970,-9418.149754
455.148223,-19.142581,267.996131,-9399.007173
455.148850,0.000000,248.853550,-9360.722011
455.149478,38.285162,229.710970,-9418.149754
455.150105,76.570323,153.140646,-9418.149754
455.150732,57.427742,95.712904,-9456.434915
455.151360,76.570323,114.855485,-9475.577496
455.151987,172.283227,38.285162,-9475.577496
455.152615,248.853550,133.998066,-9494.720077
455.153242,191.425808,76.570323,-9456.434915
455.153870,191.425808,76.570323,-9418.149754
455.154497,172.283227,114.855485,-9399.007173
455.155125,114.855485,114.855485,-9379.864592
455.155752,57.427742,172.283227,-9418.149754
455.156380,133.998066,172.283227,-9456.434915
455.157007,76.570323,229.710970,-9418.149754
455.157635,19.142581,267.996131,-9379.864592
455.158262,-19.142581,248.853550,-9341.579430
455.158890,19.142581,210.568389,-9418.149754
455.159517,95.712904,114.855485,-9418.149754
455.160145,38.285162,114.855485,-9418.149754
455.160772,133.998066,114.855485,-9475.577496
455.161399,210.568389,133.998066,-9494.720077
455.162027,229.710970,76.570323,-9475.577496
455.162654,153.140646,76.570323,-9571.290400
455.163282,229.710970,76.570323,-9475.577496
455.163909,172.283227,57.427742,-9533.005238
455.164537,172.283227,76.570323,-9456.434915
455.165164,133.998066,133.998066,-9494.720077
455.165791,19.142581,172.283227,-9418.149754
455.166419,57.427742,191.425808,-9341.579430
455.167046,38.285162,248.853550,-9341.579430
455.167674,-38.285162,248.853550,-9399.007173
455.168301,19.142581,248.853550,-9322.436850
455.168929,19.142581,248.853550,-9379.864592
455.169556,57.427742,133.998066,-9360.722011
455.170183,114.855485,172.283227,-9360.722011
455.170811,133.998066,114.855485,-9418.149754
455.171438,191.425808,76.570323,-9475.577496
455.172066,191.425808,76.570323,-9437.292334
455.172693,191.425808,57.427742,-9456.434915
455.173321,191.425808,76.570323,-9533.005238
455.173948,172.283227,114.855485,-9494.720077
455.174575,153.140646,133.998066,-9456.434915
455.175203,38.285162,95.712904,-9399.007173
455.175830,0.000000,114.855485,-9437.292334
455.176458,57.427742,248.853550,-9360.722011
455.177085,38.285162,153.140646,-9437.292334
455.177713,-38.285162,191.425808,-9437.292334
455.178340,19.142581,114.855485,-9418.149754
455.178967,0.000000,210.568389,-9379.864592
455.179595,76.570323,114.855485,-9437.292334
455.180222,133.998066,114.855485,-9437.292334
455.180850,153.140646,133.998066,-9513.862658
455.181477,191.425808,76.570323,-9475.577496
455.182105,172.283227,76.570323,-9494.720077
455.182732,191.425808,76.570323,-9475.577496
455.183359,153.140646,133.998066,-9399.007173
455.183987,153.140646,133.998066,-9379.864592
455.184614,153.140646,133.998066,-9456.434915
455.185242,133.998066,133.998066,-9437.292334
455.185869,57.427742,133.998066,-9360.722011
455.186497,57.427742,191.425808,-9341.579430
455.187124,57.427742,133.998066,-9303.294269
455.187751,-19.142581,210.568389,-9379.864592
455.188379,19.142581,191.425808,-9456.434915
455.189006,57.427742,133.998066,-9360.722011
455.189634,95.712904,114.855485,-9475.577496
455.190261,114.855485,38.285162,-9456.434915
455.190889,133.998066,114.855485,-9494.720077
455.191516,76.570323,0.000000,-9437.292334
455.192143,153.140646,133.998066,-9456.434915
455.192771,172.283227,57.427742,-9456.434915
455.193398,114.855485,95.712904,-9513.862658
455.194026,172.283227,76.570323,-9437.292334
455.194653,153.140646,172.283227,-9379.864592
455.195281,57.427742,133.998066,-9360.722011
455.195908,38.285162,191.425808,-9418.149754
455.196535,57.427742,248.853550,-9341.579430
455.197163,0.000000,248.853550,-9360.722011
455.197790,0.000000,153.140646,-9379.864592
455.198418,57.427742,191.425808,-9284.151688
455.199045,57.427742,210.568389,-9360.722011
455.199673,76.570323,153.140646,-9437.292334
455.200300,172.283227,95.712904,-9456.434915
455.200927,172.283227,38.285162,-9456.434915
455.201555,210.568389,133.998066,-9456.434915
455.202182,210.568389,133.998066,-9475.577496
455.202810,229.710970,19.142581,-9533.005238
455.203437,210.568389,76.570323,-9475.577496
455.204065,114.855485,76.570323,-9533.005238
455.204692,76.570323,114.855485,-9456.434915
455.205320,95.712904,114.855485,-9399.007173
455.205947,0.000000,133.998066,-9360.722011
455.206574,-38.285162,248.853550,-9456.434915
455.207202,19.142581,248.853550,-9399.007173
455.207829,-19.142581,210.568389,-9379.864592
455.208457,38.285162,210.568389,-9418.149754
455.209084,38.285162,114.855485,-9418.149754
455.209712,76.570323,153.140646,-9418.149754
455.210339,133.998066,114.855485,-9418.149754
455.210966,210.568389,133.998066,-9399.007173
455.211594,229.710970,76.570323,-9437.292334
455.212221,153.140646,133.998066,-9494.720077
455.212849,153.140646,133.998066,-9437.292334
455.213476,210.568389,133.998066,-9437.292334
455.214104,210.568389,133.998066,-9456.434915
455.214731,76.570323,114.855485,-9418.149754
455.215358,57.427742,191.425808,-9360.722011
455.215986,19.142581,153.140646,-9360.722011
455.216613,-38.285162,191.425808,-9437.292334
455.217241,0.000000,172.283227,-9379.864592
455.217868,-19.142581,153.140646,-9379.864592
455.218496,76.570323,153.140646,-9437.292334
455.219123,76.570323,114.855485,-9456.434915
455.219750,133.998066,114.855485,-9475.577496
455.220378,153.140646,133.998066,-9494.720077
455.221005,229.710970,38.285162,-9418.149754
455.221633,191.425808,38.285162,-9456.434915
455.222260,172.283227,76.570323,-9475.577496
455.222888,287.138712,57.427742,-9437.292334
455.223515,191.425808,133.998066,-9399.007173
455.224142,95.712904,210.568389,-9360.722011
455.224770,114.855485,191.425808,-9360.722011
455.225397,95.712904,248.853550,-9303.294269
455.226025,57.427742,248.853550,-9341.579430
455.226652,19.142581,248.853550,-9322.436850
455.227280,57.427742,191.425808,-9360.722011
455.227907,38.285162,172.283227,-9418.149754
455.228534,76.570323,153.140646,-9418.149754
455.229162,38.285162,172.283227,-9418.149754
455.229789,153.140646,114.855485,-9475.577496
455.230417,172.283227,76.570323,-9475.577496
455.231044,210.568389,38.285162,-9552.147819
455.231672,191.425808,38.285162,-9475.577496
455.232299,229.710970,57.427742,-9475.577496
455.232926,210.568389,76.570323,-9456.434915
455.233554,133.998066,133.998066,-9437.292334
455.234181,76.570323,114.855485,-9418.149754
455.234809,95.712904,172.283227,-9418.149754
455.235436,-19.142581,210.568389,-9379.864592
455.236064,-19.142581,210.568389,-9322.436850
455.236691,0.000000,248.853550,-9360.722011
455.237318,-38.285162,210.568389,-9399.007173
455.237946,57.427742,248.853550,-9360.722011
455.238573,38.285162,210.568389,-9418.149754
455.239201,95.712904,172.283227,-9360.722011
455.239828,153.140646,133.998066,-9399.007173
455.240456,229.710970,133.998066,-9456.434915
455.241083,191.425808,76.570323,-9533.005238
455.241710,191.425808,76.570323,-9475.577496
455.242338,229.710970,76.570323,-9533.005238
455.242965,191.425808,76.570323,-9475.577496
455.243593,133.998066,114.855485,-9418.149754
455.244220,38.285162,114.855485,-9475.577496
455.244848,76.570323,172.283227,-9418.149754
455.245475,38.285162,172.283227,-9418.149754
455.246102,-38.285162,210.568389,-9399.007173
455.246730,-19.142581,229.710970,-9341.579430
455.247357,19.142581,153.140646,-9399.007173
455.247985,57.427742,133.998066,-9360.722011
455.248612,38.285162,76.570323,-9379.864592
455.249240,114.855485,76.570323,-9456.434915
455.249867,191.425808,76.570323,-9456.434915
455.250494,210.568389,76.570323,-9418.149754
455.251122,191.425808,76.570323,-9456.434915
455.251749,191.425808,133.998066,-9456.434915
455.252377,191.425808,76.570323,-9418.149754
455.253004,153.140646,133.998066,-9456.434915
455.253632,172.283227,172.283227,-9379.864592
455.254259,57.427742,191.425808,-9360.722011
455.254886,76.570323,229.710970,-9418.149754
455.255514,19.142581,267.996131,-9379.864592
455.256141,-38.285162,248.853550,-9379.864592
455.256769,-38.285162,153.140646,-9399.007173
455.257396,76.570323,172.283227,-9418.149754
455.258024,19.142581,153.140646,-9494.720077
455.258651,57.427742,172.283227,-9533.005238
455.259278,133.998066,133.998066,-9513.862658
455.259906,153.140646,95.712904,-9552.147819
455.260533,191.425808,76.570323,-9533.005238
455.261161,172.283227,76.570323,-9475.577496
455.261788,210.568389,0.000000,-9533.005238
455.262416,210.568389,76.570323,-9456.434915
455.263043,133.998066,133.998066,-9399.007173
455.263671,38.285162,210.568389,-9418.149754
455.264298,19.142581,153.140646,-9418.149754
455.264925,0.000000,287.138712,-9379.864592
455.265553,0.000000,248.853550,-9322.436850
455.266180,95.712904,191.425808,-9284.151688
455.266808,95.712904,210.568389,-9360.722011
455.267435,95.712904,248.853550,-9341.579430
455.268063,38.285162,153.140646,-9418.149754
455.268690,76.570323,114.855485,-9418.149754
455.269318,172.283227,133.998066,-9418.149754
455.269945,210.568389,133.998066,-9399.007173
455.270572,210.568389,133.998066,-9494.720077
455.271200,191.425808,95.712904,-9360.722011
455.271827,172.283227,76.570323,-9437.292334
455.272455,191.425808,133.998066,-9456.434915
455.273082,133.998066,114.855485,-9475.577496
455.273710,76.570323,172.283227,-9418.149754
455.274337,133.998066,172.283227,-9437.292334
455.274965,76.570323,153.140646,-9418.149754
455.275592,57.427742,172.283227,-9360.722011
455.276219,38.285162,229.710970,-9437.292334
455.276847,57.427742,114.855485,-9418.149754
455.277474,95.712904,114.855485,-9418.149754
455.278102,38.285162,114.855485,-9456.434915
455.278729,153.140646,133.998066,-9399.007173
455.279357,153.140646,133.998066,-9494.720077
455.279984,153.140646,133.998066,-9399.007173
455.280612,210.568389,133.998066,-9437.292334
455.281239,114.855485,76.570323,-9437.292334
455.281866,114.855485,95.712904,-9399.007173
455.282494,248.853550,153.140646,-9456.434915
455.283121,133.998066,172.283227,-9399.007173
455.283749,38.285162,191.425808,-9418.149754
455.284376,95.712904,153.140646,-9360.722011
455.285004,0.000000,267.996131,-9360.722011
455.285631,19.142581,248.853550,-9399.007173
455.286259,0.000000,153.140646,-9379.864592
455.286886,57.427742,153.140646,-9360.722011
455.287513,38.285162,153.140646,-9437.292334
455.288141,76.570323,114.855485,-9533.005238
455.288768,172.283227,76.570323,-9494.720077
455.289396,172.283227,95.712904,-9494.720077
455.290023,191.425808,19.142581,-9533.005238
455.290651,153.140646,133.998066,-9437.292334
455.291278,172.283227,76.570323,-9533.005238
455.291905,191.425808,76.570323,-9456.434915
455.292533,133.998066,172.283227,-9418.149754
455.293160,95.712904,133.998066,-9360.722011
455.293788,0.000000,191.425808,-9341.579430
455.294415,76.570323,210.568389,-9360.722011
455.295043,19.142581,229.710970,-9418.149754
455.295670,19.142581,267.996131,-9322.436850
455.296298,57.427742,191.425808,-9360.722011
455.296925,57.427742,248.853550,-9341.579430
455.297552,76.570323,172.283227,-9456.434915
455.298180,153.140646,114.855485,-9418.149754
455.298807,191.425808,76.570323,-9418.149754
455.299435,210.568389,133.998066,-9513.862658
455.300062,172.283227,57.427742,-9533.005238
455.300690,114.855485,95.712904,-9513.862658
455.301317,133.998066,76.570323,-9513.862658
455.301945,95.712904,133.998066,-9360.722011
455.302572,95.712904,114.855485,-9456.434915
455.303199,38.285162,172.283227,-9418.149754
455.303827,38.285162,210.568389,-9418.149754
455.304454,0.000000,153.140646,-9322.436850
455.305082,-19.142581,229.710970,-9379.864592
455.305709,57.427742,248.853550,-9360.722011
455.306337,38.285162,229.710970,-9418.149754
455.306964,133.998066,153.140646,-9418.149754
455.307592,133.998066,114.855485,-9418.149754
455.308219,133.998066,172.283227,-9456.434915
455.308846,133.998066,114.855485,-9456.434915
455.309474,172.283227,76.570323,-9418.149754
455.310101,248.853550,76.570323,-9418.149754
455.310729,210.568389,76.570323,-9456.434915
455.311356,229.710970,76.570323,-9456.434915
455.311984,133.998066,153.140646,-9456.434915
455.312611,57.427742,114.855485,-9456.434915
455.313239,38.285162,172.283227,-9418.149754
455.313866,95.712904,153.140646,-9360.722011
455.314493,19.142581,229.710970,-9418.149754
455.315121,19.142581,210.568389,-9418.149754
455.315748,38.285162,153.140646,-9475.577496
455.316376,38.285162,114.855485,-9418.149754
455.317003,76.570323,114.855485,-9437.292334
455.317631,76.570323,95.712904,-9437.292334
455.318258,114.855485,95.712904,-9399.007173
455.318886,191.425808,76.570323,-9533.005238
455.319513,172.283227,76.570323,-9475.577496
455.320140,229.710970,76.570323,-9533.005238
455.320768,248.853550,133.998066,-9513.862658
455.321395,210.568389,133.998066,-9456.434915
455.322023,153.140646,153.140646,-9399.007173
455.322650,95.712904,210.568389,-9360.722011
455.323278,38.285162,191.425808,-9360.722011
455.323905,57.427742,191.425808,-9360.722011
455.324533,57.427742,191.425808,-9322.436850
455.325160,-38.285162,287.138712,-9360.722011
455.325787,-38.285162,191.425808,-9399.007173
455.326415,133.998066,229.710970,-9418.149754
455.327042,133.998066,153.140646,-9456.434915
455.327670,114.855485,95.712904,-9399.007173
455.328297,172.283227,76.570323,-9418.149754
455.328925,114.855485,76.570323,-9475.577496
455.329552,133.998066,76.570323,-9571.290400
455.330179,172.283227,76.570323,-9437.292334
455.330807,172.283227,76.570323,-9475.577496
455.331434,210.568389,76.570323,-9437.292334
455.332062,133.998066,114.855485,-9437.292334
455.332689,38.285162,172.283227,-9456.434915
455.333317,76.570323,114.855485,-9418.149754
455.333944,57.427742,248.853550,-9322.436850
455.334572,0.000000,267.996131,-9360.722011
455.335199,-19.142581,267.996131,-9418.149754
455.335826,19.142581,191.425808,-9399.007173
455.336454,76.570323,210.568389,-9437.292334
455.337081,19.142581,133.998066,-9456.434915
455.337709,172.283227,76.570323,-9418.149754
455.338336,210.568389,133.998066,-9456.434915
455.338964,191.425808,133.998066,-9494.720077
455.339591,191.425808,76.570323,-9456.434915
455.340219,133.998066,133.998066,-9456.434915
455.340846,248.853550,133.998066,-9437.292334
455.341473,172.283227,114.855485,-9513.862658
455.342101,133.998066,114.855485,-9456.434915
455.342728,76.570323,210.568389,-9360.722011
455.343356,19.142581,153.140646,-9360.722011
455.343983,19.142581,229.710970,-9418.149754
455.344611,19.142581,287.138712,-9418.149754
455.345238,19.142581,210.568389,-9437.292334
455.345866,19.142581,191.425808,-9399.007173
455.346493,38.285162,114.855485,-9418.149754
455.347120,133.998066,114.855485,-9437.292334
455.347748,114.855485,95.712904,-9494.720077
455.348375,191.425808,57.427742,-9475.577496
455.349003,191.425808,76.570323,-9475.577496
455.349630,191.425808,76.570323,-9437.292334
455.350258,172.283227,95.712904,-9513.862658
455.350885,153.140646,153.140646,-9399.007173
455.351513,133.998066,172.283227,-9418.149754
455.352140,95.712904,191.425808,-9360.722011
455.352767,76.570323,267.996131,-9303.294269
455.353395,38.285162,133.998066,-9360.722011
455.354022,0.000000,153.140646,-9379.864592
455.354650,-19.142581,267.996131,-9341.579430
455.355277,19.142581,153.140646,-9418.149754
455.355905,19.142581,114.855485,-9437.292334
455.356532,0.000000,95.712904,-9399.007173
455.357160,95.712904,95.712904,-9475.577496
455.357787,153.140646,95.712904,-9533.005238
455.358414,191.425808,57.427742,-9533.005238
455.359042,153.140646,38.285162,-9552.147819
455.359669,153.140646,133.998066,-9513.862658
455.360297,114.855485,95.712904,-9513.862658
455.360924,153.140646,133.998066,-9399.007173
455.361551,76.570323,210.568389,-9418.149754
455.362179,76.570323,172.283227,-9456.434915
455.362806,38.285162,191.425808,-9360.722011
455.363433,0.000000,248.853550,-9360.722011
455.364061,-19.142581,210.568389,-9322.436850
455.364688,57.427742,210.568389,-9303.294269
455.365315,57.427742,191.425808,-9322.436850
455.365943,114.855485,133.998066,-9360.722011
455.366570,133.998066,38.285162,-9379.864592
455.367197,153.140646,133.998066,-9399.007173
455.367825,210.568389,172.283227,-9399.007173
455.368452,191.425808,76.570323,-9494.720077
455.369079,248.853550,133.998066,-9494.720077
455.369707,172.283227,76.570323,-9437.292334
455.370334,153.140646,133.998066,-9399.007173
455.370961,133.998066,114.855485,-9475.577496
455.371589,76.570323,114.855485,-9437.292334
455.372216,0.000000,95.712904,-9379.864592
455.372843,0.000000,133.998066,-9360.722011
455.373471,19.142581,114.855485,-9418.149754
455.374098,0.000000,248.853550,-9360.722011
455.374725,-57.427742,172.283227,-9399.007173
455.375353,38.285162,210.568389,-9418.149754
455.375980,38.285162,210.568389,-9418.149754
455.376607,114.855485,172.283227,-9360.722011
455.377235,172.283227,153.140646,-9494.720077
455.377862,229.710970,76.570323,-9437.292334
455.378489,172.283227,76.570323,-9533.005238
455.379117,210.568389,76.570323,-9513.862658
455.379744,248.853550,133.998066,-9494.720077
455.380371,248.853550,153.140646,-9399.007173
455.380999,153.140646,172.283227,-9437.292334
455.381626,57.427742,153.140646,-9341.579430
455.382253,57.427742,229.710970,-9399.007173
455.382881,57.427742,172.283227,-9360.722011
455.383508,19.142581,267.996131,-9322.436850
455.384135,57.427742,191.425808,-9360.722011
455.384763,76.570323,133.998066,-9360.722011
455.385390,95.712904,153.140646,-9418.149754
455.386017,95.712904,95.712904,-9399.007173
455.386645,95.712904,114.855485,-9437.292334
455.387272,133.998066,114.855485,-9533.005238
455.387899,229.710970,76.570323,-9456.434915
455.388527,210.568389,95.712904,-9533.005238
455.389154,172.283227,76.570323,-9475.577496
455.389781,153.140646,133.998066,-9399.007173
455.390409,133.998066,133.998066,-9399.007173
455.391036,133.998066,229.710970,-9418.149754
455.391663,76.570323,248.853550,-9360.722011
455.392291,95.712904,191.425808,-9360.722011
455.392918,0.000000,248.853550,-9360.722011
455.393545,19.142581,153.140646,-9418.149754
455.394173,-19.142581,248.853550,-9303.294269
455.394800,0.000000,191.425808,-9341.579430
455.395427,38.285162,153.140646,-9418.149754
455.396055,133.998066,153.140646,-9418.149754
455.396682,114.855485,95.712904,-9475.577496
455.397309,172.283227,76.570323,-9437.292334
455.397937,114.855485,38.285162,-9475.577496
455.398564,191.425808,57.427742,-9437.292334
455.399191,172.283227,57.427742,-9533.005238
455.399819,114.855485,57.427742,-9513.862658
455.400446,133.998066,114.855485,-9456.434915
455.401073,57.427742,114.855485,-9399.007173
455.401701,76.570323,172.283227,-9418.149754
455.402328,57.427742,153.140646,-9360.722011
455.402955,19.142581,210.568389,-9418.149754
455.403583,-38.285162,229.710970,-9322.436850
455.404210,76.570323,248.853550,-9360.722011
455.404837,57.427742,172.283227,-9360.722011
455.405465,133.998066,153.140646,-9418.149754
455.406092,133.998066,114.855485,-9418.149754
455.406719,172.283227,95.712904,-9456.434915
455.407347,210.568389,133.998066,-9399.007173
455.407974,191.425808,76.570323,-9418.149754
455.408601,210.568389,133.998066,-9456.434915
455.409229,114.855485,95.712904,-9475.577496
455.409856,153.140646,133.998066,-9456.434915
455.410483,76.570323,114.855485,-9456.434915
455.411111,38.285162,172.283227,-9418.149754
455.411738,95.712904,172.283227,-9360.722011
455.412365,57.427742,248.853550,-9360.722011
455.412993,19.142581,133.998066,-9399.007173
455.413620,-19.142581,172.283227,-9399.007173
455.414247,38.285162,172.283227,-9437.292334
455.414875,57.427742,95.712904,-9399.007173
455.415502,95.712904,95.712904,-9399.007173
455.416129,114.855485,38.285162,-9456.434915
455.416757,191.425808,76.570323,-9456.434915
455.417384,229.710970,76.570323,-9533.005238
455.418011,210.568389,133.998066,-9437.292334
455.418639,153.140646,95.712904,-9418.149754
455.419266,172.283227,76.570323,-9418.149754
455.419893,153.140646,172.283227,-9399.007173
455.420521,95.712904,133.998066,-9360.722011
455.421148,95.712904,153.140646,-9303.294269
455.421775,76.570323,229.710970,-9418.149754
455.422403,57.427742,248.853550,-9341.579430
455.423030,38.285162,248.853550,-9322.436850
455.423657,-19.142581,229.710970,-9399.007173
455.424285,57.427742,229.710970,-9399.007173
455.424912,133.998066,153.140646,-9399.007173
455.425539,114.855485,95.712904,-9513.862658
455.426167,114.855485,95.712904,-9513.862658
455.426794,229.710970,76.570323,-9475.577496
455.427421,153.140646,133.998066,-9513.862658
455.428049,172.283227,76.570323,-9533.005238
455.428676,210.568389,95.712904,-9533.005238
455.429303,133.998066,114.855485,-9456.434915
455.429931,76.570323,114.855485,-9418.149754
455.430558,57.427742,114.855485,-9437.292334
455.431185,95.712904,153.140646,-9360.722011
455.431813,19.142581,229.710970,-9418.149754
455.432440,-19.142581,229.710970,-9379.864592
455.433067,38.285162,267.996131,-9322.436850
455.433695,57.427742,248.853550,-9360.722011
455.434322,95.712904,248.853550,-9360.722011
455.434949,38.285162,114.855485,-9418.149754
455.435577,153.140646,172.283227,-9399.007173
455.436204,210.568389,133.998066,-9437.292334
455.436831,229.710970,76.570323,-9437.292334
455.437459,191.425808,76.570323,-9475.577496
455.438086,210.568389,133.998066,-9475.577496
455.438713,172.283227,76.570323,-9418.149754
455.439341,114.855485,172.283227,-9399.007173
455.439968,76.570323,153.140646,-9456.434915
455.440595,19.142581,172.283227,-9456.434915
455.441223,38.285162,172.283227,-9418.149754
455.441850,0.000000,191.425808,-9322.436850
455.442477,-38.285162,191.425808,-9399.007173
455.443105,0.000000,133.998066,-9360.722011
455.443732,38.285162,172.283227,-9418.149754
455.444359,76.570323,114.855485,-9418.149754
455.444987,76.570323,114.855485,-9418.149754
455.445614,133.998066,114.855485,-9437.292334
455.446241,210.568389,153.140646,-9494.720077
455.446869,191.425808,153.140646,-9456.434915
455.447496,210.568389,133.998066,-9437.292334
455.448124,210.568389,76.570323,-9437.292334
455.448751,248.853550,133.998066,-9399.007173
455.449378,133.998066,114.855485,-9418.149754
455.450006,95.712904,153.140646,-9360.722011
455.450633,95.712904,229.710970,-9418.149754
455.451260,57.427742,248.853550,-9341.579430
455.451888,-57.427742,229.710970,-9360.722011
455.452515,19.142581,229.710970,-9360.722011
455.453142,95.712904,153.140646,-9418.149754
455.453770,172.283227,172.283227,-9360.722011
455.454397,76.570323,172.283227,-9437.292334
455.455024,76.570323,114.855485,-9418.149754
455.455652,153.140646,114.855485,-9533.005238
455.456279,172.283227,76.570323,-9475.577496
455.456906,153.140646,114.855485,-9475.577496
455.457534,229.710970,76.570323,-9533.005238
455.458161,153.140646,95.712904,-9552.147819
455.458788,210.568389,76.570323,-9533.005238
455.459416,210.568389,133.998066,-9494.720077
455.460043,76.570323,172.283227,-9456.434915
455.460670,57.427742,287.138712,-9379.864592
455.461298,0.000000,248.853550,-9360.722011
455.461925,57.427742,210.568389,-9360.722011
455.462552,38.285162,248.853550,-9360.722011
455.463179,19.142581,267.996131,-9379.864592
455.463807,57.427742,248.853550,-9360.722011
455.464434,95.712904,153.140646,-9418.149754
455.465061,114.855485,133.998066,-9360.722011
455.465689,210.568389,172.283227,-9437.292334
455.466316,287.138712,76.570323,-9475.577496
455.466943,248.853550,133.998066,-9399.007173
455.467571,191.425808,76.570323,-9494.720077
455.468198,153.140646,95.712904,-9533.005238
455.468825,133.998066,114.855485,-9475.577496
455.469453,76.570323,114.855485,-9437.292334
455.470080,95.712904,153.140646,-9360.722011
455.470707,38.285162,172.283227,-9418.149754
455.471335,19.142581,172.283227,-9418.149754
455.471962,-76.570323,153.140646,-9322.436850
455.472589,-19.142581,114.855485,-9379.864592
455.473217,57.427742,133.998066,-9360.722011
455.473844,38.285162,114.855485,-9418.149754
455.474471,95.712904,114.855485,-9418.149754
455.475099,133.998066,114.855485,-9418.149754
455.475726,248.853550,133.998066,-9456.434915
455.476353,153.140646,133.998066,-9494.720077
455.476981,248.853550,133.998066,-9494.720077
455.477608,172.283227,76.570323,-9475.577496
455.478235,210.568389,133.998066,-9399.007173
455.478863,114.855485,172.283227,-9360.722011
455.479490,114.855485,153.140646,-9341.579430
455.480117,133.998066,153.140646,-9418.149754
455.480745,57.427742,153.140646,-9341.579430
455.481372,-19.142581,229.710970,-9379.864592
455.481999,-19.142581,210.568389,-9379.864592
455.482627,38.285162,114.855485,-9418.149754
455.483254,133.998066,114.855485,-9418.149754
455.483881,76.570323,153.140646,-9437.292334
455.484509,76.570323,114.855485,-9475.577496
455.485136,133.998066,76.570323,-9494.720077
455.485763,172.283227,76.570323,-9494.720077
455.486391,229.710970,76.570323,-9475.577496
455.487018,210.568389,76.570323,-9475.577496
455.487645,172.283227,95.712904,-9437.292334
455.488273,153.140646,153.140646,-9399.007173
455.488900,95.712904,153.140646,-9360.722011
455.489527,76.570323,229.710970,-9418.149754
455.490155,0.000000,210.568389,-9379.864592
455.490782,38.285162,210.568389,-9322.436850
455.491409,38.285162,229.710970,-9360.722011
455.492036,0.000000,153.140646,-9379.864592
455.492664,95.712904,191.425808,-9303.294269
455.493291,57.427742,191.425808,-9341.579430
455.493918,95.712904,114.855485,-9418.149754
455.494546,172.283227,76.570323,-9475.577496
455.495173,248.853550,57.427742,-9475.577496
455.495800,191.425808,57.427742,-9552.147819
455.496428,248.853550,76.570323,-9513.862658
455.497055,114.855485,95.712904,-9475.577496
455.497682,210.568389,133.998066,-9494.720077
455.498310,114.855485,95.712904,-9437.292334
455.498937,57.427742,172.283227,-9418.149754
455.499564,57.427742,114.855485,-9418.149754
455.500192,0.000000,191.425808,-9360.722011
455.500819,-38.285162,172.283227,-9399.007173
455.501446,-19.142581,229.710970,-9322.436850
455.502074,19.142581,210.568389,-9418.149754
455.502701,38.285162,114.855485,-9418.149754
455.503328,76.570323,114.855485,-9418.149754
455.503956,133.998066,133.998066,-9456.434915
455.504583,153.140646,114.855485,-9418.149754
455.505210,191.425808,76.570323,-9437.292334
455.505838,191.425808,76.570323,-9418.149754
455.506465,229.710970,114.855485,-9379.864592
455.507092,153.140646,133.998066,-9456.434915
455.507720,153.140646,172.283227,-9399.007173
455.508347,133.998066,191.425808,-9399.007173
455.508974,76.570323,172.283227,-9418.149754
455.509602,38.285162,191.425808,-9418.149754
455.510229,57.427742,267.996131,-9379.864592
455.510856,-38.285162,248.853550,-9399.007173
455.511484,-19.142581,210.568389,-9379.864592
455.512111,38.285162,114.855485,-9418.149754
455.512738,38.285162,114.855485,-9494.720077
455.513366,57.427742,95.712904,-9513.862658
455.513993,95.712904,114.855485,-9456.434915
455.514620,229.710970,133.998066,-9513.862658
455.515248,229.710970,76.570323,-9533.005238
455.515875,191.425808,76.570323,-9456.434915
455.516502,172.283227,76.570323,-9494.720077
455.517130,210.568389,133.998066,-9379.864592
455.517757,76.570323,114.855485,-9418.149754
455.518384,95.712904,133.998066,-9360.722011
455.519011,19.142581,191.425808,-9418.149754
455.519639,38.285162,210.568389,-9418.149754
455.520266,19.142581,153.140646,-9418.149754
455.520893,38.285162,210.568389,-9341.579430
455.521521,19.142581,191.425808,-9379.864592
455.522148,76.570323,210.568389,-9418.149754
455.522775,57.427742,210.568389,-9418.149754
455.523403,95.712904,95.712904,-9475.577496
455.524030,133.998066,114.855485,-9533.005238
455.524657,248.853550,57.427742,-9475.577496
455.525285,191.425808,76.570323,-9475.577496
455.525912,172.283227,38.285162,-9475.577496
455.526539,248.853550,76.570323,-9418.149754
455.527167,172.283227,76.570323,-9533.005238
455.527794,133.998066,114.855485,-9475.577496
455.528421,38.285162,114.855485,-9456.434915
455.529049,19.142581,210.568389,-9418.149754
455.529676,0.000000,172.283227,-9360.722011
455.530303,-57.427742,210.568389,-9322.436850
455.530931,-19.142581,229.710970,-9379.864592
455.531558,38.285162,153.140646,-9418.149754
455.532185,57.427742,248.853550,-9360.722011
455.532813,95.712904,153.140646,-9360.722011
455.533440,76.570323,95.712904,-9399.007173
455.534067,153.140646,133.998066,-9399.007173
455.534695,287.138712,76.570323,-9475.577496
455.535322,210.568389,38.285162,-9475.577496
455.535949,191.425808,76.570323,-9475.577496
455.536577,172.283227,76.570323,-9437.292334
455.537204,153.140646,133.998066,-9399.007173
455.537831,133.998066,153.140646,-9399.007173
455.538459,38.285162,153.140646,-9418.149754
455.539086,19.142581,172.283227,-9418.149754
455.539713,19.142581,210.568389,-9418.149754
455.540341,19.142581,229.710970,-9360.722011
455.540968,38.285162,210.568389,-9418.149754
455.541595,19.142581,210.568389,-9360.722011
455.542223,76.570323,114.855485,-9437.292334
455.542850,133.998066,114.855485,-9456.434915
455.543477,172.283227,76.570323,-9437.292334
455.544105,172.283227,95.712904,-9456.434915
455.544732,172.283227,76.570323,-9437.292334
455.545359,229.710970,76.570323,-9475.577496
455.545987,210.568389,38.285162,-9533.005238
455.546614,210.568389,133.998066,-9399.007173
455.547241,133.998066,153.140646,-9418.149754
455.547868,57.427742,114.855485,-9399.007173
455.548496,0.000000,287.138712,-9379.864592
455.549123,95.712904,191.425808,-9303.294269
455.549750,0.000000,248.853550,-9360.722011
455.550378,-76.570323,229.710970,-9379.864592
455.551005,0.000000,191.425808,-9379.864592
455.551632,95.712904,210.568389,-9418.149754
455.552260,133.998066,114.855485,-9437.292334
455.552887,95.712904,95.712904,-9456.434915
455.553514,191.425808,76.570323,-9533.005238
455.554142,210.568389,76.570323,-9533.005238
455.554769,229.710970,38.285162,-9533.005238
455.555396,191.425808,76.570323,-9533.005238
455.556024,133.998066,76.570323,-9513.862658
455.556651,153.140646,133.998066,-9399.007173
455.557278,95.712904,95.712904,-9399.007173
455.557906,76.570323,172.283227,-9418.149754
455.558533,38.285162,153.140646,-9360.722011
455.559160,-19.142581,229.710970,-9379.864592
455.559788,-19.142581,267.996131,-9418.149754
455.560415,19.142581,248.853550,-9379.864592
455.561042,38.285162,210.568389,-9360.722011
455.561670,95.712904,191.425808,-9341.579430
455.562297,76.570323,76.570323,-9341.579430
455.562924,133.998066,114.855485,-9418.149754
455.563552,153.140646,133.998066,-9513.862658
455.564179,210.568389,57.427742,-9418.149754
455.564806,287.138712,76.570323,-9456.434915
455.565434,229.710970,38.285162,-9437.292334
455.566061,210.568389,38.285162,-9437.292334
455.566688,76.570323,114.855485,-9418.149754
455.567316,0.000000,76.570323,-9437.292334
455.567943,38.285162,229.710970,-9418.149754
455.568570,57.427742,191.425808,-9418.149754
455.569198,-38.285162,229.710970,-9437.292334
455.569825,19.142581,229.710970,-9418.149754
455.570452,-19.142581,229.710970,-9379.864592
455.571080,38.285162,229.710970,-9360.722011
455.571707,0.000000,95.712904,-9399.007173
455.572334,133.998066,114.855485,-9418.149754
455.572962,172.283227,57.427742,-9437.292334
455.573589,172.283227,95.712904,-9494.720077
455.574216,191.425808,76.570323,-9437.292334
455.574844,191.425808,76.570323,-9437.292334
455.575471,191.425808,76.570323,-9475.577496
455.576098,210.568389,210.568389,-9399.007173
455.576726,153.140646,153.140646,-9399.007173
455.577353,76.570323,114.855485,-9418.149754
455.577980,57.427742,229.710970,-9418.149754
455.578608,19.142581,229.710970,-9418.149754
455.579235,-38.285162,191.425808,-9399.007173
455.579862,38.285162,210.568389,-9418.149754
455.580490,19.142581,210.568389,-9418.149754
455.581117,95.712904,133.998066,-9360.722011
455.581744,38.285162,114.855485,-9475.577496
455.582372,95.712904,133.998066,-9533.005238
455.582999,172.283227,95.712904,-9513.862658
455.583626,172.283227,76.570323,-9475.577496
455.584254,172.283227,0.000000,-9437.292334
455.584881,172.283227,19.142581,-9475.577496
455.585508,229.710970,76.570323,-9437.292334
455.586136,153.140646,153.140646,-9399.007173
455.586763,95.712904,172.283227,-9360.722011
455.587390,38.285162,114.855485,-9418.149754
455.588018,57.427742,191.425808,-9341.579430
455.588645,57.427742,248.853550,-9360.722011
455.589272,-19.142581,229.710970,-9322.436850
455.589900,-19.142581,153.140646,-9379.864592
455.590527,0.000000,287.138712,-9379.864592
455.591155,95.712904,172.283227,-9360.722011
455.591782,76.570323,172.283227,-9437.292334
455.592409,153.140646,133.998066,-9399.007173
455.593037,191.425808,76.570323,-9456.434915
455.593664,210.568389,76.570323,-9475.577496
455.594291,229.710970,76.570323,-9437.292334
455.594919,172.283227,38.285162,-9513.862658
455.595546,172.283227,76.570323,-9456.434915
455.596173,153.140646,133.998066,-9437.292334
455.596801,76.570323,114.855485,-9418.149754
455.597428,57.427742,95.712904,-9399.007173
455.598055,-38.285162,153.140646,-9399.007173
455.598683,-38.285162,191.425808,-9399.007173
455.599310,-38.285162,229.710970,-9360.722011
455.599937,-38.285162,210.568389,-9418.149754
455.600565,38.285162,114.855485,-9418.149754
455.601192,133.998066,114.855485,-9456.434915
455.601819,114.855485,153.140646,-9437.292334
455.602447,210.568389,133.998066,-9475.577496
455.603074,153.140646,133.998066,-9399.007173
455.603701,172.283227,76.570323,-9475.577496
455.604329,229.710970,76.570323,-9533.005238
455.604956,172.283227,76.570323,-9475.577496
455.605583,172.283227,114.855485,-9399.007173
455.606211,133.998066,114.855485,-9418.149754
455.606838,114.855485,76.570323,-9418.149754
455.607465,57.427742,191.425808,-9418.149754
455.608093,-38.285162,210.568389,-9418.149754
455.608720,19.142581,210.568389,-9360.722011
455.609347,-38.285162,114.855485,-9418.149754
455.609975,-57.427742,133.998066,-9379.864592
455.610602,0.000000,133.998066,-9360.722011
455.611229,57.427742,38.285162,-9513.862658
455.611857,76.570323,38.285162,-9399.007173
455.612484,172.283227,57.427742,-9533.005238
455.613111,229.710970,38.285162,-9475.577496
455.613739,229.710970,76.570323,-9456.434915
455.614366,153.140646,133.998066,-9475.577496
455.614993,172.283227,76.570323,-9456.434915
455.615621,153.140646,133.998066,-9399.007173
455.616248,57.427742,172.283227,-9418.149754
455.616875,0.000000,191.425808,-9360.722011
455.617503,76.570323,210.568389,-9360.722011
455.618130,0.000000,191.425808,-9341.579430
455.618757,-19.142581,210.568389,-9322.436850
455.619385,-38.285162,153.140646,-9399.007173
455.620012,38.285162,172.283227,-9418.149754
455.620639,38.285162,133.998066,-9399.007173
455.621267,38.285162,114.855485,-9437.292334
455.621894,229.710970,172.283227,-9475.577496
455.622521,191.425808,76.570323,-9475.577496
455.623149,172.283227,76.570323,-9533.005238
455.623776,229.710970,57.427742,-9456.434915
455.624403,172.283227,38.285162,-9475.577496
455.625031,95.712904,95.712904,-9494.720077
455.625658,133.998066,114.855485,-9456.434915
455.626285,95.712904,95.712904,-9399.007173
455.626913,19.142581,172.283227,-9456.434915
455.627540,0.000000,133.998066,-9303.294269
455.628167,19.142581,229.710970,-9418.149754
455.628795,19.142581,210.568389,-9360.722011
455.629422,-57.427742,229.710970,-9379.864592
455.630049,57.427742,153.140646,-9360.722011
455.630677,38.285162,153.140646,-9418.149754
455.631304,153.140646,114.855485,-9418.149754
455.631931,210.568389,172.283227,-9399.007173
455.632559,287.138712,76.570323,-9418.149754
455.633186,229.710970,76.570323,-9475.577496
455.633813,191.425808,57.427742,-9437.292334
455.634441,210.568389,133.998066,-9437.292334
455.635068,153.140646,133.998066,-9399.007173
455.635695,38.285162,153.140646,-9437.292334
455.636323,95.712904,95.712904,-9399.007173
455.636950,19.142581,133.998066,-9379.864592
455.637577,19.142581,153.140646,-9418.149754
455.638205,0.000000,210.568389,-9341.579430
455.638832,0.000000,191.425808,-9360.722011
455.639459,-38.285162,153.140646,-9399.007173
455.640087,19.142581,114.855485,-9437.292334
455.640714,76.570323,114.855485,-9418.149754
455.641341,114.855485,95.712904,-9399.007173
455.641969,191.425808,76.570323,-9456.434915
455.642596,229.710970,76.570323,-9475.577496
455.643223,191.425808,133.998066,-9437.292334
455.643851,210.568389,133.998066,-9494.720077
455.644478,191.425808,76.570323,-9418.149754
455.645105,114.855485,153.140646,-9418.149754
455.645733,95.712904,153.140646,-9360.722011
455.646360,57.427742,191.425808,-9341.579430
455.646987,95.712904,191.425808,-9360.722011
455.647615,0.000000,133.998066,-9322.436850
455.648242,0.000000,191.425808,-9360.722011
455.648869,38.285162,210.568389,-9418.149754
455.649497,0.000000,114.855485,-9399.007173
455.650124,57.427742,95.712904,-9399.007173
455.650751,95.712904,95.712904,-9513.862658
455.651379,133.998066,114.855485,-9494.720077
455.652006,229.710970,76.570323,-9437.292334
455.652633,248.853550,95.712904,-9475.577496
455.653261,229.710970,57.427742,-9437.292334
455.653888,191.425808,76.570323,-9456.434915
455.654516,191.425808,114.855485,-9379.864592
455.655143,57.427742,95.712904,-9399.007173
455.655770,114.855485,95.712904,-9399.007173
455.656398,76.570323,229.710970,-9456.434915
455.657025,19.142581,229.710970,-9418.149754
455.657652,38.285162,229.710970,-9360.722011
455.658280,38.285162,248.853550,-9341.579430
455.658907,38.285162,210.568389,-9341.579430
455.659534,57.427742,229.710970,-9418.149754
455.660162,76.570323,172.283227,-9418.149754
455.660789,38.285162,114.855485,-9418.149754
455.661417,210.568389,76.570323,-9456.434915
455.662045,229.710970,76.570323,-9437.292334
455.662673,153.140646,95.712904,-9533.005238
455.663300,172.283227,38.285162,-9533.005238
455.663928,172.283227,76.570323,-9475.577496
455.664556,210.568389,133.998066,-9437.292334
455.665184,76.570323,114.855485,-9418.149754
455.665811,38.285162,114.855485,-9418.149754
455.666439,57.427742,133.998066,-9360.722011
455.667067,57.427742,210.568389,-9360.722011
455.667695,19.142581,172.283227,-9418.149754
455.668322,-57.427742,172.283227,-9399.007173
455.668950,-38.285162,153.140646,-9399.007173
455.669578,57.427742,133.998066,-9360.722011
455.670206,133.998066,114.855485,-9418.149754
455.670833,133.998066,114.855485,-9418.149754
455.671461,248.853550,133.998066,-9399.007173
455.672089,210.568389,133.998066,-9456.434915
455.672717,248.853550,153.140646,-9456.434915
455.673344,153.140646,133.998066,-9437.292334
455.673972,210.568389,153.140646,-9437.292334
455.674600,133.998066,210.568389,-9399.007173
455.675228,114.855485,172.283227,-9360.722011
455.675855,-19.142581,248.853550,-9360.722011
455.676483,19.142581,210.568389,-9418.149754
455.677111,-57.427742,248.853550,-9399.007173
455.677739,-38.285162,248.853550,-9399.007173
455.678366,38.285162,229.710970,-9456.434915
455.678994,76.570323,210.568389,-9418.149754
455.679622,133.998066,114.855485,-9475.577496
455.680250,133.998066,114.855485,-9456.434915
455.680877,172.283227,95.712904,-9494.720077
455.681505,191.425808,76.570323,-9475.577496
455.682133,172.283227,76.570323,-9475.577496
455.682761,114.855485,76.570323,-9533.005238
455.683388,210.568389,133.998066,-9437.292334
455.684016,133.998066,114.855485,-9418.149754
455.684644,76.570323,114.855485,-9418.149754
455.685272,76.570323,210.568389,-9360.722011
455.685899,76.570323,210.568389,-9418.149754
455.686527,19.142581,229.710970,-9418.149754
455.687155,0.000000,267.996131,-9341.579430
455.687783,19.142581,267.996131,-9379.864592
455.688410,-38.285162,191.425808,-9399.007173
455.689038,19.142581,210.568389,-9418.149754
455.689666,133.998066,114.855485,-9418.149754
455.690294,172.283227,76.570323,-9418.149754
455.690921,172.283227,76.570323,-9437.292334
455.691549,248.853550,133.998066,-9513.862658
455.692177,191.425808,57.427742,-9475.577496
455.692805,191.425808,38.285162,-9475.577496
455.693432,114.855485,57.427742,-9494.720077
455.694060,153.140646,133.998066,-9399.007173
455.694688,38.285162,114.855485,-9418.149754
455.695316,57.427742,133.998066,-9360.722011
455.695943,-38.285162,153.140646,-9399.007173
455.696571,19.142581,229.710970,-9418.149754
455.697199,-38.285162,172.283227,-9399.007173
455.697827,38.285162,210.568389,-9418.149754
455.698454,76.570323,210.568389,-9418.149754
455.699082,76.570323,114.855485,-9418.149754
455.699710,76.570323,153.140646,-9418.149754
455.700338,153.140646,172.283227,-9456.434915
455.700965,191.425808,133.998066,-9399.007173
455.701593,191.425808,114.855485,-9399.007173
455.702221,210.568389,133.998066,-9399.007173
455.702849,191.425808,133.998066,-9418.149754
455.703476,191.425808,153.140646,-9399.007173
455.704104,57.427742,210.568389,-9418.149754
455.704732,38.285162,114.855485,-9418.149754
455.705360,-38.285162,191.425808,-9399.007173
455.705987,-19.142581,153.140646,-9360.722011
455.706615,0.000000,210.568389,-9322.436850
455.707243,19.142581,153.140646,-9360.722011
455.707871,19.142581,133.998066,-9437.292334
455.708498,76.570323,114.855485,-9418.149754
455.709126,76.570323,172.283227,-9475.577496
455.709754,153.140646,133.998066,-9475.577496
455.710382,114.855485,38.285162,-9437.292334
455.711009,191.425808,76.570323,-9437.292334
455.711637,172.283227,38.285162,-9437.292334
455.712265,191.425808,76.570323,-9418.149754
455.712893,210.568389,133.998066,-9399.007173
455.713520,172.283227,76.570323,-9418.149754
455.714148,95.712904,172.283227,-9399.007173
455.714776,76.570323,191.425808,-9418.149754
455.715404,95.712904,191.425808,-9341.579430
455.716031,-38.285162,210.568389,-9418.149754
455.716659,0.000000,248.853550,-9341.579430
455.717287,95.712904,172.283227,-9418.149754
455.717915,76.570323,133.998066,-9360.722011
455.718542,76.570323,172.283227,-9418.149754
455.719170,38.285162,114.855485,-9418.149754
455.719798,133.998066,114.855485,-9475.577496
455.720426,210.568389,76.570323,-9418.149754
455.721053,248.853550,95.712904,-9533.005238
455.721681,191.425808,76.570323,-9418.149754
455.722309,95.712904,57.427742,-9494.720077
455.722937,172.283227,76.570323,-9418.149754
455.723564,76.570323,114.855485,-9418.149754
455.724192,38.285162,191.425808,-9418.149754
455.724820,-38.285162,153.140646,-9360.722011
455.725448,19.142581,210.568389,-9360.722011
455.726075,19.142581,210.568389,-9418.149754
455.726703,-19.142581,114.855485,-9379.864592
455.727331,-38.285162,153.140646,-9379.864592
455.727959,95.712904,172.283227,-9360.722011
455.728586,133.998066,172.283227,-9418.149754
455.729214,210.568389,133.998066,-9399.007173
455.729842,172.283227,38.285162,-9513.862658
455.730470,229.710970,76.570323,-9475.577496
455.731097,191.425808,76.570323,-9533.005238
455.731725,191.425808,76.570323,-9494.720077
455.732353,172.283227,76.570323,-9456.434915
455.732980,210.568389,172.283227,-9379.864592
455.733608,76.570323,114.855485,-9456.434915
455.734236,95.712904,191.425808,-9360.722011
455.734864,38.285162,114.855485,-9418.149754
455.735491,57.427742,172.283227,-9360.722011
455.736119,-38.285162,248.853550,-9437.292334
455.736747,38.285162,114.855485,-9418.149754
455.737375,19.142581,114.855485,-9418.149754
455.738002,95.712904,153.140646,-9418.149754
455.738630,133.998066,153.140646,-9418.149754
455.739258,210.568389,133.998066,-9456.434915
455.739886,153.140646,133.998066,-9399.007173
455.740513,153.140646,133.998066,-9494.720077
455.741141,191.425808,76.570323,-9456.434915
455.741769,153.140646,133.998066,-9437.292334
455.742397,153.140646,133.998066,-9399.007173
455.743024,133.998066,172.283227,-9418.149754
455.743652,38.285162,210.568389,-9418.149754
455.744280,76.570323,210.568389,-9418.149754
455.744908,95.712904,248.853550,-9284.151688
455.745535,57.427742,229.710970,-9399.007173
455.746163,19.142581,229.710970,-9418.149754
455.746791,38.285162,114.855485,-9494.720077
455.747419,76.570323,210.568389,-9418.149754
455.748046,76.570323,114.855485,-9418.149754
455.748674,133.998066,114.855485,-9418.149754
455.749302,114.855485,95.712904,-9494.720077
455.749930,191.425808,95.712904,-9475.577496
455.750557,248.853550,95.712904,-9552.147819
455.751185,172.283227,76.570323,-9533.005238
455.751813,191.425808,114.855485,-9513.862658
455.752441,172.283227,76.570323,-9437.292334
455.753068,76.570323,114.855485,-9437.292334
455.753696,38.285162,153.140646,-9360.722011
455.754324,38.285162,191.425808,-9418.149754
455.754952,0.000000,191.425808,-9360.722011
455.755579,57.427742,248.853550,-9360.722011
455.756207,38.285162,267.996131,-9379.864592
455.756835,76.570323,248.853550,-9360.722011
455.757463,38.285162,248.853550,-9360.722011
455.758090,114.855485,133.998066,-9360.722011
455.758718,153.140646,114.855485,-9418.149754
455.759346,210.568389,133.998066,-9399.007173
455.759974,210.568389,133.998066,-9456.434915
455.760601,172.283227,76.570323,-9437.292334
455.761229,153.140646,133.998066,-9494.720077
455.761857,153.140646,133.998066,-9399.007173
455.762485,172.283227,76.570323,-9456.434915
455.763113,95.712904,95.712904,-9456.434915
455.763740,57.427742,153.140646,-9360.722011
455.764368,57.427742,191.425808,-9360.722011
455.764996,0.000000,248.853550,-9360.722011
455.765624,-76.570323,210.568389,-9379.864592
455.766252,-38.285162,153.140646,-9399.007173
455.766879,38.285162,172.283227,-9418.149754
455.767507,19.142581,191.425808,-9437.292334
455.768135,133.998066,114.855485,-9418.149754
455.768763,133.998066,114.855485,-9418.149754
455.769390,191.425808,38.285162,-9437.292334
455.770018,191.425808,19.142581,-9418.149754
455.770646,191.425808,76.570323,-9418.149754
455.771274,267.996131,153.140646,-9437.292334
455.771902,210.568389,133.998066,-9399.007173
455.772529,153.140646,172.283227,-9379.864592
455.773157,76.570323,114.855485,-9418.149754
455.773785,95.712904,248.853550,-9360.722011
455.774413,57.427742,153.140646,-9322.436850
455.775040,19.142581,153.140646,-9399.007173
455.775668,19.142581,210.568389,-9418.149754
455.776296,19.142581,114.855485,-9360.722011
455.776924,57.427742,95.712904,-9399.007173
455.777552,133.998066,114.855485,-9418.149754
455.778179,114.855485,38.285162,-9513.862658
455.778807,153.140646,133.998066,-9494.720077
455.779435,172.283227,76.570323,-9494.720077
455.780063,153.140646,133.998066,-9513.862658
455.780690,114.855485,0.000000,-9418.149754
455.781318,114.855485,57.427742,-9399.007173
455.781946,153.140646,133.998066,-9379.864592
455.782574,95.712904,172.283227,-9360.722011
455.783202,76.570323,172.283227,-9418.149754
455.783829,0.000000,267.996131,-9360.722011
455.784457,0.000000,172.283227,-9360.722011
455.785085,-19.142581,325.423874,-9418.149754
455.785713,38.285162,210.568389,-9418.149754
455.786340,57.427742,172.283227,-9341.579430
455.786968,76.570323,210.568389,-9418.149754
455.787596,76.570323,153.140646,-9437.292334
455.788224,133.998066,114.855485,-9437.292334
455.788852,191.425808,76.570323,-9533.005238
455.789479,153.140646,133.998066,-9475.577496
455.790107,191.425808,76.570323,-9533.005238
455.790735,172.283227,38.285162,-9533.005238
455.791363,229.710970,38.285162,-9475.577496
455.791990,133.998066,114.855485,-9475.577496
455.792618,57.427742,95.712904,-9399.007173
455.793246,38.285162,114.855485,-9360.722011
455.793874,57.427742,153.140646,-9360.722011
455.794502,19.142581,229.710970,-9418.149754
455.795129,19.142581,267.996131,-9399.007173
455.795757,57.427742,229.710970,-9418.149754
455.796385,76.570323,191.425808,-9379.864592
455.797013,133.998066,114.855485,-9418.149754
455.797641,114.855485,95.712904,-9456.434915
455.798268,133.998066,133.998066,-9399.007173
455.798896,153.140646,133.998066,-9399.007173
455.799524,229.710970,76.570323,-9418.149754
455.800152,153.140646,76.570323,-9399.007173
455.800779,229.710970,76.570323,-9456.434915
455.801407,153.140646,191.425808,-9399.007173
455.802035,76.570323,114.855485,-9418.149754
455.802663,76.570323,172.283227,-9418.149754
455.803291,76.570323,210.568389,-9418.149754
455.803918,76.570323,210.568389,-9418.149754
455.804546,19.142581,210.568389,-9360.722011
455.805174,-38.285162,172.283227,-9399.007173
455.805802,38.285162,114.855485,-9418.149754
455.806429,38.285162,114.855485,-9475.577496
455.807057,76.570323,114.855485,-9418.149754
455.807685,76.570323,38.285162,-9399.007173
455.808313,153.140646,76.570323,-9513.862658
455.808941,210.568389,133.998066,-9494.720077
455.809568,191.425808,76.570323,-9475.577496
455.810196,172.283227,76.570323,-9533.005238
455.810824,191.425808,133.998066,-9456.434915
455.811452,133.998066,172.283227,-9399.007173
455.812079,76.570323,114.855485,-9418.149754
455.812707,-38.285162,172.283227,-9418.149754
455.813335,0.000000,248.853550,-9284.151688
455.813963,0.000000,229.710970,-9341.579430
455.814591,-19.142581,229.710970,-9322.436850
455.815218,-38.285162,191.425808,-9399.007173
455.815846,38.285162,191.425808,-9360.722011
455.816474,38.285162,172.283227,-9456.434915
455.817102,133.998066,114.855485,-9533.005238
455.817729,153.140646,133.998066,-9399.007173
455.818357,172.283227,76.570323,-9475.577496
455.818985,153.140646,95.712904,-9552.147819
455.819613,210.568389,133.998066,-9437.292334
455.820241,191.425808,76.570323,-9456.434915
455.820868,172.283227,76.570323,-9418.149754
455.821496,133.998066,133.998066,-9437.292334
455.822124,76.570323,114.855485,-9418.149754
455.822752,95.712904,153.140646,-9360.722011
455.823379,57.427742,248.853550,-9341.579430
455.824007,-76.570323,267.996131,-9418.149754
455.824635,-38.285162,287.138712,-9360.722011
455.825263,114.855485,191.425808,-9360.722011
455.825891,76.570323,210.568389,-9437.292334
455.826518,133.998066,153.140646,-9437.292334
455.827146,133.998066,114.855485,-9418.149754
455.827774,210.568389,172.283227,-9513.862658
455.828402,172.283227,76.570323,-9437.292334
455.829030,191.425808,114.855485,-9494.720077
455.829657,229.710970,76.570323,-9418.149754
455.830285,191.425808,38.285162,-9475.577496
455.830913,153.140646,133.998066,-9399.007173
455.831541,76.570323,153.140646,-9418.149754
455.832168,76.570323,114.855485,-9456.434915
455.832796,19.142581,153.140646,-9360.722011
455.833424,57.427742,210.568389,-9418.149754
455.834052,19.142581,191.425808,-9437.292334
455.834680,0.000000,210.568389,-9456.434915
455.835307,-19.142581,229.710970,-9379.864592
455.835935,19.142581,133.998066,-9475.577496
455.836563,133.998066,114.855485,-9456.434915
455.837191,114.855485,95.712904,-9494.720077
455.837818,229.710970,76.570323,-9456.434915
455.838446,210.568389,76.570323,-9418.149754
455.839074,172.283227,133.998066,-9437.292334
455.839702,172.283227,76.570323,-9418.149754
455.840330,210.568389,133.998066,-9399.007173
455.840957,153.140646,133.998066,-9399.007173
455.841585,57.427742,153.140646,-9418.149754
455.842213,0.000000,248.853550,-9360.722011
455.842841,38.285162,248.853550,-9322.436850
455.843468,19.142581,287.138712,-9360.722011
455.844096,0.000000,248.853550,-9360.722011
455.844724,38.285162,210.568389,-9418.149754
455.845352,76.570323,210.568389,-9418.149754
455.845980,57.427742,114.855485,-9399.007173
455.846607,114.855485,95.712904,-9513.862658
455.847235,133.998066,76.570323,-9494.720077
455.847863,229.710970,76.570323,-9533.005238
455.848491,267.996131,-38.285162,-9513.862658
455.849118,191.425808,76.570323,-9475.577496
455.849746,191.425808,38.285162,-9475.577496
455.850374,153.140646,114.855485,-9437.292334
455.851002,57.427742,172.283227,-9494.720077
455.851630,76.570323,153.140646,-9418.149754
455.852257,76.570323,210.568389,-9418.149754
455.852885,57.427742,248.853550,-9360.722011
455.853513,19.142581,267.996131,-9303.294269
455.854141,38.285162,267.996131,-9341.579430
455.854768,0.000000,191.425808,-9360.722011
455.855396,76.570323,210.568389,-9418.149754
455.856024,57.427742,114.855485,-9418.149754
455.856652,153.140646,172.283227,-9418.149754
455.857280,210.568389,133.998066,-9456.434915
455.857907,172.283227,76.570323,-9456.434915
455.858535,191.425808,76.570323,-9456.434915
455.859163,114.855485,95.712904,-9513.862658
455.859791,210.568389,133.998066,-9513.862658
455.860418,172.283227,153.140646,-9494.720077
455.861046,133.998066,114.855485,-9456.434915
455.861674,19.142581,172.283227,-9418.149754
455.862302,76.570323,153.140646,-9418.149754
455.862929,38.285162,153.140646,-9418.149754
455.863557,57.427742,191.425808,-9284.151688
455.864184,0.000000,153.140646,-9360.722011
455.864812,76.570323,153.140646,-9360.722011
455.865440,38.285162,153.140646,-9418.149754
455.866067,57.427742,114.855485,-9437.292334
455.866695,153.140646,133.998066,-9456.434915
455.867323,153.140646,133.998066,-9437.292334
455.867950,172.283227,76.570323,-9533.005238
455.868578,191.425808,76.570323,-9418.149754
455.869205,133.998066,38.285162,-9513.862658
455.869833,191.425808,76.570323,-9418.149754
455.870461,38.285162,210.568389,-9418.149754
455.871088,38.285162,172.283227,-9456.434915
455.871716,38.285162,191.425808,-9360.722011
455.872344,76.570323,210.568389,-9360.722011
455.872971,-19.142581,229.710970,-9322.436850
455.873599,-38.285162,172.283227,-9379.864592
455.874226,38.285162,114.855485,-9437.292334
455.874854,38.285162,114.855485,-9437.292334
455.875482,95.712904,114.855485,-9475.577496
455.876109,133.998066,114.855485,-9456.434915
455.876737,191.425808,57.427742,-9475.577496
455.877365,210.568389,38.285162,-9533.005238
455.877992,248.853550,0.000000,-9533.005238
455.878620,172.283227,76.570323,-9533.005238
455.879247,172.283227,76.570323,-9475.577496
455.879875,210.568389,133.998066,-9418.149754
455.880503,95.712904,191.425808,-9360.722011
455.881130,95.712904,248.853550,-9360.722011
455.881758,0.000000,248.853550,-9360.722011
455.882386,-19.142581,210.568389,-9379.864592
455.883013,19.142581,229.710970,-9418.149754
455.883641,57.427742,248.853550,-9284.151688
455.884268,19.142581,210.568389,-9418.149754
455.884896,38.285162,210.568389,-9418.149754
455.885524,133.998066,114.855485,-9475.577496
455.886151,172.283227,57.427742,-9494.720077
455.886779,248.853550,76.570323,-9456.434915
455.887407,210.568389,76.570323,-9533.005238
455.888034,210.568389,133.998066,-9494.720077
455.888662,191.425808,76.570323,-9533.005238
455.889289,191.425808,114.855485,-9513.862658
455.889917,114.855485,38.285162,-9456.434915
455.890545,95.712904,95.712904,-9399.007173
455.891172,76.570323,95.712904,-9437.292334
455.891800,38.285162,229.710970,-9418.149754
455.892428,19.142581,153.140646,-9418.149754
455.893055,-38.285162,191.425808,-9399.007173
455.893683,19.142581,133.998066,-9399.007173
455.894310,76.570323,172.283227,-9418.149754
455.894938,38.285162,114.855485,-9456.434915
455.895566,133.998066,172.283227,-9418.149754
455.896193,210.568389,172.283227,-9494.720077
455.896821,229.710970,76.570323,-9418.149754
455.897449,191.425808,76.570323,-9475.577496
455.898076,267.996131,133.998066,-9399.007173
455.898704,191.425808,76.570323,-9475.577496
455.899332,76.570323,229.710970,-9418.149754
455.899959,76.570323,114.855485,-9418.149754
455.900587,57.427742,114.855485,-9399.007173
455.901214,38.285162,153.140646,-9418.149754
455.901842,38.285162,172.283227,-9437.292334
455.902470,-38.285162,191.425808,-9399.007173
455.903097,19.142581,210.568389,-9418.149754
455.903725,19.142581,114.855485,-9418.149754
455.904353,0.000000,133.998066,-9360.722011
455.904980,133.998066,114.855485,-9418.149754
455.905608,114.855485,95.712904,-9456.434915
455.906235,172.283227,95.712904,-9494.720077
455.906863,172.283227,57.427742,-9533.005238
455.907491,172.283227,76.570323,-9475.577496
455.908118,191.425808,76.570323,-9533.005238
455.908746,172.283227,76.570323,-9456.434915
455.909374,114.855485,114.855485,-9379.864592
455.910001,38.285162,210.568389,-9360.722011
455.910629,76.570323,153.140646,-9341.579430
455.911256,95.712904,191.425808,-9341.579430
455.911884,0.000000,153.140646,-9341.579430
455.912512,38.285162,248.853550,-9322.436850
455.913139,38.285162,210.568389,-9418.149754
455.913767,57.427742,153.140646,-9360.722011
455.914395,38.285162,114.855485,-9418.149754
455.915022,133.998066,114.855485,-9475.577496
455.915650,210.568389,133.998066,-9399.007173
455.916277,229.710970,76.570323,-9475.577496
455.916905,210.568389,57.427742,-9533.005238
455.917533,172.283227,76.570323,-9533.005238
455.918160,114.855485,95.712904,-9513.862658
455.918788,114.855485,38.285162,-9437.292334
455.919416,95.712904,133.998066,-9552.147819
455.920043,19.142581,114.855485,-9456.434915
455.920671,19.142581,153.140646,-9418.149754
455.921298,38.285162,191.425808,-9360.722011
455.921926,19.142581,210.568389,-9418.149754
455.922554,-19.142581,191.425808,-9341.579430
455.923181,0.000000,210.568389,-9379.864592
455.923809,76.570323,248.853550,-9360.722011
455.924437,76.570323,210.568389,-9418.149754
455.925064,133.998066,153.140646,-9418.149754
455.925692,153.140646,114.855485,-9437.292334
455.926319,172.283227,76.570323,-9456.434915
455.926947,229.710970,95.712904,-9533.005238
455.927575,229.710970,76.570323,-9475.577496
455.928202,210.568389,95.712904,-9533.005238
455.928830,153.140646,133.998066,-9437.292334
455.929458,38.285162,114.855485,-9360.722011
455.930085,38.285162,95.712904,-9437.292334
455.930713,19.142581,172.283227,-9418.149754
455.931340,0.000000,153.140646,-9360.722011
455.931968,57.427742,172.283227,-9341.579430
455.932596,38.285162,114.855485,-9418.149754
455.933223,95.712904,114.855485,-9399.007173
455.933851,133.998066,153.140646,-9418.149754
455.934479,95.712904,114.855485,-9437.292334
455.935106,172.283227,76.570323,-9456.434915
455.935734,210.568389,133.998066,-9494.720077
455.936361,191.425808,76.570323,-9533.005238
455.936989,153.140646,133.998066,-9494.720077
455.937617,172.283227,76.570323,-9418.149754
455.938244,153.140646,133.998066,-9399.007173
455.938872,153.140646,133.998066,-9399.007173
455.939500,114.855485,172.283227,-9360.722011
455.940127,95.712904,248.853550,-9360.722011
455.940755,57.427742,267.996131,-9341.579430
455.941382,19.142581,248.853550,-9379.864592
455.942010,-38.285162,267.996131,-9322.436850
455.942638,95.712904,172.283227,-9360.722011
455.943265,38.285162,172.283227,-9418.149754
455.943893,38.285162,114.855485,-9475.577496
455.944521,133.998066,114.855485,-9418.149754
455.945148,114.855485,57.427742,-9475.577496
455.945776,191.425808,57.427742,-9533.005238
455.946404,172.283227,57.427742,-9533.005238
455.947031,153.140646,133.998066,-9513.862658
455.947659,172.283227,76.570323,-9533.005238
455.948286,153.140646,133.998066,-9456.434915
455.948914,76.570323,114.855485,-9456.434915
455.949542,95.712904,95.712904,-9399.007173
455.950169,76.570323,153.140646,-9341.579430
455.950797,57.427742,248.853550,-9341.579430
455.951425,-19.142581,229.710970,-9379.864592
455.952052,-19.142581,229.710970,-9322.436850
455.952680,19.142581,229.710970,-9418.149754
455.953307,114.855485,191.425808,-9322.436850
455.953935,133.998066,172.283227,-9418.149754
455.954563,133.998066,153.140646,-9475.577496
455.955190,172.283227,133.998066,-9552.147819
455.955818,191.425808,76.570323,-9475.577496
455.956446,287.138712,57.427742,-9475.577496
455.957073,210.568389,95.712904,-9533.005238
455.957701,153.140646,133.998066,-9513.862658
455.958328,76.570323,153.140646,-9437.292334
455.958956,76.570323,114.855485,-9456.434915
455.959584,38.285162,114.855485,-9418.149754
455.960211,95.712904,133.998066,-9341.579430
455.960839,57.427742,114.855485,-9418.149754
455.961467,19.142581,210.568389,-9418.149754
455.962094,0.000000,133.998066,-9360.722011
455.962722,57.427742,248.853550,-9360.722011
455.963350,38.285162,153.140646,-9437.292334
455.963977,133.998066,153.140646,-9437.292334
455.964605,133.998066,114.855485,-9475.577496
455.965233,229.710970,57.427742,-9533.005238
455.965860,191.425808,76.570323,-9494.720077
455.966488,248.853550,95.712904,-9475.577496
455.967116,172.283227,76.570323,-9456.434915
455.967744,191.425808,114.855485,-9379.864592
455.968371,95.712904,95.712904,-9399.007173
455.968999,19.142581,114.855485,-9437.292334
455.969627,57.427742,210.568389,-9360.722011
455.970254,95.712904,210.568389,-9360.722011
455.970882,-19.142581,210.568389,-9379.864592
455.971510,-19.142581,210.568389,-9341.579430
455.972137,38.285162,114.855485,-9418.149754
455.972765,38.285162,114.855485,-9418.149754
455.973393,76.570323,114.855485,-9418.149754
455.974021,76.570323,114.855485,-9418.149754
455.974648,133.998066,114.855485,-9533.005238
455.975276,191.425808,76.570323,-9494.720077
455.975904,114.855485,38.285162,-9475.577496
455.976531,172.283227,19.142581,-9533.005238
455.977159,191.425808,38.285162,-9456.434915
455.977787,172.283227,76.570323,-9456.434915
455.978414,38.285162,114.855485,-9456.434915
455.979042,38.285162,229.710970,-9418.149754
455.979670,57.427742,248.853550,-9360.722011
455.980298,0.000000,191.425808,-9360.722011
455.980925,-38.285162,248.853550,-9399.007173
455.981553,19.142581,229.710970,-9418.149754
455.982181,57.427742,210.568389,-9341.579430
455.982808,57.427742,133.998066,-9360.722011
455.983436,153.140646,95.712904,-9360.722011
455.984064,76.570323,153.140646,-9456.434915
455.984691,172.283227,76.570323,-9456.434915
455.985319,172.283227,57.427742,-9533.005238
455.985947,210.568389,133.998066,-9437.292334
455.986575,172.283227,76.570323,-9533.005238
455.987202,248.853550,133.998066,-9513.862658
455.987830,133.998066,153.140646,-9437.292334
455.988458,114.855485,95.712904,-9437.292334
455.989085,95.712904,210.568389,-9418.149754
455.989713,95.712904,248.853550,-9360.722011
455.990341,19.142581,172.283227,-9418.149754
455.990968,19.142581,172.283227,-9418.149754
455.991596,19.142581,210.568389,-9360.722011
455.992224,19.142581,172.283227,-9379.864592
455.992852,38.285162,114.855485,-9418.149754
455.993479,95.712904,153.140646,-9418.149754
455.994107,95.712904,114.855485,-9418.149754
455.994735,287.138712,76.570323,-9418.149754
455.995362,191.425808,76.570323,-9437.292334
455.995990,248.853550,133.998066,-9475.577496
455.996618,210.568389,133.998066,-9494.720077
455.997245,153.140646,133.998066,-9399.007173
455.997873,210.568389,172.283227,-9399.007173
455.998501,57.427742,114.855485,-9399.007173
455.999129,38.285162,210.568389,-9418.149754
455.999756,57.427742,248.853550,-9341.579430
456.000384,-38.285162,248.853550,-9379.864592
456.001012,-38.285162,191.425808,-9399.007173
456.001639,76.570323,210.568389,-9418.149754
456.002267,38.285162,153.140646,-9418.149754
456.002895,57.427742,95.712904,-9399.007173
456.003522,114.855485,95.712904,-9494.720077
456.004150,114.855485,57.427742,-9513.862658
456.004778,229.710970,76.570323,-9475.577496
456.005406,210.568389,57.427742,-9475.577496
456.006033,172.283227,76.570323,-9475.577496
456.006661,210.568389,133.998066,-9494.720077
456.007289,153.140646,133.998066,-9456.434915
456.007916,76.570323,114.855485,-9418.149754
456.008544,133.998066,229.710970,-9418.149754
456.009172,0.000000,267.996131,-9418.149754
456.009799,19.142581,267.996131,-9379.864592
456.010427,19.142581,229.710970,-9360.722011
456.011055,57.427742,191.425808,-9360.722011
456.011683,57.427742,172.283227,-9341.579430
456.012310,76.570323,114.855485,-9418.149754
456.012938,57.427742,95.712904,-9494.720077
456.013566,114.855485,95.712904,-9456.434915
456.014193,210.568389,133.998066,-9494.720077
456.014821,191.425808,-38.285162,-9533.005238
456.015449,210.568389,57.427742,-9437.292334
456.016076,191.425808,57.427742,-9533.005238
456.016704,172.283227,76.570323,-9456.434915
456.017332,95.712904,76.570323,-9418.149754
456.017960,19.142581,114.855485,-9437.292334
456.018587,19.142581,133.998066,-9399.007173
456.019215,57.427742,191.425808,-9360.722011
456.019843,38.285162,229.710970,-9418.149754
456.020470,0.000000,287.138712,-9399.007173
456.021098,57.427742,153.140646,-9418.149754
456.021726,19.142581,153.140646,-9341.579430
456.022353,95.712904,153.140646,-9418.149754
456.022981,133.998066,114.855485,-9437.292334
456.023609,153.140646,172.283227,-9437.292334
456.024237,191.425808,133.998066,-9399.007173
456.024864,172.283227,76.570323,-9437.292334
456.025492,229.710970,76.570323,-9418.149754
456.026120,210.568389,153.140646,-9437.292334
456.026747,210.568389,133.998066,-9437.292334
456.027375,133.998066,172.283227,-9399.007173
456.028003,38.285162,210.568389,-9418.149754
456.028630,38.285162,210.568389,-9418.149754
456.029258,57.427742,153.140646,-9360.722011
456.029886,57.427742,287.138712,-9494.720077
456.030514,19.142581,210.568389,-9418.149754
456.031141,-57.427742,153.140646,-9494.720077
456.031769,0.000000,76.570323,-9494.720077
456.032397,38.285162,114.855485,-9494.720077
456.033024,114.855485,95.712904,-9456.434915
456.033652,172.283227,95.712904,-9494.720077
456.034280,172.283227,76.570323,-9437.292334
456.034908,248.853550,95.712904,-9475.577496
456.035535,191.425808,76.570323,-9494.720077
456.036163,248.853550,95.712904,-9475.577496
456.036791,191.425808,191.425808,-9399.007173
456.037418,114.855485,191.425808,-9360.722011
456.038046,76.570323,267.996131,-9379.864592
456.038674,95.712904,248.853550,-9360.722011
456.039301,0.000000,248.853550,-9360.722011
456.039929,57.427742,248.853550,-9341.579430
456.040557,57.427742,172.283227,-9341.579430
456.041185,76.570323,172.283227,-9360.722011
456.041812,76.570323,114.855485,-9418.149754
456.042440,57.427742,95.712904,-9494.720077
456.043068,114.855485,95.712904,-9475.577496
456.043695,191.425808,76.570323,-9533.005238
456.044323,191.425808,76.570323,-9533.005238
456.044951,248.853550,95.712904,-9533.005238
456.045578,287.138712,76.570323,-9494.720077
456.046206,191.425808,133.998066,-9437.292334
456.046834,57.427742,95.712904,-9399.007173
456.047462,76.570323,210.568389,-9456.434915
456.048089,38.285162,114.855485,-9418.149754
456.048717,57.427742,229.710970,-9418.149754
456.049345,38.285162,229.710970,-9418.149754
456.049972,-19.142581,287.138712,-9379.864592
456.050600,38.285162,287.138712,-9360.722011
456.051228,114.855485,191.425808,-9360.722011
456.051855,38.285162,114.855485,-9418.149754
456.052483,153.140646,114.855485,-9418.149754
456.053111,191.425808,76.570323,-9456.434915
456.053739,210.568389,133.998066,-9456.434915
456.054366,210.568389,57.427742,-9475.577496
456.054994,191.425808,76.570323,-9533.005238
456.055622,172.283227,38.285162,-9456.434915
456.056249,133.998066,114.855485,-9456.434915
456.056877,76.570323,114.855485,-9418.149754
456.057505,57.427742,95.712904,-9399.007173
456.058132,19.142581,191.425808,-9456.434915
456.058760,38.285162,191.425808,-9418.149754
456.059388,-38.285162,191.425808,-9399.007173
456.060016,19.142581,210.568389,-9418.149754
456.060643,76.570323,153.140646,-9418.149754
456.061271,38.285162,114.855485,-9437.292334
456.061899,38.285162,114.855485,-9418.149754
456.062526,95.712904,95.712904,-9456.434915
456.063154,210.568389,133.998066,-9437.292334
