#time,accel_x,accel_y,accel_z
940.360953,76.570323,114.855485,-9418.149754
940.361581,38.285162,114.855485,-9418.149754
940.362208,76.570323,114.855485,-9456.434915
940.362836,114.855485,133.998066,-9360.722011
940.363464,191.425808,153.140646,-9399.007173
940.364092,133.998066,114.855485,-9360.722011
940.364720,95.712904,172.283227,-9360.722011
940.365347,76.570323,172.283227,-9418.149754
940.365975,153.140646,114.855485,-9418.149754
940.366603,172.283227,133.998066,-9360.722011
940.367231,133.998066,153.140646,-9418.149754
940.367859,76.570323,114.855485,-9418.149754
940.368486,133.998066,172.283227,-9437.292334
940.369114,133.998066,114.855485,-9418.149754
940.369742,76.570323,114.855485,-9437.292334
940.370370,76.570323,114.855485,-9418.149754
940.370998,133.998066,114.855485,-9418.149754
940.371625,76.570323,114.855485,-9418.149754
940.372253,133.998066,114.855485,-9456.434915
940.372881,114.855485,153.140646,-9360.722011
940.373509,76.570323,114.855485,-9418.149754
940.374137,153.140646,133.998066,-9399.007173
940.374764,76.570323,114.855485,-9418.149754
940.375392,133.998066,114.855485,-9418.149754
940.376020,133.998066,153.140646,-9418.149754
940.376648,172.283227,76.570323,-9418.149754
940.377276,133.998066,114.855485,-9418.149754
940.377903,76.570323,114.855485,-9418.149754
940.378531,76.570323,114.855485,-9437.292334
940.379159,76.570323,114.855485,-9418.149754
940.379787,153.140646,133.998066,-9399.007173
940.380415,76.570323,172.283227,-9418.149754
940.381042,38.285162,153.140646,-9418.149754
940.381670,57.427742,95.712904,-9399.007173
940.382298,95.712904,114.855485,-9418.149754
940.382926,76.570323,172.283227,-9418.149754
940.383554,95.712904,95.712904,-9399.007173
940.384181,76.570323,153.140646,-9437.292334
940.384809,76.570323,114.855485,-9418.149754
940.385437,153.140646,133.998066,-9399.007173
940.386065,76.570323,133.998066,-9360.722011
940.386693,133.998066,153.140646,-9418.149754
940.387320,76.570323,210.568389,-9418.149754
940.387948,133.998066,172.283227,-9437.292334
940.388576,95.712904,210.568389,-9456.434915
940.389204,76.570323,133.998066,-9379.864592
940.389832,76.570323,210.568389,-9418.149754
940.390459,95.712904,153.140646,-9418.149754
940.391087,133.998066,114.855485,-9437.292334
940.391715,133.998066,191.425808,-9399.007173
940.392343,133.998066,114.855485,-9456.434915
940.392971,95.712904,95.712904,-9399.007173
940.393598,76.570323,114.855485,-9418.149754
940.394226,76.570323,114.855485,-9418.149754
940.394854,133.998066,114.855485,-9418.149754
940.395482,153.140646,133.998066,-9399.007173
940.396110,76.570323,76.570323,-9379.864592
940.396737,76.570323,114.855485,-9418.149754
940.397365,133.998066,153.140646,-9418.149754
940.397993,133.998066,133.998066,-9399.007173
940.398621,133.998066,114.855485,-9418.149754
940.399249,133.998066,114.855485,-9418.149754
940.399876,133.998066,172.283227,-9418.149754
940.400504,95.712904,133.998066,-9322.436850
940.401132,133.998066,114.855485,-9418.149754
940.401760,133.998066,114.855485,-9437.292334
940.402388,76.570323,210.568389,-9418.149754
940.403015,76.570323,114.855485,-9456.434915
940.403643,38.285162,114.855485,-9418.149754
940.404271,76.570323,114.855485,-9437.292334
940.404899,114.855485,133.998066,-9341.579430
940.405527,57.427742,133.998066,-9360.722011
940.406154,95.712904,133.998066,-9437.292334
940.406782,76.570323,114.855485,-9418.149754
940.407410,153.140646,133.998066,-9399.007173
940.408038,133.998066,191.425808,-9418.149754
940.408666,153.140646,133.998066,-9399.007173
940.409293,76.570323,114.855485,-9418.149754
940.409921,38.285162,114.855485,-9437.292334
940.410549,38.285162,114.855485,-9418.149754
940.411177,95.712904,114.855485,-9418.149754
940.411805,133.998066,153.140646,-9418.149754
940.412432,95.712904,153.140646,-9418.149754
940.413060,95.712904,133.998066,-9360.722011
940.413688,133.998066,153.140646,-9418.149754
940.414316,153.140646,133.998066,-9399.007173
940.414944,114.855485,114.855485,-9379.864592
940.415571,133.998066,172.283227,-9456.434915
940.416199,133.998066,114.855485,-9418.149754
940.416827,133.998066,114.855485,-9418.149754
940.417455,172.283227,133.998066,-9418.149754
940.418083,38.285162,153.140646,-9418.149754
940.418710,76.570323,153.140646,-9418.149754
940.419338,76.570323,114.855485,-9418.149754
940.419966,133.998066,114.855485,-9418.149754
940.420594,133.998066,114.855485,-9418.149754
940.421221,76.570323,153.140646,-9418.149754
940.421849,76.570323,114.855485,-9418.149754
940.422477,76.570323,153.140646,-9418.149754
940.423105,95.712904,114.855485,-9399.007173
940.423732,95.712904,95.712904,-9456.434915
940.424359,76.570323,172.283227,-9418.149754
940.424985,114.855485,133.998066,-9360.722011
940.425612,76.570323,114.855485,-9418.149754
940.426239,38.285162,114.855485,-9437.292334
940.426866,76.570323,114.855485,-9437.292334
940.427493,76.570323,114.855485,-9418.149754
940.428120,76.570323,153.140646,-9418.149754
940.428747,133.998066,114.855485,-9418.149754
940.429374,38.285162,114.855485,-9437.292334
940.430000,133.998066,114.855485,-9418.149754
940.430627,57.427742,133.998066,-9360.722011
940.431254,133.998066,114.855485,-9418.149754
940.431881,133.998066,114.855485,-9456.434915
940.432508,133.998066,172.283227,-9418.149754
940.433135,153.140646,133.998066,-9399.007173
940.433762,133.998066,153.140646,-9418.149754
940.434388,133.998066,172.283227,-9475.577496
940.435015,172.283227,133.998066,-9360.722011
940.435642,76.570323,172.283227,-9456.434915
940.436269,38.285162,114.855485,-9418.149754
940.436896,95.712904,172.283227,-9418.149754
940.437523,95.712904,172.283227,-9360.722011
940.438150,133.998066,114.855485,-9418.149754
940.438776,114.855485,172.283227,-9360.722011
940.439403,76.570323,153.140646,-9418.149754
940.440030,114.855485,133.998066,-9360.722011
940.440657,76.570323,172.283227,-9418.149754
940.441284,114.855485,153.140646,-9360.722011
940.441911,95.712904,114.855485,-9437.292334
940.442538,191.425808,153.140646,-9456.434915
940.443164,133.998066,153.140646,-9475.577496
940.443791,114.855485,133.998066,-9360.722011
940.444418,76.570323,153.140646,-9418.149754
940.445045,95.712904,114.855485,-9456.434915
940.445672,38.285162,95.712904,-9456.434915
940.446299,95.712904,172.283227,-9418.149754
940.446926,133.998066,153.140646,-9399.007173
940.447553,76.570323,114.855485,-9456.434915
940.448179,57.427742,114.855485,-9418.149754
940.448806,76.570323,114.855485,-9418.149754
940.449433,114.855485,95.712904,-9456.434915
940.450060,133.998066,114.855485,-9475.577496
940.450687,38.285162,114.855485,-9456.434915
940.451314,76.570323,114.855485,-9418.149754
940.451941,114.855485,172.283227,-9341.579430
940.452567,133.998066,114.855485,-9456.434915
940.453194,153.140646,133.998066,-9399.007173
940.453821,133.998066,172.283227,-9418.149754
940.454448,114.855485,95.712904,-9399.007173
940.455075,153.140646,133.998066,-9456.434915
940.455702,133.998066,172.283227,-9456.434915
940.456329,76.570323,114.855485,-9475.577496
940.456955,114.855485,133.998066,-9360.722011
940.457582,19.142581,172.283227,-9418.149754
940.458209,38.285162,114.855485,-9418.149754
940.458836,133.998066,153.140646,-9399.007173
940.459463,76.570323,114.855485,-9418.149754
940.460090,95.712904,95.712904,-9399.007173
940.460717,133.998066,172.283227,-9494.720077
940.461343,191.425808,76.570323,-9418.149754
940.461970,114.855485,95.712904,-9399.007173
940.462597,38.285162,210.568389,-9418.149754
940.463224,76.570323,114.855485,-9418.149754
940.463851,95.712904,114.855485,-9399.007173
940.464478,95.712904,172.283227,-9418.149754
940.465105,38.285162,210.568389,-9418.149754
940.465732,76.570323,114.855485,-9437.292334
940.466358,76.570323,114.855485,-9418.149754
940.466985,57.427742,133.998066,-9360.722011
940.467612,153.140646,114.855485,-9418.149754
940.468239,172.283227,76.570323,-9418.149754
940.468866,114.855485,114.855485,-9379.864592
940.469493,76.570323,172.283227,-9418.149754
940.470120,133.998066,172.283227,-9418.149754
940.470746,133.998066,153.140646,-9418.149754
940.471373,133.998066,114.855485,-9456.434915
940.472000,133.998066,153.140646,-9418.149754
940.472627,133.998066,114.855485,-9360.722011
940.473254,38.285162,191.425808,-9418.149754
940.473881,76.570323,114.855485,-9437.292334
940.474508,76.570323,153.140646,-9456.434915
940.475134,114.855485,133.998066,-9360.722011
940.475761,133.998066,114.855485,-9418.149754
940.476388,133.998066,114.855485,-9418.149754
940.477015,76.570323,210.568389,-9437.292334
940.477642,133.998066,172.283227,-9456.434915
940.478269,76.570323,114.855485,-9418.149754
940.478896,95.712904,153.140646,-9360.722011
940.479522,38.285162,114.855485,-9418.149754
940.480149,57.427742,133.998066,-9360.722011
940.480776,95.712904,133.998066,-9360.722011
940.481403,76.570323,114.855485,-9418.149754
940.482030,133.998066,114.855485,-9418.149754
940.482657,0.000000,114.855485,-9379.864592
940.483284,95.712904,114.855485,-9418.149754
940.483910,38.285162,153.140646,-9456.434915
940.484537,76.570323,114.855485,-9418.149754
940.485164,38.285162,114.855485,-9360.722011
940.485791,76.570323,153.140646,-9418.149754
940.486418,76.570323,114.855485,-9360.722011
940.487045,95.712904,95.712904,-9379.864592
940.487672,133.998066,133.998066,-9399.007173
940.488299,76.570323,114.855485,-9418.149754
940.488925,38.285162,153.140646,-9418.149754
940.489552,76.570323,114.855485,-9418.149754
940.490179,95.712904,191.425808,-9360.722011
940.490806,57.427742,95.712904,-9399.007173
940.491433,153.140646,114.855485,-9418.149754
940.492060,133.998066,114.855485,-9418.149754
940.492687,133.998066,153.140646,-9418.149754
940.493313,133.998066,210.568389,-9437.292334
940.493940,133.998066,172.283227,-9475.577496
940.494567,133.998066,153.140646,-9399.007173
940.495194,95.712904,172.283227,-9360.722011
940.495821,133.998066,114.855485,-9437.292334
940.496448,172.283227,114.855485,-9494.720077
940.497075,19.142581,210.568389,-9418.149754
940.497701,76.570323,153.140646,-9418.149754
940.498328,76.570323,114.855485,-9418.149754
940.498955,114.855485,191.425808,-9360.722011
940.499582,133.998066,114.855485,-9418.149754
940.500209,114.855485,95.712904,-9399.007173
940.500836,133.998066,133.998066,-9399.007173
940.501463,133.998066,114.855485,-9418.149754
940.502089,76.570323,153.140646,-9418.149754
940.502716,76.570323,172.283227,-9418.149754
940.503343,153.140646,172.283227,-9418.149754
940.503970,114.855485,95.712904,-9399.007173
940.504597,114.855485,133.998066,-9360.722011
940.505224,76.570323,114.855485,-9437.292334
940.505851,38.285162,114.855485,-9418.149754
940.506478,95.712904,95.712904,-9399.007173
940.507104,95.712904,95.712904,-9399.007173
940.507731,76.570323,153.140646,-9418.149754
940.508358,133.998066,172.283227,-9456.434915
940.508985,76.570323,153.140646,-9418.149754
940.509612,133.998066,114.855485,-9475.577496
940.510239,76.570323,114.855485,-9418.149754
940.510866,38.285162,172.283227,-9418.149754
940.511492,133.998066,172.283227,-9418.149754
940.512119,133.998066,114.855485,-9418.149754
940.512746,133.998066,191.425808,-9418.149754
940.513373,95.712904,153.140646,-9418.149754
940.514000,76.570323,114.855485,-9418.149754
940.514627,38.285162,114.855485,-9360.722011
940.515254,133.998066,114.855485,-9418.149754
940.515880,76.570323,114.855485,-9418.149754
940.516507,38.285162,172.283227,-9418.149754
940.517134,76.570323,153.140646,-9418.149754
940.517761,133.998066,114.855485,-9418.149754
940.518388,76.570323,153.140646,-9418.149754
940.519015,95.712904,133.998066,-9360.722011
940.519642,76.570323,114.855485,-9418.149754
940.520268,95.712904,172.283227,-9418.149754
940.520895,38.285162,114.855485,-9418.149754
940.521522,114.855485,153.140646,-9360.722011
940.522149,76.570323,114.855485,-9437.292334
940.522776,76.570323,114.855485,-9418.149754
940.523403,76.570323,114.855485,-9418.149754
940.524030,133.998066,114.855485,-9418.149754
940.524657,153.140646,210.568389,-9399.007173
940.525284,76.570323,114.855485,-9360.722011
940.525912,95.712904,172.283227,-9360.722011
940.526539,38.285162,172.283227,-9418.149754
940.527166,95.712904,114.855485,-9418.149754
940.527793,133.998066,114.855485,-9437.292334
940.528420,76.570323,172.283227,-9418.149754
940.529048,38.285162,210.568389,-9418.149754
940.529675,76.570323,114.855485,-9418.149754
940.530302,133.998066,114.855485,-9418.149754
940.530929,76.570323,172.283227,-9360.722011
940.531556,114.855485,133.998066,-9360.722011
940.532184,153.140646,153.140646,-9399.007173
940.532811,133.998066,191.425808,-9418.149754
940.533438,172.283227,210.568389,-9379.864592
940.534065,133.998066,210.568389,-9418.149754
940.534692,133.998066,133.998066,-9399.007173
940.535320,153.140646,114.855485,-9437.292334
940.535947,114.855485,133.998066,-9341.579430
940.536574,172.283227,114.855485,-9379.864592
940.537201,114.855485,133.998066,-9360.722011
940.537828,133.998066,114.855485,-9437.292334
940.538456,133.998066,114.855485,-9418.149754
940.539083,38.285162,153.140646,-9418.149754
940.539710,76.570323,114.855485,-9418.149754
940.540337,95.712904,133.998066,-9360.722011
940.540964,133.998066,114.855485,-9418.149754
940.541592,57.427742,133.998066,-9360.722011
940.542219,76.570323,114.855485,-9418.149754
940.542846,76.570323,114.855485,-9418.149754
940.543473,38.285162,114.855485,-9418.149754
940.544100,95.712904,95.712904,-9399.007173
940.544728,133.998066,114.855485,-9437.292334
940.545355,76.570323,114.855485,-9418.149754
940.545982,114.855485,133.998066,-9360.722011
940.546609,76.570323,172.283227,-9418.149754
940.547236,76.570323,114.855485,-9418.149754
940.547864,76.570323,114.855485,-9437.292334
940.548491,76.570323,114.855485,-9418.149754
940.549118,95.712904,114.855485,-9456.434915
940.549745,38.285162,114.855485,-9418.149754
940.550372,76.570323,172.283227,-9399.007173
940.551000,133.998066,153.140646,-9418.149754
940.551627,95.712904,153.140646,-9418.149754
940.552254,76.570323,114.855485,-9418.149754
940.552881,133.998066,114.855485,-9437.292334
940.553508,133.998066,172.283227,-9437.292334
940.554136,133.998066,191.425808,-9418.149754
940.554763,95.712904,172.283227,-9360.722011
940.555390,76.570323,172.283227,-9418.149754
940.556017,76.570323,172.283227,-9418.149754
940.556644,76.570323,191.425808,-9418.149754
940.557272,133.998066,153.140646,-9418.149754
940.557899,76.570323,114.855485,-9418.149754
940.558526,76.570323,210.568389,-9418.149754
940.559153,95.712904,153.140646,-9360.722011
940.559780,153.140646,153.140646,-9399.007173
940.560408,38.285162,153.140646,-9418.149754
940.561035,38.285162,114.855485,-9437.292334
940.561662,95.712904,191.425808,-9418.149754
940.562289,133.998066,172.283227,-9418.149754
940.562916,114.855485,133.998066,-9341.579430
940.563544,133.998066,114.855485,-9418.149754
940.564171,133.998066,210.568389,-9418.149754
940.564798,76.570323,114.855485,-9418.149754
940.565425,95.712904,114.855485,-9418.149754
940.566053,133.998066,114.855485,-9418.149754
940.566680,38.285162,210.568389,-9399.007173
940.567307,76.570323,114.855485,-9418.149754
940.567934,95.712904,114.855485,-9437.292334
940.568561,38.285162,114.855485,-9418.149754
940.569189,133.998066,114.855485,-9418.149754
940.569816,38.285162,114.855485,-9418.149754
940.570443,114.855485,76.570323,-9418.149754
940.571070,95.712904,114.855485,-9418.149754
940.571697,38.285162,210.568389,-9456.434915
940.572325,76.570323,114.855485,-9418.149754
940.572952,76.570323,172.283227,-9418.149754
940.573579,76.570323,153.140646,-9418.149754
940.574206,76.570323,114.855485,-9456.434915
940.574833,76.570323,114.855485,-9437.292334
940.575461,133.998066,172.283227,-9418.149754
940.576088,76.570323,172.283227,-9456.434915
940.576715,133.998066,229.710970,-9418.149754
940.577342,76.570323,153.140646,-9418.149754
940.577969,76.570323,172.283227,-9418.149754
940.578597,76.570323,153.140646,-9418.149754
940.579224,153.140646,172.283227,-9437.292334
940.579851,133.998066,210.568389,-9418.149754
940.580478,133.998066,133.998066,-9437.292334
940.581105,95.712904,76.570323,-9379.864592
940.581733,76.570323,114.855485,-9418.149754
940.582360,76.570323,114.855485,-9456.434915
940.582987,153.140646,133.998066,-9399.007173
940.583614,76.570323,114.855485,-9418.149754
940.584241,38.285162,172.283227,-9418.149754
940.584869,76.570323,114.855485,-9456.434915
940.585496,133.998066,114.855485,-9418.149754
940.586123,76.570323,172.283227,-9437.292334
940.586750,76.570323,210.568389,-9418.149754
940.587377,133.998066,172.283227,-9418.149754
940.588005,133.998066,114.855485,-9360.722011
940.588632,114.855485,95.712904,-9399.007173
940.589259,76.570323,153.140646,-9418.149754
940.589886,95.712904,153.140646,-9360.722011
940.590513,95.712904,153.140646,-9360.722011
940.591141,76.570323,153.140646,-9418.149754
940.591768,133.998066,114.855485,-9418.149754
940.592395,114.855485,95.712904,-9399.007173
940.593022,153.140646,153.140646,-9456.434915
940.593649,133.998066,114.855485,-9456.434915
940.594277,76.570323,114.855485,-9418.149754
940.594904,57.427742,133.998066,-9360.722011
940.595531,38.285162,114.855485,-9418.149754
940.596158,95.712904,95.712904,-9399.007173
940.596785,133.998066,153.140646,-9475.577496
940.597413,133.998066,172.283227,-9399.007173
940.598040,133.998066,114.855485,-9418.149754
940.598667,95.712904,95.712904,-9399.007173
940.599294,133.998066,210.568389,-9418.149754
940.599921,76.570323,114.855485,-9437.292334
940.600549,76.570323,153.140646,-9418.149754
940.601176,95.712904,172.283227,-9418.149754
940.601803,133.998066,114.855485,-9418.149754
940.602430,114.855485,153.140646,-9360.722011
940.603057,76.570323,153.140646,-9418.149754
940.603685,95.712904,114.855485,-9437.292334
940.604312,76.570323,95.712904,-9399.007173
940.604939,133.998066,114.855485,-9418.149754
940.605566,76.570323,114.855485,-9418.149754
940.606193,133.998066,114.855485,-9437.292334
940.606821,76.570323,114.855485,-9360.722011
940.607448,114.855485,153.140646,-9360.722011
940.608075,133.998066,114.855485,-9437.292334
940.608702,172.283227,76.570323,-9475.577496
940.609329,76.570323,114.855485,-9418.149754
940.609957,133.998066,153.140646,-9418.149754
940.610584,133.998066,114.855485,-9418.149754
940.611211,133.998066,172.283227,-9418.149754
940.611838,38.285162,114.855485,-9418.149754
940.612465,38.285162,114.855485,-9437.292334
940.613093,133.998066,133.998066,-9399.007173
940.613720,133.998066,210.568389,-9418.149754
940.614347,114.855485,133.998066,-9360.722011
940.614974,76.570323,114.855485,-9418.149754
940.615601,95.712904,95.712904,-9399.007173
940.616229,76.570323,114.855485,-9418.149754
940.616856,76.570323,172.283227,-9437.292334
940.617483,76.570323,153.140646,-9418.149754
940.618110,76.570323,114.855485,-9418.149754
940.618737,95.712904,95.712904,-9399.007173
940.619365,57.427742,172.283227,-9360.722011
940.619992,153.140646,191.425808,-9399.007173
940.620619,114.855485,210.568389,-9360.722011
940.621246,133.998066,153.140646,-9418.149754
940.621873,38.285162,114.855485,-9418.149754
940.622501,76.570323,114.855485,-9360.722011
940.623128,95.712904,172.283227,-9360.722011
940.623755,133.998066,210.568389,-9418.149754
940.624382,133.998066,210.568389,-9418.149754
940.625009,76.570323,114.855485,-9418.149754
940.625636,76.570323,114.855485,-9418.149754
940.626263,153.140646,133.998066,-9456.434915
940.626890,76.570323,114.855485,-9418.149754
940.627517,76.570323,172.283227,-9418.149754
940.628144,114.855485,191.425808,-9341.579430
940.628771,38.285162,114.855485,-9418.149754
940.629398,95.712904,172.283227,-9437.292334
940.630025,38.285162,114.855485,-9418.149754
940.630652,76.570323,114.855485,-9418.149754
940.631279,76.570323,114.855485,-9418.149754
940.631906,95.712904,114.855485,-9456.434915
940.632533,114.855485,95.712904,-9399.007173
940.633160,133.998066,153.140646,-9399.007173
940.633787,133.998066,172.283227,-9418.149754
940.634414,172.283227,172.283227,-9379.864592
940.635041,133.998066,210.568389,-9418.149754
940.635668,114.855485,153.140646,-9360.722011
940.636295,133.998066,114.855485,-9360.722011
940.636922,76.570323,114.855485,-9418.149754
940.637549,133.998066,133.998066,-9437.292334
940.638175,133.998066,114.855485,-9418.149754
940.638802,133.998066,153.140646,-9418.149754
940.639429,133.998066,172.283227,-9418.149754
940.640056,153.140646,133.998066,-9399.007173
940.640683,76.570323,191.425808,-9360.722011
940.641310,133.998066,153.140646,-9437.292334
940.641937,114.855485,95.712904,-9399.007173
940.642564,57.427742,114.855485,-9418.149754
940.643191,76.570323,76.570323,-9379.864592
940.643818,76.570323,114.855485,-9418.149754
940.644445,133.998066,153.140646,-9418.149754
940.645072,133.998066,172.283227,-9418.149754
940.645699,76.570323,114.855485,-9418.149754
940.646326,-19.142581,114.855485,-9379.864592
940.646953,57.427742,133.998066,-9360.722011
940.647580,57.427742,153.140646,-9360.722011
940.648207,133.998066,114.855485,-9418.149754
940.648834,133.998066,153.140646,-9418.149754
940.649461,133.998066,172.283227,-9418.149754
940.650088,114.855485,133.998066,-9360.722011
940.650715,76.570323,114.855485,-9418.149754
940.651342,153.140646,133.998066,-9399.007173
940.651969,153.140646,133.998066,-9456.434915
940.652596,133.998066,172.283227,-9437.292334
940.653223,76.570323,114.855485,-9418.149754
940.653850,76.570323,172.283227,-9437.292334
940.654477,133.998066,172.283227,-9399.007173
940.655104,38.285162,114.855485,-9418.149754
940.655731,76.570323,114.855485,-9418.149754
940.656358,133.998066,114.855485,-9418.149754
940.656985,76.570323,210.568389,-9418.149754
940.657612,38.285162,153.140646,-9418.149754
940.658239,38.285162,114.855485,-9456.434915
940.658866,95.712904,95.712904,-9399.007173
940.659493,133.998066,133.998066,-9399.007173
940.660120,133.998066,114.855485,-9418.149754
940.660747,133.998066,114.855485,-9418.149754
940.661374,95.712904,133.998066,-9360.722011
940.662001,95.712904,133.998066,-9360.722011
940.662628,95.712904,95.712904,-9399.007173
940.663255,76.570323,95.712904,-9379.864592
940.663882,95.712904,133.998066,-9360.722011
940.664509,114.855485,95.712904,-9399.007173
940.665135,114.855485,133.998066,-9360.722011
940.665762,76.570323,153.140646,-9418.149754
940.666389,76.570323,172.283227,-9418.149754
940.667016,95.712904,114.855485,-9418.149754
940.667643,95.712904,95.712904,-9399.007173
940.668270,133.998066,114.855485,-9475.577496
940.668897,133.998066,133.998066,-9399.007173
940.669524,76.570323,114.855485,-9418.149754
940.670151,153.140646,153.140646,-9399.007173
940.670778,172.283227,95.712904,-9399.007173
940.671405,114.855485,133.998066,-9360.722011
940.672032,114.855485,95.712904,-9399.007173
940.672659,95.712904,95.712904,-9399.007173
940.673286,76.570323,114.855485,-9418.149754
940.673913,76.570323,133.998066,-9341.579430
940.674540,114.855485,172.283227,-9418.149754
940.675167,76.570323,172.283227,-9418.149754
940.675794,95.712904,133.998066,-9360.722011
940.676421,95.712904,114.855485,-9418.149754
940.677048,114.855485,76.570323,-9418.149754
940.677675,38.285162,114.855485,-9418.149754
940.678302,133.998066,114.855485,-9360.722011
940.678929,76.570323,114.855485,-9418.149754
940.679556,114.855485,153.140646,-9360.722011
940.680183,76.570323,210.568389,-9418.149754
940.680810,133.998066,153.140646,-9437.292334
940.681437,133.998066,114.855485,-9418.149754
940.682064,38.285162,172.283227,-9418.149754
940.682691,38.285162,153.140646,-9418.149754
940.683318,133.998066,172.283227,-9418.149754
940.683945,76.570323,114.855485,-9418.149754
940.684572,133.998066,114.855485,-9418.149754
940.685199,76.570323,114.855485,-9437.292334
940.685826,76.570323,114.855485,-9418.149754
940.686453,76.570323,153.140646,-9418.149754
940.687080,133.998066,76.570323,-9379.864592
940.687707,76.570323,76.570323,-9379.864592
940.688334,76.570323,114.855485,-9418.149754
940.688961,95.712904,114.855485,-9418.149754
940.689588,95.712904,133.998066,-9360.722011
940.690215,38.285162,172.283227,-9418.149754
940.690842,133.998066,172.283227,-9418.149754
940.691468,133.998066,114.855485,-9418.149754
940.692095,76.570323,114.855485,-9418.149754
940.692722,38.285162,114.855485,-9360.722011
940.693349,114.855485,133.998066,-9360.722011
940.693976,76.570323,191.425808,-9475.577496
940.694603,133.998066,114.855485,-9456.434915
940.695230,133.998066,114.855485,-9418.149754
940.695857,133.998066,114.855485,-9418.149754
940.696484,57.427742,172.283227,-9360.722011
940.697111,76.570323,172.283227,-9418.149754
940.697738,57.427742,95.712904,-9456.434915
940.698365,57.427742,95.712904,-9399.007173
940.698992,133.998066,114.855485,-9418.149754
940.699619,95.712904,133.998066,-9360.722011
940.700246,95.712904,114.855485,-9399.007173
940.700873,38.285162,114.855485,-9418.149754
940.701500,38.285162,114.855485,-9418.149754
940.702127,76.570323,114.855485,-9418.149754
940.702754,38.285162,229.710970,-9456.434915
940.703381,76.570323,153.140646,-9360.722011
940.704008,95.712904,210.568389,-9360.722011
940.704635,133.998066,153.140646,-9437.292334
940.705262,114.855485,133.998066,-9360.722011
940.705889,76.570323,153.140646,-9418.149754
940.706516,38.285162,114.855485,-9418.149754
940.707143,95.712904,153.140646,-9418.149754
940.707770,133.998066,114.855485,-9437.292334
940.708397,153.140646,153.140646,-9379.864592
940.709024,133.998066,172.283227,-9418.149754
940.709651,133.998066,114.855485,-9418.149754
940.710278,38.285162,172.283227,-9418.149754
940.710905,76.570323,153.140646,-9418.149754
940.711532,133.998066,191.425808,-9418.149754
940.712159,57.427742,210.568389,-9418.149754
940.712786,153.140646,172.283227,-9399.007173
940.713413,76.570323,114.855485,-9418.149754
940.714040,76.570323,210.568389,-9418.149754
940.714667,133.998066,114.855485,-9437.292334
940.715294,76.570323,153.140646,-9418.149754
940.715921,76.570323,114.855485,-9360.722011
940.716548,76.570323,114.855485,-9418.149754
940.717175,76.570323,114.855485,-9418.149754
940.717802,133.998066,114.855485,-9418.149754
940.718428,76.570323,114.855485,-9418.149754
940.719055,95.712904,95.712904,-9399.007173
940.719682,133.998066,114.855485,-9418.149754
940.720309,76.570323,153.140646,-9418.149754
940.720936,76.570323,153.140646,-9360.722011
940.721563,0.000000,114.855485,-9399.007173
940.722190,57.427742,133.998066,-9360.722011
940.722817,133.998066,114.855485,-9437.292334
940.723444,76.570323,114.855485,-9418.149754
940.724071,38.285162,153.140646,-9418.149754
940.724699,76.570323,133.998066,-9360.722011
940.725326,76.570323,95.712904,-9399.007173
940.725953,95.712904,133.998066,-9418.149754
940.726581,133.998066,153.140646,-9456.434915
940.727208,76.570323,114.855485,-9456.434915
940.727835,76.570323,114.855485,-9418.149754
940.728462,76.570323,114.855485,-9418.149754
940.729090,38.285162,153.140646,-9418.149754
940.729717,76.570323,172.283227,-9418.149754
940.730344,114.855485,172.283227,-9360.722011
940.730972,114.855485,172.283227,-9360.722011
940.731599,76.570323,172.283227,-9418.149754
940.732226,76.570323,114.855485,-9418.149754
940.732854,133.998066,114.855485,-9418.149754
940.733481,95.712904,114.855485,-9418.149754
940.734108,114.855485,95.712904,-9399.007173
940.734736,95.712904,114.855485,-9379.864592
940.735363,76.570323,153.140646,-9418.149754
940.735990,76.570323,172.283227,-9418.149754
940.736618,57.427742,95.712904,-9456.434915
940.737245,76.570323,114.855485,-9418.149754
940.737872,76.570323,114.855485,-9456.434915
940.738499,76.570323,114.855485,-9418.149754
940.739127,38.285162,114.855485,-9418.149754
940.739754,76.570323,114.855485,-9418.149754
940.740381,76.570323,114.855485,-9418.149754
940.741009,76.570323,114.855485,-9418.149754
940.741636,38.285162,114.855485,-9418.149754
940.742263,95.712904,114.855485,-9418.149754
940.742891,114.855485,133.998066,-9360.722011
940.743518,76.570323,172.283227,-9418.149754
940.744145,210.568389,248.853550,-9379.864592
940.744773,95.712904,153.140646,-9418.149754
940.745400,172.283227,172.283227,-9379.864592
940.746027,153.140646,153.140646,-9399.007173
940.746654,153.140646,133.998066,-9379.864592
940.747282,133.998066,191.425808,-9399.007173
940.747909,153.140646,133.998066,-9456.434915
940.748536,153.140646,133.998066,-9399.007173
940.749164,133.998066,153.140646,-9437.292334
940.749791,133.998066,172.283227,-9437.292334
940.750418,133.998066,172.283227,-9456.434915
940.751046,38.285162,114.855485,-9456.434915
940.751673,76.570323,172.283227,-9456.434915
940.752300,76.570323,191.425808,-9418.149754
940.752928,114.855485,133.998066,-9284.151688
940.753555,76.570323,172.283227,-9418.149754
940.754182,38.285162,153.140646,-9418.149754
940.754810,133.998066,172.283227,-9418.149754
940.755437,133.998066,114.855485,-9418.149754
940.756064,114.855485,153.140646,-9360.722011
940.756691,76.570323,153.140646,-9418.149754
940.757319,133.998066,133.998066,-9437.292334
940.757946,57.427742,133.998066,-9360.722011
940.758573,133.998066,114.855485,-9418.149754
940.759201,76.570323,114.855485,-9418.149754
940.759828,95.712904,95.712904,-9379.864592
940.760455,38.285162,153.140646,-9418.149754
940.761083,38.285162,153.140646,-9418.149754
940.761710,133.998066,153.140646,-9418.149754
940.762337,133.998066,153.140646,-9399.007173
940.762965,114.855485,95.712904,-9437.292334
940.763592,133.998066,114.855485,-9418.149754
940.764219,95.712904,153.140646,-9341.579430
940.764847,133.998066,114.855485,-9418.149754
940.765474,153.140646,153.140646,-9418.149754
940.766101,38.285162,114.855485,-9418.149754
940.766728,38.285162,114.855485,-9418.149754
940.767356,76.570323,114.855485,-9418.149754
940.767983,57.427742,114.855485,-9418.149754
940.768610,76.570323,114.855485,-9418.149754
940.769238,172.283227,76.570323,-9418.149754
940.769865,114.855485,133.998066,-9360.722011
940.770492,76.570323,114.855485,-9418.149754
940.771120,114.855485,133.998066,-9360.722011
940.771747,95.712904,153.140646,-9418.149754
940.772374,133.998066,172.283227,-9456.434915
940.773002,76.570323,114.855485,-9418.149754
940.773629,76.570323,172.283227,-9418.149754
940.774256,133.998066,114.855485,-9418.149754
940.774884,76.570323,114.855485,-9418.149754
940.775511,76.570323,172.283227,-9437.292334
940.776138,76.570323,172.283227,-9360.722011
940.776765,76.570323,172.283227,-9456.434915
940.777393,57.427742,133.998066,-9360.722011
940.778020,76.570323,172.283227,-9456.434915
940.778647,95.712904,95.712904,-9456.434915
940.779275,133.998066,114.855485,-9456.434915
940.779902,133.998066,114.855485,-9456.434915
940.780529,95.712904,95.712904,-9456.434915
940.781157,133.998066,114.855485,-9418.149754
940.781784,133.998066,114.855485,-9418.149754
940.782411,133.998066,172.283227,-9418.149754
940.783039,57.427742,153.140646,-9360.722011
940.783666,133.998066,114.855485,-9418.149754
940.784293,95.712904,114.855485,-9418.149754
940.784921,133.998066,172.283227,-9437.292334
940.785548,76.570323,114.855485,-9418.149754
940.786175,0.000000,95.712904,-9399.007173
940.786802,57.427742,95.712904,-9399.007173
940.787430,76.570323,153.140646,-9418.149754
940.788057,76.570323,114.855485,-9418.149754
940.788684,76.570323,191.425808,-9418.149754
940.789312,133.998066,114.855485,-9418.149754
940.789939,57.427742,95.712904,-9399.007173
940.790566,76.570323,114.855485,-9418.149754
940.791194,133.998066,114.855485,-9418.149754
940.791821,76.570323,153.140646,-9418.149754
940.792448,76.570323,114.855485,-9456.434915
940.793076,114.855485,95.712904,-9399.007173
940.793703,133.998066,153.140646,-9418.149754
940.794330,95.712904,133.998066,-9360.722011
940.794957,38.285162,114.855485,-9418.149754
940.795585,114.855485,172.283227,-9379.864592
940.796212,95.712904,95.712904,-9399.007173
940.796839,38.285162,153.140646,-9437.292334
940.797467,133.998066,133.998066,-9399.007173
940.798094,38.285162,114.855485,-9418.149754
940.798721,38.285162,114.855485,-9418.149754
940.799349,133.998066,172.283227,-9399.007173
940.799976,76.570323,114.855485,-9437.292334
940.800603,76.570323,114.855485,-9418.149754
940.801231,95.712904,133.998066,-9418.149754
940.801858,153.140646,114.855485,-9418.149754
940.802485,133.998066,114.855485,-9456.434915
940.803113,76.570323,114.855485,-9418.149754
940.803740,133.998066,153.140646,-9399.007173
940.804367,133.998066,133.998066,-9399.007173
940.804994,95.712904,133.998066,-9360.722011
940.805622,76.570323,210.568389,-9418.149754
940.806249,76.570323,114.855485,-9418.149754
940.806876,133.998066,114.855485,-9418.149754
940.807504,76.570323,172.283227,-9437.292334
940.808131,133.998066,153.140646,-9399.007173
940.808758,76.570323,114.855485,-9418.149754
940.809386,95.712904,172.283227,-9360.722011
940.810013,133.998066,114.855485,-9418.149754
940.810640,76.570323,114.855485,-9418.149754
940.811268,76.570323,210.568389,-9437.292334
940.811895,153.140646,172.283227,-9399.007173
940.812522,57.427742,133.998066,-9360.722011
940.813150,133.998066,114.855485,-9437.292334
940.813777,57.427742,114.855485,-9475.577496
940.814404,133.998066,114.855485,-9456.434915
940.815031,153.140646,153.140646,-9399.007173
940.815659,133.998066,172.283227,-9399.007173
940.816286,133.998066,114.855485,-9418.149754
940.816913,114.855485,153.140646,-9360.722011
940.817541,76.570323,153.140646,-9418.149754
940.818168,38.285162,114.855485,-9418.149754
940.818795,76.570323,114.855485,-9437.292334
940.819423,133.998066,114.855485,-9418.149754
940.820050,133.998066,114.855485,-9418.149754
940.820677,133.998066,95.712904,-9360.722011
940.821305,153.140646,153.140646,-9399.007173
940.821932,133.998066,114.855485,-9360.722011
940.822559,133.998066,153.140646,-9399.007173
940.823187,133.998066,114.855485,-9418.149754
940.823814,76.570323,114.855485,-9418.149754
940.824441,95.712904,95.712904,-9456.434915
940.825069,38.285162,114.855485,-9418.149754
940.825697,133.998066,114.855485,-9418.149754
940.826325,76.570323,114.855485,-9418.149754
940.826952,57.427742,95.712904,-9494.720077
940.827580,133.998066,172.283227,-9399.007173
940.828208,133.998066,114.855485,-9418.149754
940.828836,133.998066,172.283227,-9418.149754
940.829464,114.855485,133.998066,-9418.149754
940.830092,76.570323,114.855485,-9418.149754
940.830719,153.140646,95.712904,-9360.722011
940.831347,76.570323,114.855485,-9437.292334
940.831975,95.712904,114.855485,-9418.149754
940.832603,114.855485,133.998066,-9360.722011
940.833231,76.570323,114.855485,-9418.149754
940.833859,133.998066,153.140646,-9399.007173
940.834486,133.998066,172.283227,-9418.149754
940.835114,76.570323,114.855485,-9418.149754
940.835742,76.570323,114.855485,-9418.149754
940.836370,95.712904,114.855485,-9418.149754
940.836998,76.570323,114.855485,-9418.149754
940.837625,153.140646,153.140646,-9399.007173
940.838253,76.570323,172.283227,-9418.149754
940.838881,95.712904,210.568389,-9360.722011
940.839509,133.998066,114.855485,-9418.149754
940.840137,76.570323,153.140646,-9418.149754
940.840765,133.998066,114.855485,-9437.292334
940.841392,114.855485,114.855485,-9399.007173
940.842020,114.855485,172.283227,-9399.007173
940.842648,153.140646,153.140646,-9475.577496
940.843276,76.570323,114.855485,-9456.434915
940.843904,153.140646,153.140646,-9437.292334
940.844532,153.140646,114.855485,-9418.149754
940.845159,153.140646,248.853550,-9399.007173
940.845787,114.855485,191.425808,-9360.722011
940.846415,153.140646,210.568389,-9399.007173
940.847043,133.998066,210.568389,-9418.149754
940.847671,76.570323,153.140646,-9418.149754
940.848298,95.712904,114.855485,-9418.149754
940.848926,38.285162,153.140646,-9418.149754
940.849554,153.140646,133.998066,-9399.007173
940.850182,133.998066,114.855485,-9418.149754
940.850810,133.998066,114.855485,-9456.434915
940.851438,133.998066,153.140646,-9418.149754
940.852065,133.998066,114.855485,-9418.149754
940.852693,57.427742,95.712904,-9456.434915
940.853321,133.998066,153.140646,-9456.434915
940.853949,133.998066,153.140646,-9418.149754
940.854577,76.570323,153.140646,-9360.722011
940.855205,76.570323,172.283227,-9418.149754
940.855832,95.712904,153.140646,-9341.579430
940.856460,76.570323,210.568389,-9456.434915
940.857088,95.712904,172.283227,-9360.722011
940.857716,38.285162,153.140646,-9418.149754
940.858344,38.285162,172.283227,-9418.149754
940.858971,38.285162,114.855485,-9418.149754
940.859599,114.855485,95.712904,-9399.007173
940.860227,133.998066,114.855485,-9437.292334
940.860855,76.570323,114.855485,-9418.149754
940.861483,133.998066,114.855485,-9418.149754
940.862111,76.570323,114.855485,-9437.292334
940.862738,76.570323,229.710970,-9418.149754
940.863366,76.570323,114.855485,-9360.722011
940.863994,133.998066,153.140646,-9418.149754
940.864622,76.570323,114.855485,-9418.149754
940.865250,76.570323,153.140646,-9418.149754
940.865878,19.142581,114.855485,-9418.149754
940.866505,38.285162,172.283227,-9418.149754
940.867133,95.712904,191.425808,-9360.722011
940.867761,133.998066,153.140646,-9418.149754
940.868389,57.427742,133.998066,-9360.722011
940.869017,95.712904,95.712904,-9399.007173
940.869644,114.855485,133.998066,-9360.722011
940.870272,76.570323,114.855485,-9360.722011
940.870900,76.570323,114.855485,-9437.292334
940.871528,133.998066,114.855485,-9418.149754
940.872156,153.140646,114.855485,-9418.149754
940.872784,133.998066,133.998066,-9399.007173
940.873411,172.283227,133.998066,-9437.292334
940.874039,76.570323,172.283227,-9456.434915
940.874667,114.855485,114.855485,-9399.007173
940.875295,76.570323,114.855485,-9418.149754
940.875923,76.570323,114.855485,-9418.149754
940.876551,76.570323,114.855485,-9418.149754
940.877178,114.855485,133.998066,-9360.722011
940.877806,133.998066,114.855485,-9418.149754
940.878434,114.855485,133.998066,-9360.722011
940.879062,76.570323,114.855485,-9418.149754
940.879690,95.712904,210.568389,-9418.149754
940.880317,76.570323,153.140646,-9418.149754
940.880945,133.998066,210.568389,-9418.149754
940.881573,38.285162,153.140646,-9418.149754
940.882201,76.570323,133.998066,-9322.436850
940.882829,114.855485,172.283227,-9360.722011
940.883457,76.570323,153.140646,-9418.149754
940.884084,76.570323,172.283227,-9418.149754
940.884712,38.285162,153.140646,-9418.149754
940.885340,133.998066,114.855485,-9456.434915
940.885968,76.570323,210.568389,-9418.149754
940.886596,76.570323,114.855485,-9418.149754
940.887224,133.998066,153.140646,-9418.149754
940.887851,133.998066,114.855485,-9418.149754
940.888479,133.998066,114.855485,-9418.149754
940.889107,133.998066,114.855485,-9418.149754
940.889735,133.998066,191.425808,-9399.007173
940.890363,76.570323,76.570323,-9379.864592
940.890991,133.998066,114.855485,-9456.434915
940.891618,133.998066,133.998066,-9437.292334
940.892246,153.140646,133.998066,-9379.864592
940.892874,133.998066,114.855485,-9418.149754
940.893502,95.712904,172.283227,-9360.722011
940.894130,133.998066,172.283227,-9418.149754
940.894757,114.855485,172.283227,-9360.722011
940.895385,76.570323,172.283227,-9418.149754
940.896013,95.712904,172.283227,-9456.434915
940.896641,76.570323,114.855485,-9437.292334
940.897269,95.712904,114.855485,-9437.292334
940.897897,76.570323,114.855485,-9418.149754
940.898524,76.570323,172.283227,-9418.149754
940.899152,133.998066,114.855485,-9418.149754
940.899780,133.998066,172.283227,-9418.149754
940.900408,172.283227,76.570323,-9418.149754
940.901036,114.855485,114.855485,-9399.007173
940.901664,95.712904,133.998066,-9360.722011
940.902291,38.285162,172.283227,-9533.005238
940.902919,76.570323,114.855485,-9437.292334
940.903547,57.427742,95.712904,-9437.292334
940.904175,38.285162,114.855485,-9418.149754
940.904803,95.712904,114.855485,-9418.149754
940.905430,133.998066,153.140646,-9360.722011
940.906058,95.712904,95.712904,-9399.007173
940.906686,57.427742,114.855485,-9399.007173
940.907314,76.570323,153.140646,-9418.149754
940.907942,76.570323,133.998066,-9360.722011
940.908570,133.998066,114.855485,-9456.434915
940.909197,133.998066,114.855485,-9418.149754
940.909825,95.712904,95.712904,-9456.434915
940.910453,133.998066,172.283227,-9418.149754
940.911081,153.140646,133.998066,-9399.007173
940.911709,133.998066,248.853550,-9456.434915
940.912337,95.712904,172.283227,-9456.434915
940.912964,133.998066,172.283227,-9437.292334
940.913592,133.998066,133.998066,-9456.434915
940.914220,76.570323,114.855485,-9418.149754
940.914848,133.998066,114.855485,-9418.149754
940.915476,76.570323,114.855485,-9437.292334
940.916103,76.570323,133.998066,-9360.722011
940.916731,133.998066,133.998066,-9399.007173
940.917359,153.140646,133.998066,-9399.007173
940.917987,153.140646,133.998066,-9456.434915
940.918615,133.998066,95.712904,-9360.722011
940.919243,95.712904,95.712904,-9399.007173
940.919870,76.570323,114.855485,-9418.149754
940.920498,133.998066,191.425808,-9399.007173
940.921126,57.427742,172.283227,-9360.722011
940.921754,57.427742,133.998066,-9360.722011
940.922382,95.712904,114.855485,-9418.149754
940.923010,153.140646,95.712904,-9360.722011
940.923637,133.998066,133.998066,-9399.007173
940.924265,95.712904,153.140646,-9418.149754
940.924893,76.570323,114.855485,-9418.149754
940.925521,76.570323,153.140646,-9418.149754
940.926148,76.570323,114.855485,-9418.149754
940.926776,133.998066,114.855485,-9418.149754
940.927403,133.998066,172.283227,-9418.149754
940.928031,133.998066,172.283227,-9418.149754
940.928658,76.570323,153.140646,-9418.149754
940.929286,38.285162,114.855485,-9418.149754
940.929913,114.855485,153.140646,-9360.722011
940.930541,76.570323,114.855485,-9418.149754
940.931169,133.998066,114.855485,-9418.149754
940.931796,172.283227,114.855485,-9379.864592
940.932424,76.570323,172.283227,-9360.722011
940.933051,133.998066,114.855485,-9360.722011
940.933679,95.712904,133.998066,-9341.579430
940.934306,76.570323,172.283227,-9456.434915
940.934934,76.570323,172.283227,-9418.149754
940.935561,38.285162,172.283227,-9418.149754
940.936189,76.570323,153.140646,-9418.149754
940.936817,114.855485,114.855485,-9399.007173
940.937444,133.998066,114.855485,-9418.149754
940.938072,95.712904,133.998066,-9360.722011
940.938699,76.570323,172.283227,-9418.149754
940.939327,76.570323,172.283227,-9456.434915
940.939954,133.998066,153.140646,-9437.292334
940.940582,76.570323,114.855485,-9418.149754
940.941209,153.140646,133.998066,-9379.864592
940.941837,95.712904,114.855485,-9418.149754
940.942465,133.998066,172.283227,-9418.149754
940.943092,133.998066,114.855485,-9456.434915
940.943720,95.712904,172.283227,-9360.722011
940.944347,76.570323,114.855485,-9418.149754
940.944975,153.140646,133.998066,-9399.007173
940.945602,76.570323,114.855485,-9437.292334
940.946230,76.570323,172.283227,-9360.722011
940.946857,76.570323,210.568389,-9418.149754
940.947485,133.998066,114.855485,-9418.149754
940.948113,76.570323,95.712904,-9399.007173
940.948740,76.570323,114.855485,-9418.149754
940.949368,133.998066,76.570323,-9379.864592
940.949995,133.998066,210.568389,-9399.007173
940.950623,95.712904,95.712904,-9399.007173
940.951250,38.285162,114.855485,-9418.149754
940.951878,114.855485,133.998066,-9360.722011
940.952505,76.570323,153.140646,-9418.149754
940.953133,133.998066,114.855485,-9418.149754
940.953761,133.998066,114.855485,-9418.149754
940.954388,133.998066,191.425808,-9456.434915
940.955016,133.998066,114.855485,-9418.149754
940.955643,57.427742,95.712904,-9399.007173
940.956271,95.712904,114.855485,-9418.149754
940.956898,133.998066,172.283227,-9418.149754
940.957526,76.570323,114.855485,-9418.149754
940.958153,38.285162,172.283227,-9360.722011
940.958781,38.285162,114.855485,-9418.149754
940.959409,76.570323,114.855485,-9456.434915
940.960036,114.855485,191.425808,-9360.722011
940.960664,38.285162,114.855485,-9418.149754
940.961291,38.285162,114.855485,-9418.149754
940.961919,133.998066,153.140646,-9418.149754
940.962546,76.570323,114.855485,-9418.149754
940.963174,172.283227,133.998066,-9360.722011
940.963801,133.998066,133.998066,-9399.007173
940.964429,114.855485,95.712904,-9399.007173
940.965057,153.140646,114.855485,-9418.149754
940.965684,153.140646,153.140646,-9437.292334
940.966312,153.140646,191.425808,-9399.007173
940.966939,133.998066,153.140646,-9418.149754
940.967567,114.855485,95.712904,-9399.007173
940.968194,133.998066,114.855485,-9437.292334
940.968822,38.285162,191.425808,-9418.149754
940.969449,76.570323,114.855485,-9456.434915
940.970077,76.570323,114.855485,-9418.149754
940.970705,57.427742,114.855485,-9399.007173
940.971332,57.427742,133.998066,-9360.722011
940.971960,76.570323,76.570323,-9379.864592
940.972587,114.855485,95.712904,-9399.007173
940.973215,133.998066,114.855485,-9418.149754
940.973842,95.712904,191.425808,-9360.722011
940.974470,38.285162,172.283227,-9437.292334
940.975097,76.570323,114.855485,-9418.149754
940.975725,114.855485,191.425808,-9379.864592
940.976353,95.712904,153.140646,-9360.722011
940.976980,114.855485,172.283227,-9360.722011
940.977608,153.140646,153.140646,-9399.007173
940.978235,133.998066,114.855485,-9418.149754
940.978863,38.285162,114.855485,-9418.149754
940.979490,57.427742,95.712904,-9399.007173
940.980118,172.283227,76.570323,-9418.149754
940.980745,38.285162,114.855485,-9418.149754
940.981373,76.570323,172.283227,-9418.149754
940.982001,114.855485,191.425808,-9360.722011
940.982628,38.285162,153.140646,-9418.149754
940.983256,114.855485,153.140646,-9360.722011
940.983883,76.570323,114.855485,-9456.434915
940.984511,38.285162,114.855485,-9456.434915
940.985138,76.570323,114.855485,-9418.149754
940.985766,57.427742,133.998066,-9360.722011
940.986393,38.285162,114.855485,-9456.434915
940.987021,133.998066,114.855485,-9418.149754
940.987649,133.998066,114.855485,-9418.149754
940.988276,133.998066,153.140646,-9399.007173
940.988904,95.712904,95.712904,-9399.007173
940.989531,57.427742,133.998066,-9360.722011
940.990159,133.998066,114.855485,-9418.149754
940.990786,76.570323,114.855485,-9437.292334
940.991414,38.285162,114.855485,-9456.434915
940.992041,95.712904,95.712904,-9399.007173
940.992669,76.570323,114.855485,-9418.149754
940.993297,38.285162,114.855485,-9418.149754
940.993924,133.998066,172.283227,-9418.149754
940.994552,76.570323,210.568389,-9418.149754
940.995179,114.855485,133.998066,-9360.722011
940.995807,38.285162,210.568389,-9418.149754
940.996434,38.285162,153.140646,-9418.149754
940.997062,133.998066,153.140646,-9418.149754
940.997689,57.427742,114.855485,-9418.149754
940.998317,38.285162,191.425808,-9418.149754
940.998945,114.855485,95.712904,-9399.007173
940.999572,38.285162,114.855485,-9437.292334
941.000200,76.570323,114.855485,-9437.292334
941.000827,133.998066,76.570323,-9379.864592
941.001455,95.712904,95.712904,-9399.007173
941.002082,76.570323,114.855485,-9418.149754
941.002710,133.998066,76.570323,-9379.864592
941.003337,76.570323,114.855485,-9456.434915
941.003965,76.570323,114.855485,-9418.149754
941.004593,133.998066,172.283227,-9399.007173
941.005220,153.140646,210.568389,-9437.292334
941.005848,76.570323,172.283227,-9418.149754
941.006475,76.570323,114.855485,-9418.149754
941.007103,114.855485,95.712904,-9399.007173
941.007730,133.998066,210.568389,-9475.577496
941.008358,133.998066,114.855485,-9418.149754
941.008985,172.283227,114.855485,-9379.864592
941.009613,114.855485,95.712904,-9379.864592
941.010241,95.712904,133.998066,-9341.579430
941.010868,114.855485,95.712904,-9399.007173
941.011496,95.712904,114.855485,-9418.149754
941.012123,76.570323,114.855485,-9360.722011
941.012751,76.570323,172.283227,-9418.149754
941.013378,38.285162,114.855485,-9475.577496
941.014006,133.998066,153.140646,-9418.149754
941.014633,76.570323,153.140646,-9418.149754
941.015261,76.570323,153.140646,-9418.149754
941.015889,114.855485,76.570323,-9418.149754
941.016516,153.140646,133.998066,-9399.007173
941.017144,76.570323,76.570323,-9379.864592
941.017771,95.712904,133.998066,-9360.722011
941.018399,38.285162,114.855485,-9456.434915
941.019026,133.998066,114.855485,-9418.149754
941.019654,95.712904,95.712904,-9399.007173
941.020281,95.712904,114.855485,-9418.149754
941.020909,133.998066,172.283227,-9437.292334
941.021537,76.570323,114.855485,-9418.149754
941.022164,95.712904,133.998066,-9360.722011
941.022792,76.570323,153.140646,-9437.292334
941.023419,76.570323,114.855485,-9418.149754
941.024047,95.712904,114.855485,-9418.149754
941.024674,76.570323,114.855485,-9360.722011
941.025302,76.570323,210.568389,-9418.149754
941.025929,95.712904,191.425808,-9360.722011
941.026557,76.570323,114.855485,-9456.434915
941.027185,76.570323,114.855485,-9456.434915
941.027812,76.570323,114.855485,-9418.149754
941.028440,76.570323,210.568389,-9418.149754
941.029067,95.712904,210.568389,-9418.149754
941.029695,153.140646,133.998066,-9379.864592
941.030322,76.570323,114.855485,-9418.149754
941.030950,38.285162,114.855485,-9418.149754
941.031577,133.998066,229.710970,-9418.149754
941.032205,38.285162,153.140646,-9418.149754
941.032832,153.140646,210.568389,-9418.149754
941.033460,76.570323,210.568389,-9360.722011
941.034088,57.427742,210.568389,-9418.149754
941.034715,133.998066,172.283227,-9494.720077
941.035343,76.570323,172.283227,-9360.722011
941.035970,133.998066,114.855485,-9456.434915
941.036598,76.570323,172.283227,-9418.149754
941.037225,172.283227,114.855485,-9399.007173
941.037853,95.712904,114.855485,-9418.149754
941.038480,76.570323,172.283227,-9418.149754
941.039108,114.855485,191.425808,-9360.722011
941.039736,76.570323,210.568389,-9418.149754
941.040363,133.998066,114.855485,-9418.149754
941.040991,76.570323,114.855485,-9418.149754
941.041618,76.570323,153.140646,-9418.149754
941.042246,114.855485,114.855485,-9399.007173
941.042873,76.570323,114.855485,-9418.149754
941.043501,153.140646,133.998066,-9437.292334
941.044128,76.570323,114.855485,-9418.149754
941.044756,133.998066,133.998066,-9399.007173
941.045383,76.570323,114.855485,-9418.149754
941.046011,133.998066,114.855485,-9437.292334
941.046639,76.570323,114.855485,-9418.149754
941.047266,38.285162,172.283227,-9437.292334
941.047894,133.998066,210.568389,-9418.149754
941.048521,153.140646,153.140646,-9399.007173
941.049149,153.140646,191.425808,-9399.007173
941.049776,57.427742,153.140646,-9360.722011
941.050404,153.140646,153.140646,-9399.007173
941.051031,76.570323,114.855485,-9437.292334
941.051659,38.285162,114.855485,-9418.149754
941.052286,76.570323,114.855485,-9418.149754
941.052914,133.998066,114.855485,-9418.149754
941.053542,76.570323,114.855485,-9399.007173
941.054169,133.998066,114.855485,-9418.149754
941.054797,133.998066,114.855485,-9437.292334
941.055424,57.427742,153.140646,-9418.149754
941.056052,133.998066,114.855485,-9360.722011
941.056679,133.998066,95.712904,-9360.722011
941.057307,76.570323,114.855485,-9437.292334
941.057934,19.142581,114.855485,-9418.149754
941.058562,133.998066,229.710970,-9456.434915
941.059189,76.570323,191.425808,-9418.149754
941.059817,38.285162,172.283227,-9475.577496
941.060445,38.285162,153.140646,-9418.149754
941.061072,38.285162,133.998066,-9399.007173
941.061700,38.285162,172.283227,-9456.434915
941.062327,133.998066,153.140646,-9418.149754
941.062955,133.998066,172.283227,-9418.149754
941.063582,133.998066,114.855485,-9418.149754
941.064210,114.855485,248.853550,-9360.722011
941.064837,76.570323,114.855485,-9418.149754
941.065465,133.998066,114.855485,-9437.292334
941.066092,76.570323,172.283227,-9418.149754
941.066720,133.998066,172.283227,-9418.149754
941.067348,133.998066,229.710970,-9418.149754
941.067975,95.712904,153.140646,-9360.722011
941.068603,76.570323,172.283227,-9437.292334
941.069230,95.712904,114.855485,-9418.149754
941.069858,38.285162,172.283227,-9418.149754
941.070485,76.570323,172.283227,-9418.149754
941.071113,172.283227,153.140646,-9379.864592
941.071740,76.570323,172.283227,-9418.149754
941.072368,95.712904,153.140646,-9418.149754
941.072996,76.570323,76.570323,-9379.864592
941.073623,133.998066,172.283227,-9360.722011
941.074251,76.570323,153.140646,-9418.149754
941.074878,133.998066,172.283227,-9456.434915
941.075506,95.712904,95.712904,-9399.007173
941.076133,114.855485,191.425808,-9360.722011
941.076761,76.570323,172.283227,-9437.292334
941.077388,76.570323,153.140646,-9437.292334
941.078016,95.712904,95.712904,-9456.434915
941.078643,95.712904,133.998066,-9418.149754
941.079271,76.570323,114.855485,-9418.149754
941.079899,95.712904,153.140646,-9418.149754
941.080526,0.000000,114.855485,-9456.434915
941.081154,133.998066,210.568389,-9418.149754
941.081781,76.570323,229.710970,-9418.149754
941.082409,133.998066,229.710970,-9418.149754
941.083036,133.998066,210.568389,-9418.149754
941.083664,133.998066,153.140646,-9418.149754
941.084291,95.712904,95.712904,-9437.292334
941.084919,38.285162,114.855485,-9418.149754
941.085546,76.570323,114.855485,-9418.149754
941.086174,133.998066,210.568389,-9418.149754
941.086802,76.570323,114.855485,-9418.149754
941.087429,76.570323,172.283227,-9418.149754
941.088057,76.570323,114.855485,-9456.434915
941.088684,133.998066,114.855485,-9418.149754
941.089312,133.998066,114.855485,-9418.149754
941.089939,76.570323,114.855485,-9418.149754
941.090567,76.570323,172.283227,-9418.149754
941.091194,95.712904,133.998066,-9360.722011
941.091822,76.570323,114.855485,-9418.149754
941.092449,76.570323,114.855485,-9418.149754
941.093077,133.998066,153.140646,-9418.149754
941.093705,38.285162,114.855485,-9360.722011
941.094332,133.998066,114.855485,-9456.434915
941.094960,95.712904,153.140646,-9418.149754
941.095587,133.998066,133.998066,-9399.007173
941.096215,76.570323,210.568389,-9456.434915
941.096842,133.998066,172.283227,-9418.149754
941.097470,133.998066,153.140646,-9360.722011
941.098097,38.285162,172.283227,-9418.149754
941.098725,76.570323,172.283227,-9418.149754
941.099352,133.998066,114.855485,-9418.149754
941.099980,76.570323,114.855485,-9418.149754
941.100608,76.570323,172.283227,-9418.149754
941.101235,38.285162,172.283227,-9533.005238
941.101863,133.998066,114.855485,-9418.149754
941.102490,133.998066,172.283227,-9456.434915
941.103118,114.855485,95.712904,-9456.434915
941.103745,133.998066,114.855485,-9418.149754
941.104373,172.283227,114.855485,-9379.864592
941.105000,76.570323,153.140646,-9418.149754
941.105628,95.712904,133.998066,-9360.722011
941.106256,133.998066,210.568389,-9418.149754
941.106883,76.570323,210.568389,-9418.149754
941.107511,38.285162,114.855485,-9437.292334
941.108138,133.998066,133.998066,-9399.007173
941.108766,114.855485,114.855485,-9379.864592
941.109393,95.712904,133.998066,-9360.722011
941.110021,153.140646,95.712904,-9360.722011
941.110648,38.285162,76.570323,-9322.436850
941.111276,76.570323,153.140646,-9418.149754
941.111903,38.285162,153.140646,-9360.722011
941.112531,95.712904,133.998066,-9360.722011
941.113159,95.712904,114.855485,-9418.149754
941.113786,133.998066,153.140646,-9418.149754
941.114414,57.427742,153.140646,-9418.149754
941.115041,76.570323,114.855485,-9456.434915
941.115669,133.998066,133.998066,-9399.007173
941.116296,153.140646,153.140646,-9399.007173
941.116924,76.570323,191.425808,-9418.149754
941.117551,95.712904,133.998066,-9360.722011
941.118179,76.570323,114.855485,-9418.149754
941.118806,133.998066,114.855485,-9418.149754
941.119434,133.998066,114.855485,-9418.149754
941.120062,133.998066,114.855485,-9456.434915
941.120689,95.712904,95.712904,-9456.434915
941.121317,76.570323,114.855485,-9475.577496
941.121944,133.998066,114.855485,-9418.149754
941.122572,95.712904,153.140646,-9360.722011
941.123199,76.570323,114.855485,-9418.149754
941.123827,133.998066,114.855485,-9418.149754
941.124454,76.570323,133.998066,-9360.722011
941.125082,172.283227,76.570323,-9418.149754
941.125709,95.712904,76.570323,-9379.864592
941.126337,76.570323,114.855485,-9360.722011
941.126964,76.570323,114.855485,-9418.149754
941.127592,114.855485,133.998066,-9533.005238
941.128219,133.998066,229.710970,-9475.577496
941.128846,76.570323,114.855485,-9456.434915
941.129474,76.570323,172.283227,-9418.149754
941.130101,38.285162,114.855485,-9418.149754
941.130729,133.998066,114.855485,-9418.149754
941.131356,114.855485,133.998066,-9360.722011
941.131983,95.712904,95.712904,-9379.864592
941.132611,114.855485,114.855485,-9399.007173
941.133238,38.285162,172.283227,-9418.149754
941.133866,76.570323,229.710970,-9437.292334
941.134493,133.998066,210.568389,-9399.007173
941.135120,133.998066,114.855485,-9418.149754
941.135748,38.285162,114.855485,-9418.149754
941.136375,133.998066,114.855485,-9418.149754
941.137003,38.285162,172.283227,-9418.149754
941.137630,95.712904,153.140646,-9418.149754
941.138257,95.712904,95.712904,-9456.434915
941.138885,57.427742,95.712904,-9399.007173
941.139512,133.998066,172.283227,-9360.722011
941.140140,114.855485,153.140646,-9360.722011
941.140767,114.855485,133.998066,-9360.722011
941.141394,133.998066,133.998066,-9437.292334
941.142022,76.570323,172.283227,-9418.149754
941.142649,95.712904,191.425808,-9341.579430
941.143277,133.998066,210.568389,-9418.149754
941.143904,76.570323,114.855485,-9418.149754
941.144531,76.570323,172.283227,-9418.149754
941.145159,76.570323,172.283227,-9418.149754
941.145786,76.570323,114.855485,-9418.149754
941.146414,114.855485,133.998066,-9360.722011
941.147041,133.998066,133.998066,-9399.007173
941.147668,114.855485,153.140646,-9360.722011
941.148296,133.998066,114.855485,-9418.149754
941.148923,76.570323,172.283227,-9418.149754
941.149551,114.855485,133.998066,-9360.722011
941.150178,76.570323,172.283227,-9418.149754
941.150805,133.998066,210.568389,-9418.149754
941.151433,133.998066,114.855485,-9418.149754
941.152060,57.427742,153.140646,-9360.722011
941.152688,76.570323,114.855485,-9360.722011
941.153315,172.283227,172.283227,-9379.864592
941.153942,76.570323,153.140646,-9418.149754
941.154570,76.570323,114.855485,-9418.149754
941.155197,76.570323,114.855485,-9418.149754
941.155825,133.998066,172.283227,-9418.149754
941.156452,153.140646,153.140646,-9437.292334
941.157079,38.285162,153.140646,-9456.434915
941.157707,95.712904,114.855485,-9437.292334
941.158334,133.998066,133.998066,-9399.007173
941.158962,38.285162,210.568389,-9418.149754
941.159589,76.570323,191.425808,-9437.292334
941.160216,95.712904,95.712904,-9399.007173
941.160844,57.427742,191.425808,-9360.722011
941.161471,38.285162,153.140646,-9418.149754
941.162098,133.998066,133.998066,-9399.007173
941.162726,76.570323,210.568389,-9360.722011
941.163353,133.998066,114.855485,-9418.149754
941.163981,114.855485,114.855485,-9379.864592
941.164608,76.570323,114.855485,-9418.149754
941.165235,0.000000,153.140646,-9360.722011
941.165863,76.570323,172.283227,-9360.722011
941.166490,76.570323,114.855485,-9456.434915
941.167118,95.712904,95.712904,-9399.007173
941.167745,133.998066,153.140646,-9418.149754
941.168372,38.285162,153.140646,-9418.149754
941.169000,133.998066,210.568389,-9418.149754
941.169627,76.570323,114.855485,-9456.434915
941.170255,153.140646,153.140646,-9399.007173
941.170882,76.570323,114.855485,-9437.292334
941.171509,38.285162,76.570323,-9379.864592
941.172137,133.998066,114.855485,-9456.434915
941.172764,76.570323,153.140646,-9456.434915
941.173392,38.285162,172.283227,-9418.149754
941.174019,114.855485,76.570323,-9418.149754
941.174646,133.998066,114.855485,-9418.149754
941.175274,133.998066,114.855485,-9418.149754
941.175901,133.998066,133.998066,-9399.007173
941.176529,133.998066,114.855485,-9456.434915
941.177156,76.570323,133.998066,-9399.007173
941.177783,57.427742,114.855485,-9418.149754
941.178411,95.712904,114.855485,-9399.007173
941.179038,95.712904,172.283227,-9418.149754
941.179666,76.570323,114.855485,-9418.149754
941.180293,76.570323,114.855485,-9418.149754
941.180920,133.998066,76.570323,-9379.864592
941.181548,114.855485,210.568389,-9399.007173
941.182175,172.283227,114.855485,-9322.436850
941.182803,114.855485,95.712904,-9399.007173
941.183430,76.570323,114.855485,-9418.149754
941.184057,133.998066,114.855485,-9418.149754
941.184685,153.140646,133.998066,-9399.007173
941.185312,114.855485,95.712904,-9399.007173
941.185940,38.285162,114.855485,-9418.149754
941.186567,57.427742,133.998066,-9360.722011
941.187194,95.712904,153.140646,-9379.864592
941.187822,38.285162,210.568389,-9418.149754
941.188449,95.712904,133.998066,-9360.722011
941.189077,76.570323,114.855485,-9418.149754
941.189704,133.998066,114.855485,-9418.149754
941.190331,153.140646,133.998066,-9456.434915
941.190959,76.570323,172.283227,-9418.149754
941.191586,95.712904,210.568389,-9418.149754
941.192214,133.998066,114.855485,-9418.149754
941.192841,153.140646,133.998066,-9399.007173
941.193468,95.712904,95.712904,-9494.720077
941.194096,153.140646,172.283227,-9399.007173
941.194723,76.570323,210.568389,-9418.149754
941.195351,76.570323,114.855485,-9418.149754
941.195978,76.570323,114.855485,-9418.149754
941.196605,133.998066,114.855485,-9418.149754
941.197233,133.998066,114.855485,-9418.149754
941.197860,76.570323,114.855485,-9418.149754
941.198488,133.998066,153.140646,-9418.149754
941.199115,95.712904,114.855485,-9418.149754
941.199742,38.285162,172.283227,-9418.149754
941.200370,95.712904,114.855485,-9418.149754
941.200997,38.285162,114.855485,-9418.149754
941.201624,76.570323,114.855485,-9418.149754
941.202252,76.570323,172.283227,-9475.577496
941.202879,133.998066,114.855485,-9418.149754
941.203507,133.998066,114.855485,-9418.149754
941.204134,38.285162,114.855485,-9456.434915
941.204761,133.998066,114.855485,-9418.149754
941.205389,76.570323,114.855485,-9456.434915
941.206016,133.998066,114.855485,-9418.149754
941.206644,153.140646,133.998066,-9399.007173
941.207271,114.855485,133.998066,-9360.722011
941.207898,133.998066,172.283227,-9437.292334
941.208526,95.712904,172.283227,-9341.579430
941.209153,153.140646,133.998066,-9399.007173
941.209781,38.285162,114.855485,-9456.434915
941.210408,76.570323,172.283227,-9418.149754
941.211035,95.712904,133.998066,-9360.722011
941.211663,76.570323,114.855485,-9418.149754
941.212290,133.998066,153.140646,-9399.007173
941.212918,172.283227,76.570323,-9418.149754
941.213545,153.140646,133.998066,-9399.007173
941.214172,133.998066,153.140646,-9399.007173
941.214800,38.285162,153.140646,-9418.149754
941.215427,38.285162,172.283227,-9418.149754
941.216055,95.712904,114.855485,-9418.149754
941.216682,76.570323,172.283227,-9475.577496
941.217309,76.570323,76.570323,-9399.007173
941.217937,95.712904,153.140646,-9360.722011
941.218564,114.855485,153.140646,-9379.864592
941.219192,76.570323,172.283227,-9418.149754
941.219819,38.285162,114.855485,-9418.149754
941.220446,76.570323,114.855485,-9418.149754
941.221074,95.712904,133.998066,-9360.722011
941.221701,38.285162,114.855485,-9360.722011
941.222329,95.712904,114.855485,-9418.149754
941.222956,76.570323,114.855485,-9418.149754
941.223583,76.570323,172.283227,-9418.149754
941.224211,38.285162,191.425808,-9418.149754
941.224838,38.285162,76.570323,-9379.864592
941.225466,76.570323,153.140646,-9418.149754
941.226093,133.998066,114.855485,-9418.149754
941.226720,95.712904,114.855485,-9418.149754
941.227348,57.427742,133.998066,-9360.722011
941.227975,57.427742,114.855485,-9418.149754
941.228602,133.998066,114.855485,-9418.149754
941.229230,133.998066,133.998066,-9399.007173
941.229857,76.570323,114.855485,-9418.149754
941.230484,95.712904,114.855485,-9418.149754
941.231112,0.000000,133.998066,-9360.722011
941.231739,76.570323,114.855485,-9437.292334
941.232366,133.998066,172.283227,-9399.007173
941.232994,133.998066,114.855485,-9418.149754
941.233621,172.283227,153.140646,-9379.864592
941.234248,95.712904,191.425808,-9360.722011
941.234876,133.998066,172.283227,-9360.722011
941.235503,133.998066,172.283227,-9418.149754
941.236130,133.998066,153.140646,-9399.007173
941.236758,76.570323,210.568389,-9418.149754
941.237385,95.712904,133.998066,-9360.722011
941.238012,76.570323,114.855485,-9418.149754
941.238640,57.427742,153.140646,-9360.722011
941.239267,38.285162,114.855485,-9456.434915
941.239894,133.998066,76.570323,-9379.864592
941.240522,133.998066,114.855485,-9456.434915
941.241149,38.285162,114.855485,-9418.149754
941.241776,133.998066,133.998066,-9399.007173
941.242404,57.427742,153.140646,-9418.149754
941.243031,38.285162,114.855485,-9418.149754
941.243658,38.285162,114.855485,-9456.434915
941.244286,133.998066,153.140646,-9399.007173
941.244913,133.998066,153.140646,-9418.149754
941.245540,133.998066,114.855485,-9437.292334
941.246168,76.570323,114.855485,-9418.149754
941.246795,133.998066,153.140646,-9418.149754
941.247422,95.712904,95.712904,-9456.434915
941.248050,57.427742,172.283227,-9341.579430
941.248677,76.570323,153.140646,-9437.292334
941.249305,114.855485,76.570323,-9418.149754
941.249932,114.855485,95.712904,-9399.007173
941.250559,95.712904,153.140646,-9418.149754
941.251187,76.570323,114.855485,-9418.149754
941.251814,38.285162,114.855485,-9437.292334
941.252441,38.285162,114.855485,-9418.149754
941.253069,0.000000,133.998066,-9360.722011
941.253696,76.570323,114.855485,-9418.149754
941.254323,95.712904,133.998066,-9341.579430
941.254951,76.570323,114.855485,-9418.149754
941.255578,38.285162,210.568389,-9418.149754
941.256205,133.998066,114.855485,-9418.149754
941.256833,76.570323,153.140646,-9418.149754
941.257460,76.570323,114.855485,-9418.149754
941.258087,76.570323,114.855485,-9437.292334
941.258715,133.998066,114.855485,-9437.292334
941.259342,76.570323,114.855485,-9418.149754
941.259969,95.712904,95.712904,-9399.007173
941.260597,76.570323,114.855485,-9418.149754
941.261224,76.570323,172.283227,-9418.149754
941.261851,76.570323,191.425808,-9418.149754
941.262479,133.998066,114.855485,-9437.292334
941.263106,76.570323,114.855485,-9418.149754
941.263733,76.570323,172.283227,-9418.149754
941.264361,76.570323,114.855485,-9418.149754
941.264988,95.712904,133.998066,-9360.722011
941.265615,95.712904,95.712904,-9399.007173
941.266243,38.285162,114.855485,-9418.149754
941.266870,76.570323,114.855485,-9418.149754
941.267497,38.285162,114.855485,-9418.149754
941.268125,76.570323,114.855485,-9418.149754
941.268752,133.998066,172.283227,-9399.007173
941.269379,76.570323,114.855485,-9418.149754
941.270007,153.140646,133.998066,-9379.864592
941.270634,172.283227,114.855485,-9379.864592
941.271261,76.570323,114.855485,-9418.149754
941.271889,76.570323,114.855485,-9418.149754
941.272516,76.570323,114.855485,-9418.149754
941.273143,57.427742,133.998066,-9360.722011
941.273771,114.855485,76.570323,-9418.149754
941.274398,133.998066,114.855485,-9418.149754
941.275025,133.998066,76.570323,-9379.864592
941.275653,172.283227,210.568389,-9322.436850
941.276280,95.712904,153.140646,-9418.149754
941.276907,95.712904,95.712904,-9399.007173
941.277535,38.285162,114.855485,-9418.149754
941.278162,133.998066,114.855485,-9418.149754
941.278789,95.712904,153.140646,-9475.577496
941.279417,153.140646,153.140646,-9399.007173
941.280044,76.570323,210.568389,-9418.149754
941.280671,76.570323,114.855485,-9437.292334
941.281299,76.570323,210.568389,-9418.149754
941.281926,95.712904,191.425808,-9418.149754
941.282553,133.998066,114.855485,-9456.434915
941.283181,172.283227,133.998066,-9437.292334
941.283808,172.283227,76.570323,-9437.292334
941.284435,133.998066,172.283227,-9418.149754
941.285063,95.712904,153.140646,-9418.149754
941.285690,133.998066,114.855485,-9418.149754
941.286317,133.998066,191.425808,-9437.292334
941.286945,133.998066,114.855485,-9456.434915
941.287572,38.285162,114.855485,-9418.149754
941.288199,76.570323,114.855485,-9418.149754
941.288827,114.855485,133.998066,-9360.722011
941.289454,153.140646,172.283227,-9399.007173
941.290082,95.712904,95.712904,-9399.007173
941.290709,76.570323,114.855485,-9418.149754
941.291336,38.285162,114.855485,-9418.149754
941.291964,76.570323,114.855485,-9418.149754
941.292591,133.998066,114.855485,-9418.149754
941.293218,133.998066,210.568389,-9418.149754
941.293846,95.712904,172.283227,-9360.722011
941.294473,76.570323,114.855485,-9418.149754
941.295100,133.998066,172.283227,-9399.007173
941.295728,133.998066,133.998066,-9456.434915
941.296355,76.570323,210.568389,-9494.720077
941.296982,133.998066,210.568389,-9418.149754
941.297610,95.712904,114.855485,-9456.434915
941.298237,133.998066,133.998066,-9399.007173
941.298864,95.712904,114.855485,-9418.149754
941.299492,133.998066,153.140646,-9418.149754
941.300119,133.998066,172.283227,-9399.007173
941.300746,95.712904,172.283227,-9360.722011
941.301374,76.570323,172.283227,-9418.149754
941.302001,95.712904,95.712904,-9399.007173
941.302628,172.283227,114.855485,-9399.007173
941.303256,76.570323,114.855485,-9418.149754
941.303883,95.712904,172.283227,-9418.149754
941.304510,133.998066,153.140646,-9418.149754
941.305138,133.998066,133.998066,-9437.292334
941.305765,57.427742,133.998066,-9360.722011
941.306392,95.712904,133.998066,-9360.722011
941.307020,172.283227,191.425808,-9379.864592
941.307647,57.427742,172.283227,-9418.149754
941.308274,76.570323,153.140646,-9418.149754
941.308902,133.998066,172.283227,-9418.149754
941.309529,76.570323,114.855485,-9418.149754
941.310156,153.140646,133.998066,-9399.007173
941.310784,114.855485,95.712904,-9399.007173
941.311411,38.285162,114.855485,-9418.149754
941.312038,38.285162,114.855485,-9418.149754
941.312666,133.998066,114.855485,-9418.149754
941.313293,38.285162,114.855485,-9418.149754
941.313920,38.285162,153.140646,-9418.149754
941.314548,76.570323,76.570323,-9379.864592
941.315175,95.712904,133.998066,-9360.722011
941.315802,95.712904,172.283227,-9360.722011
941.316430,133.998066,114.855485,-9418.149754
941.317057,172.283227,76.570323,-9418.149754
941.317684,133.998066,114.855485,-9418.149754
941.318312,95.712904,172.283227,-9418.149754
941.318939,133.998066,153.140646,-9418.149754
941.319566,76.570323,172.283227,-9437.292334
941.320194,76.570323,210.568389,-9418.149754
941.320821,76.570323,114.855485,-9418.149754
941.321448,57.427742,95.712904,-9494.720077
941.322076,76.570323,114.855485,-9456.434915
941.322703,57.427742,133.998066,-9360.722011
941.323330,114.855485,133.998066,-9360.722011
941.323958,172.283227,76.570323,-9418.149754
941.324585,76.570323,114.855485,-9418.149754
941.325212,95.712904,114.855485,-9418.149754
941.325840,153.140646,114.855485,-9418.149754
941.326467,172.283227,114.855485,-9379.864592
941.327095,76.570323,114.855485,-9475.577496
941.327722,76.570323,114.855485,-9418.149754
941.328349,76.570323,172.283227,-9418.149754
941.328977,76.570323,114.855485,-9456.434915
941.329604,114.855485,95.712904,-9399.007173
941.330231,114.855485,133.998066,-9360.722011
941.330859,76.570323,114.855485,-9418.149754
941.331486,76.570323,153.140646,-9379.864592
941.332114,76.570323,114.855485,-9360.722011
941.332741,133.998066,114.855485,-9418.149754
941.333368,76.570323,114.855485,-9418.149754
941.333996,95.712904,95.712904,-9399.007173
941.334623,95.712904,114.855485,-9399.007173
941.335250,133.998066,114.855485,-9360.722011
941.335878,153.140646,172.283227,-9399.007173
941.336505,133.998066,114.855485,-9418.149754
941.337133,95.712904,114.855485,-9399.007173
941.337760,38.285162,114.855485,-9437.292334
941.338387,153.140646,133.998066,-9399.007173
941.339015,172.283227,114.855485,-9379.864592
941.339642,76.570323,210.568389,-9418.149754
941.340269,133.998066,114.855485,-9418.149754
941.340897,153.140646,133.998066,-9399.007173
941.341524,76.570323,114.855485,-9437.292334
941.342152,38.285162,114.855485,-9418.149754
941.342779,133.998066,114.855485,-9418.149754
941.343406,133.998066,114.855485,-9418.149754
941.344034,133.998066,114.855485,-9418.149754
941.344661,133.998066,210.568389,-9437.292334
941.345288,95.712904,95.712904,-9494.720077
941.345916,76.570323,172.283227,-9418.149754
941.346543,95.712904,114.855485,-9418.149754
941.347171,153.140646,133.998066,-9456.434915
941.347798,95.712904,172.283227,-9360.722011
941.348425,95.712904,114.855485,-9418.149754
941.349053,76.570323,114.855485,-9418.149754
941.349680,133.998066,172.283227,-9418.149754
941.350307,133.998066,114.855485,-9360.722011
941.350935,38.285162,172.283227,-9418.149754
941.351562,133.998066,114.855485,-9437.292334
941.352190,76.570323,210.568389,-9418.149754
941.352817,76.570323,153.140646,-9456.434915
941.353444,114.855485,133.998066,-9360.722011
941.354072,172.283227,172.283227,-9360.722011
941.354699,133.998066,153.140646,-9418.149754
941.355327,153.140646,153.140646,-9494.720077
941.355954,133.998066,153.140646,-9418.149754
941.356581,76.570323,114.855485,-9418.149754
941.357209,76.570323,153.140646,-9418.149754
941.357836,76.570323,114.855485,-9418.149754
941.358463,114.855485,133.998066,-9418.149754
941.359091,95.712904,191.425808,-9418.149754
941.359718,76.570323,248.853550,-9379.864592
941.360346,95.712904,172.283227,-9360.722011
941.360973,76.570323,114.855485,-9418.149754
941.361600,76.570323,172.283227,-9418.149754
941.362228,76.570323,114.855485,-9418.149754
941.362855,76.570323,114.855485,-9418.149754
941.363482,172.283227,210.568389,-9379.864592
941.364110,133.998066,153.140646,-9418.149754
941.364737,133.998066,114.855485,-9475.577496
941.365365,133.998066,114.855485,-9418.149754
941.365992,57.427742,114.855485,-9418.149754
941.366619,57.427742,76.570323,-9418.149754
941.367247,114.855485,95.712904,-9399.007173
941.367874,114.855485,95.712904,-9399.007173
941.368501,76.570323,114.855485,-9418.149754
941.369129,133.998066,114.855485,-9418.149754
941.369756,133.998066,114.855485,-9418.149754
941.370384,133.998066,153.140646,-9418.149754
941.371011,57.427742,95.712904,-9399.007173
941.371638,38.285162,114.855485,-9418.149754
941.372266,95.712904,133.998066,-9341.579430
941.372893,133.998066,114.855485,-9418.149754
941.373520,95.712904,95.712904,-9399.007173
941.374148,114.855485,95.712904,-9437.292334
941.374775,38.285162,114.855485,-9456.434915
941.375403,153.140646,133.998066,-9399.007173
941.376030,76.570323,114.855485,-9475.577496
941.376657,133.998066,114.855485,-9418.149754
941.377285,76.570323,172.283227,-9418.149754
941.377912,114.855485,133.998066,-9360.722011
941.378539,133.998066,210.568389,-9418.149754
941.379167,76.570323,172.283227,-9418.149754
941.379794,114.855485,153.140646,-9360.722011
941.380422,76.570323,153.140646,-9360.722011
941.381049,57.427742,114.855485,-9418.149754
941.381676,133.998066,114.855485,-9418.149754
941.382304,114.855485,95.712904,-9399.007173
941.382931,38.285162,153.140646,-9418.149754
941.383558,95.712904,95.712904,-9399.007173
941.384186,76.570323,153.140646,-9418.149754
941.384813,133.998066,153.140646,-9418.149754
941.385441,76.570323,76.570323,-9379.864592
941.386068,172.283227,76.570323,-9418.149754
941.386695,76.570323,114.855485,-9418.149754
941.387323,76.570323,153.140646,-9418.149754
941.387950,76.570323,114.855485,-9418.149754
941.388577,95.712904,133.998066,-9360.722011
941.389205,76.570323,114.855485,-9418.149754
941.389832,76.570323,114.855485,-9418.149754
941.390460,76.570323,153.140646,-9418.149754
941.391087,57.427742,153.140646,-9360.722011
941.391714,57.427742,133.998066,-9341.579430
941.392342,95.712904,210.568389,-9360.722011
941.392969,76.570323,153.140646,-9437.292334
941.393597,57.427742,95.712904,-9437.292334
941.394224,133.998066,133.998066,-9399.007173
941.394851,95.712904,95.712904,-9399.007173
941.395479,95.712904,114.855485,-9360.722011
941.396106,172.283227,114.855485,-9322.436850
941.396733,76.570323,114.855485,-9418.149754
941.397361,38.285162,114.855485,-9418.149754
941.397988,76.570323,114.855485,-9418.149754
941.398616,76.570323,114.855485,-9418.149754
941.399243,76.570323,114.855485,-9456.434915
941.399870,114.855485,95.712904,-9399.007173
941.400498,114.855485,95.712904,-9399.007173
941.401125,76.570323,114.855485,-9418.149754
941.401752,57.427742,95.712904,-9379.864592
941.402380,114.855485,191.425808,-9360.722011
941.403007,76.570323,114.855485,-9418.149754
941.403635,95.712904,95.712904,-9456.434915
941.404262,76.570323,153.140646,-9418.149754
941.404889,38.285162,114.855485,-9418.149754
941.405517,76.570323,114.855485,-9418.149754
941.406144,133.998066,114.855485,-9418.149754
941.406771,76.570323,114.855485,-9418.149754
941.407399,133.998066,210.568389,-9418.149754
941.408026,133.998066,191.425808,-9418.149754
941.408654,38.285162,114.855485,-9418.149754
941.409281,95.712904,95.712904,-9399.007173
941.409908,76.570323,172.283227,-9418.149754
941.410536,76.570323,114.855485,-9418.149754
941.411163,133.998066,114.855485,-9437.292334
941.411790,133.998066,114.855485,-9456.434915
941.412418,133.998066,153.140646,-9418.149754
941.413045,95.712904,210.568389,-9437.292334
941.413673,76.570323,172.283227,-9418.149754
941.414300,76.570323,191.425808,-9322.436850
941.414927,114.855485,95.712904,-9399.007173
941.415555,76.570323,133.998066,-9399.007173
941.416182,76.570323,172.283227,-9418.149754
941.416809,76.570323,114.855485,-9418.149754
941.417437,95.712904,133.998066,-9418.149754
941.418064,95.712904,95.712904,-9399.007173
941.418692,114.855485,95.712904,-9399.007173
941.419319,76.570323,114.855485,-9418.149754
941.419946,76.570323,172.283227,-9418.149754
941.420574,76.570323,210.568389,-9418.149754
941.421201,133.998066,153.140646,-9399.007173
941.421828,133.998066,153.140646,-9399.007173
941.422456,76.570323,172.283227,-9418.149754
941.423083,76.570323,172.283227,-9456.434915
941.423711,38.285162,172.283227,-9437.292334
941.424338,57.427742,172.283227,-9456.434915
941.424965,76.570323,114.855485,-9418.149754
941.425593,153.140646,133.998066,-9399.007173
941.426220,133.998066,172.283227,-9418.149754
941.426848,133.998066,114.855485,-9418.149754
941.427475,114.855485,153.140646,-9360.722011
941.428102,210.568389,153.140646,-9399.007173
941.428729,76.570323,153.140646,-9418.149754
941.429357,95.712904,114.855485,-9437.292334
941.429984,133.998066,172.283227,-9418.149754
941.430611,133.998066,172.283227,-9418.149754
941.431239,76.570323,191.425808,-9418.149754
941.431866,133.998066,172.283227,-9399.007173
941.432493,76.570323,114.855485,-9456.434915
941.433120,114.855485,133.998066,-9360.722011
941.433748,133.998066,153.140646,-9399.007173
941.434375,114.855485,172.283227,-9360.722011
941.435002,114.855485,248.853550,-9360.722011
941.435630,133.998066,153.140646,-9418.149754
941.436257,76.570323,114.855485,-9418.149754
941.436884,133.998066,114.855485,-9418.149754
941.437511,38.285162,114.855485,-9418.149754
941.438139,133.998066,153.140646,-9418.149754
941.438766,95.712904,95.712904,-9456.434915
941.439393,153.140646,133.998066,-9399.007173
941.440021,76.570323,114.855485,-9418.149754
941.440648,19.142581,172.283227,-9437.292334
941.441275,76.570323,191.425808,-9437.292334
941.441902,76.570323,172.283227,-9418.149754
941.442530,133.998066,114.855485,-9418.149754
941.443157,153.140646,133.998066,-9399.007173
941.443784,76.570323,172.283227,-9360.722011
941.444412,38.285162,114.855485,-9418.149754
941.445039,76.570323,172.283227,-9418.149754
941.445666,76.570323,114.855485,-9418.149754
941.446293,95.712904,133.998066,-9360.722011
941.446921,133.998066,172.283227,-9418.149754
941.447548,153.140646,153.140646,-9418.149754
941.448175,153.140646,153.140646,-9399.007173
941.448803,95.712904,95.712904,-9399.007173
941.449430,95.712904,114.855485,-9418.149754
941.450057,76.570323,114.855485,-9418.149754
941.450684,76.570323,114.855485,-9418.149754
941.451312,76.570323,114.855485,-9418.149754
941.451939,38.285162,114.855485,-9418.149754
941.452566,133.998066,114.855485,-9418.149754
941.453194,76.570323,153.140646,-9418.149754
941.453821,76.570323,114.855485,-9418.149754
941.454448,133.998066,153.140646,-9418.149754
941.455075,95.712904,114.855485,-9437.292334
941.455703,76.570323,114.855485,-9418.149754
941.456330,95.712904,114.855485,-9418.149754
941.456957,76.570323,114.855485,-9456.434915
941.457585,114.855485,95.712904,-9399.007173
941.458212,76.570323,114.855485,-9418.149754
941.458839,133.998066,114.855485,-9360.722011
941.459466,38.285162,114.855485,-9418.149754
941.460094,95.712904,133.998066,-9360.722011
941.460721,95.712904,95.712904,-9399.007173
941.461348,133.998066,114.855485,-9418.149754
941.461976,57.427742,95.712904,-9379.864592
941.462603,95.712904,133.998066,-9360.722011
941.463230,38.285162,114.855485,-9437.292334
941.463857,114.855485,133.998066,-9360.722011
941.464485,133.998066,114.855485,-9418.149754
941.465112,76.570323,153.140646,-9437.292334
941.465739,38.285162,172.283227,-9437.292334
941.466367,95.712904,133.998066,-9360.722011
941.466994,76.570323,114.855485,-9418.149754
941.467621,114.855485,172.283227,-9360.722011
941.468248,133.998066,172.283227,-9456.434915
941.468876,76.570323,114.855485,-9418.149754
941.469503,76.570323,114.855485,-9418.149754
941.470130,76.570323,114.855485,-9418.149754
941.470758,133.998066,114.855485,-9418.149754
941.471385,153.140646,133.998066,-9437.292334
941.472012,133.998066,114.855485,-9418.149754
941.472639,38.285162,153.140646,-9360.722011
941.473267,133.998066,172.283227,-9418.149754
941.473894,133.998066,172.283227,-9418.149754
941.474521,133.998066,210.568389,-9437.292334
941.475149,133.998066,153.140646,-9418.149754
941.475776,133.998066,153.140646,-9437.292334
941.476403,95.712904,133.998066,-9360.722011
941.477030,95.712904,153.140646,-9341.579430
941.477658,114.855485,95.712904,-9399.007173
941.478285,133.998066,114.855485,-9418.149754
941.478912,76.570323,114.855485,-9418.149754
941.479540,133.998066,114.855485,-9418.149754
941.480167,76.570323,172.283227,-9456.434915
941.480794,114.855485,133.998066,-9418.149754
941.481421,133.998066,114.855485,-9456.434915
941.482049,76.570323,114.855485,-9418.149754
941.482676,133.998066,114.855485,-9437.292334
941.483303,133.998066,133.998066,-9399.007173
941.483931,38.285162,114.855485,-9437.292334
941.484558,57.427742,95.712904,-9399.007173
941.485185,76.570323,172.283227,-9360.722011
941.485813,76.570323,114.855485,-9494.720077
941.486440,114.855485,172.283227,-9360.722011
941.487067,114.855485,114.855485,-9379.864592
941.487694,76.570323,114.855485,-9418.149754
941.488322,76.570323,153.140646,-9418.149754
941.488949,76.570323,153.140646,-9418.149754
941.489576,133.998066,114.855485,-9437.292334
941.490204,38.285162,114.855485,-9437.292334
941.490831,133.998066,114.855485,-9418.149754
941.491458,114.855485,133.998066,-9341.579430
941.492085,133.998066,133.998066,-9456.434915
941.492713,19.142581,114.855485,-9418.149754
941.493340,38.285162,172.283227,-9418.149754
941.493967,95.712904,229.710970,-9418.149754
941.494595,153.140646,172.283227,-9437.292334
941.495222,133.998066,114.855485,-9418.149754
941.495849,76.570323,114.855485,-9418.149754
941.496476,95.712904,133.998066,-9360.722011
941.497104,76.570323,114.855485,-9456.434915
941.497731,133.998066,172.283227,-9418.149754
941.498358,95.712904,153.140646,-9418.149754
941.498986,76.570323,114.855485,-9418.149754
941.499613,95.712904,114.855485,-9418.149754
941.500240,76.570323,114.855485,-9418.149754
941.500867,133.998066,114.855485,-9456.434915
941.501495,76.570323,172.283227,-9418.149754
941.502122,76.570323,210.568389,-9418.149754
941.502749,133.998066,191.425808,-9456.434915
941.503377,76.570323,153.140646,-9437.292334
941.504004,133.998066,114.855485,-9437.292334
941.504631,172.283227,153.140646,-9379.864592
941.505258,114.855485,210.568389,-9379.864592
941.505886,95.712904,114.855485,-9399.007173
941.506513,76.570323,210.568389,-9418.149754
941.507140,38.285162,114.855485,-9418.149754
941.507768,76.570323,172.283227,-9418.149754
941.508395,76.570323,172.283227,-9437.292334
941.509022,76.570323,114.855485,-9418.149754
941.509649,76.570323,153.140646,-9418.149754
941.510277,172.283227,133.998066,-9437.292334
941.510904,38.285162,210.568389,-9456.434915
941.511531,38.285162,172.283227,-9418.149754
941.512159,76.570323,172.283227,-9418.149754
941.512786,76.570323,114.855485,-9418.149754
941.513413,76.570323,114.855485,-9418.149754
941.514040,38.285162,114.855485,-9418.149754
941.514668,76.570323,114.855485,-9437.292334
941.515295,133.998066,114.855485,-9418.149754
941.515922,133.998066,133.998066,-9437.292334
941.516550,38.285162,114.855485,-9418.149754
941.517177,133.998066,191.425808,-9399.007173
941.517804,114.855485,153.140646,-9418.149754
941.518431,76.570323,153.140646,-9418.149754
941.519059,172.283227,153.140646,-9322.436850
941.519686,153.140646,172.283227,-9399.007173
941.520313,133.998066,114.855485,-9418.149754
941.520941,76.570323,172.283227,-9418.149754
941.521568,76.570323,153.140646,-9456.434915
941.522195,76.570323,172.283227,-9418.149754
941.522822,95.712904,172.283227,-9418.149754
941.523450,76.570323,114.855485,-9418.149754
941.524077,95.712904,95.712904,-9399.007173
941.524704,153.140646,153.140646,-9399.007173
941.525332,114.855485,172.283227,-9360.722011
941.525959,133.998066,210.568389,-9418.149754
941.526586,133.998066,133.998066,-9399.007173
941.527213,38.285162,153.140646,-9437.292334
941.527841,133.998066,172.283227,-9418.149754
941.528468,76.570323,172.283227,-9418.149754
941.529095,76.570323,114.855485,-9418.149754
941.529722,133.998066,114.855485,-9437.292334
941.530350,95.712904,210.568389,-9418.149754
941.530977,95.712904,153.140646,-9418.149754
941.531604,114.855485,57.427742,-9399.007173
941.532231,172.283227,76.570323,-9418.149754
941.532859,153.140646,153.140646,-9399.007173
941.533486,95.712904,133.998066,-9360.722011
941.534113,57.427742,172.283227,-9360.722011
941.534740,133.998066,114.855485,-9456.434915
941.535367,133.998066,210.568389,-9437.292334
941.535995,76.570323,133.998066,-9360.722011
941.536622,95.712904,95.712904,-9399.007173
941.537249,76.570323,114.855485,-9418.149754
941.537876,114.855485,153.140646,-9360.722011
941.538504,95.712904,153.140646,-9360.722011
941.539131,133.998066,153.140646,-9418.149754
941.539758,38.285162,114.855485,-9418.149754
941.540385,133.998066,114.855485,-9418.149754
941.541013,210.568389,133.998066,-9379.864592
941.541640,76.570323,114.855485,-9437.292334
941.542267,38.285162,153.140646,-9418.149754
941.542894,19.142581,114.855485,-9437.292334
941.543522,57.427742,133.998066,-9360.722011
941.544149,133.998066,153.140646,-9456.434915
941.544776,133.998066,114.855485,-9418.149754
941.545403,76.570323,172.283227,-9418.149754
941.546030,76.570323,153.140646,-9475.577496
941.546658,95.712904,210.568389,-9418.149754
941.547285,76.570323,114.855485,-9418.149754
941.547912,172.283227,172.283227,-9379.864592
941.548539,76.570323,114.855485,-9456.434915
941.549167,133.998066,210.568389,-9418.149754
941.549794,172.283227,114.855485,-9399.007173
941.550421,57.427742,95.712904,-9399.007173
941.551048,153.140646,153.140646,-9399.007173
941.551676,114.855485,133.998066,-9360.722011
941.552303,38.285162,114.855485,-9475.577496
941.552930,133.998066,114.855485,-9418.149754
941.553557,133.998066,114.855485,-9418.149754
941.554184,38.285162,114.855485,-9437.292334
941.554812,95.712904,133.998066,-9360.722011
941.555439,172.283227,76.570323,-9418.149754
941.556066,133.998066,114.855485,-9418.149754
941.556693,95.712904,114.855485,-9418.149754
941.557321,133.998066,114.855485,-9418.149754
941.557948,133.998066,153.140646,-9456.434915
941.558575,133.998066,114.855485,-9418.149754
941.559202,57.427742,114.855485,-9418.149754
941.559830,76.570323,114.855485,-9418.149754
941.560457,153.140646,153.140646,-9379.864592
941.561084,153.140646,133.998066,-9399.007173
941.561711,153.140646,210.568389,-9399.007173
941.562338,133.998066,153.140646,-9418.149754
941.562966,38.285162,114.855485,-9418.149754
941.563593,76.570323,172.283227,-9418.149754
941.564220,153.140646,133.998066,-9399.007173
941.564847,76.570323,114.855485,-9418.149754
941.565475,95.712904,114.855485,-9418.149754
941.566102,95.712904,76.570323,-9379.864592
941.566729,95.712904,95.712904,-9399.007173
941.567356,76.570323,114.855485,-9418.149754
941.567984,38.285162,114.855485,-9418.149754
941.568611,76.570323,172.283227,-9418.149754
941.569238,76.570323,172.283227,-9418.149754
941.569865,76.570323,153.140646,-9456.434915
941.570492,38.285162,153.140646,-9437.292334
941.571120,133.998066,153.140646,-9418.149754
941.571747,133.998066,114.855485,-9418.149754
941.572374,95.712904,133.998066,-9360.722011
941.573001,95.712904,114.855485,-9418.149754
941.573629,114.855485,114.855485,-9399.007173
941.574256,76.570323,114.855485,-9475.577496
941.574883,57.427742,191.425808,-9456.434915
941.575510,95.712904,133.998066,-9360.722011
941.576138,114.855485,95.712904,-9399.007173
941.576765,133.998066,114.855485,-9418.149754
941.577392,133.998066,114.855485,-9437.292334
941.578019,38.285162,114.855485,-9418.149754
941.578647,38.285162,114.855485,-9437.292334
941.579274,57.427742,114.855485,-9399.007173
941.579901,133.998066,153.140646,-9399.007173
941.580528,95.712904,133.998066,-9360.722011
941.581155,38.285162,229.710970,-9418.149754
941.581783,95.712904,114.855485,-9418.149754
941.582410,76.570323,114.855485,-9418.149754
941.583037,76.570323,114.855485,-9418.149754
941.583664,76.570323,153.140646,-9418.149754
941.584292,95.712904,114.855485,-9456.434915
941.584919,76.570323,133.998066,-9360.722011
941.585546,95.712904,153.140646,-9418.149754
941.586173,76.570323,114.855485,-9418.149754
941.586801,133.998066,172.283227,-9418.149754
941.587428,38.285162,114.855485,-9418.149754
941.588055,76.570323,229.710970,-9456.434915
941.588682,76.570323,210.568389,-9418.149754
941.589309,76.570323,210.568389,-9456.434915
941.589937,38.285162,153.140646,-9418.149754
941.590564,57.427742,133.998066,-9360.722011
941.591191,57.427742,95.712904,-9399.007173
941.591818,95.712904,114.855485,-9418.149754
941.592446,76.570323,114.855485,-9418.149754
941.593073,95.712904,133.998066,-9360.722011
941.593700,57.427742,153.140646,-9360.722011
941.594327,95.712904,133.998066,-9360.722011
941.594955,114.855485,133.998066,-9360.722011
941.595582,76.570323,114.855485,-9418.149754
941.596209,38.285162,191.425808,-9360.722011
941.596836,76.570323,172.283227,-9360.722011
941.597463,76.570323,210.568389,-9418.149754
941.598091,38.285162,114.855485,-9533.005238
941.598718,76.570323,172.283227,-9418.149754
941.599345,57.427742,95.712904,-9399.007173
941.599972,76.570323,114.855485,-9418.149754
941.600600,76.570323,153.140646,-9456.434915
941.601227,38.285162,114.855485,-9418.149754
941.601854,133.998066,153.140646,-9418.149754
941.602481,114.855485,172.283227,-9360.722011
941.603109,133.998066,172.283227,-9418.149754
941.603736,133.998066,114.855485,-9418.149754
941.604363,76.570323,114.855485,-9437.292334
941.604990,57.427742,95.712904,-9399.007173
941.605618,38.285162,114.855485,-9418.149754
941.606245,95.712904,76.570323,-9379.864592
941.606872,76.570323,114.855485,-9418.149754
941.607499,133.998066,114.855485,-9418.149754
941.608126,76.570323,114.855485,-9456.434915
941.608754,153.140646,153.140646,-9399.007173
941.609381,76.570323,153.140646,-9418.149754
941.610008,172.283227,114.855485,-9379.864592
941.610635,76.570323,114.855485,-9418.149754
941.611263,114.855485,95.712904,-9399.007173
941.611890,133.998066,114.855485,-9418.149754
941.612517,133.998066,133.998066,-9399.007173
941.613144,38.285162,172.283227,-9418.149754
941.613772,95.712904,95.712904,-9399.007173
941.614399,76.570323,114.855485,-9418.149754
941.615026,76.570323,114.855485,-9475.577496
941.615653,76.570323,114.855485,-9418.149754
941.616280,114.855485,153.140646,-9360.722011
941.616908,76.570323,172.283227,-9437.292334
941.617535,76.570323,114.855485,-9418.149754
941.618162,57.427742,172.283227,-9437.292334
941.618789,76.570323,114.855485,-9360.722011
941.619417,57.427742,153.140646,-9360.722011
941.620044,57.427742,153.140646,-9360.722011
941.620671,38.285162,172.283227,-9341.579430
941.621298,95.712904,133.998066,-9360.722011
941.621926,133.998066,133.998066,-9399.007173
941.622553,133.998066,114.855485,-9418.149754
941.623180,172.283227,76.570323,-9418.149754
941.623807,133.998066,133.998066,-9399.007173
941.624434,95.712904,172.283227,-9360.722011
941.625062,76.570323,114.855485,-9418.149754
941.625689,114.855485,133.998066,-9360.722011
941.626316,133.998066,114.855485,-9418.149754
941.626943,76.570323,114.855485,-9418.149754
941.627571,153.140646,114.855485,-9418.149754
941.628198,133.998066,114.855485,-9437.292334
941.628825,76.570323,172.283227,-9456.434915
941.629452,76.570323,114.855485,-9456.434915
941.630080,57.427742,114.855485,-9418.149754
941.630707,38.285162,114.855485,-9418.149754
941.631334,76.570323,172.283227,-9418.149754
941.631961,76.570323,114.855485,-9418.149754
941.632588,133.998066,114.855485,-9418.149754
941.633216,76.570323,172.283227,-9418.149754
941.633843,133.998066,153.140646,-9418.149754
941.634471,57.427742,153.140646,-9322.436850
941.635098,76.570323,114.855485,-9418.149754
941.635725,57.427742,133.998066,-9360.722011
941.636353,76.570323,114.855485,-9456.434915
941.636980,95.712904,76.570323,-9379.864592
941.637607,133.998066,114.855485,-9418.149754
941.638235,76.570323,114.855485,-9418.149754
941.638862,76.570323,114.855485,-9418.149754
941.639489,76.570323,114.855485,-9418.149754
941.640117,76.570323,114.855485,-9418.149754
941.640744,76.570323,114.855485,-9418.149754
941.641371,133.998066,114.855485,-9418.149754
941.641999,76.570323,114.855485,-9418.149754
941.642626,76.570323,114.855485,-9418.149754
941.643253,57.427742,153.140646,-9360.722011
941.643881,76.570323,114.855485,-9418.149754
941.644508,133.998066,114.855485,-9437.292334
941.645135,38.285162,114.855485,-9418.149754
941.645763,76.570323,114.855485,-9418.149754
941.646390,76.570323,172.283227,-9418.149754
941.647017,76.570323,153.140646,-9418.149754
941.647645,133.998066,153.140646,-9456.434915
941.648272,133.998066,133.998066,-9399.007173
941.648899,38.285162,114.855485,-9418.149754
941.649527,38.285162,114.855485,-9418.149754
941.650154,95.712904,114.855485,-9418.149754
941.650781,114.855485,153.140646,-9341.579430
941.651409,38.285162,153.140646,-9418.149754
941.652036,133.998066,114.855485,-9418.149754
941.652663,76.570323,76.570323,-9379.864592
941.653291,153.140646,133.998066,-9456.434915
941.653918,76.570323,172.283227,-9360.722011
941.654545,76.570323,172.283227,-9418.149754
941.655173,76.570323,153.140646,-9418.149754
941.655800,133.998066,114.855485,-9418.149754
941.656427,153.140646,172.283227,-9418.149754
941.657055,133.998066,153.140646,-9418.149754
941.657682,133.998066,153.140646,-9360.722011
941.658309,95.712904,153.140646,-9437.292334
941.658937,114.855485,172.283227,-9360.722011
941.659564,153.140646,133.998066,-9399.007173
941.660191,133.998066,172.283227,-9418.149754
941.660819,76.570323,133.998066,-9360.722011
941.661446,57.427742,191.425808,-9322.436850
941.662074,95.712904,133.998066,-9360.722011
941.662701,76.570323,114.855485,-9437.292334
941.663328,76.570323,114.855485,-9418.149754
941.663956,76.570323,172.283227,-9418.149754
941.664583,76.570323,229.710970,-9437.292334
941.665210,133.998066,172.283227,-9360.722011
941.665838,114.855485,133.998066,-9360.722011
941.666465,38.285162,114.855485,-9418.149754
941.667092,76.570323,210.568389,-9418.149754
941.667720,95.712904,172.283227,-9322.436850
941.668347,76.570323,210.568389,-9418.149754
941.668974,133.998066,172.283227,-9418.149754
941.669602,95.712904,95.712904,-9399.007173
941.670229,38.285162,114.855485,-9418.149754
941.670856,76.570323,114.855485,-9418.149754
941.671484,76.570323,153.140646,-9418.149754
941.672111,95.712904,133.998066,-9341.579430
941.672738,95.712904,210.568389,-9360.722011
941.673366,76.570323,153.140646,-9437.292334
941.673993,19.142581,133.998066,-9399.007173
941.674620,133.998066,153.140646,-9437.292334
941.675248,95.712904,153.140646,-9418.149754
941.675875,153.140646,133.998066,-9399.007173
941.676502,133.998066,114.855485,-9418.149754
941.677130,153.140646,133.998066,-9399.007173
941.677757,76.570323,172.283227,-9437.292334
941.678384,76.570323,153.140646,-9418.149754
941.679012,76.570323,114.855485,-9418.149754
941.679639,95.712904,172.283227,-9360.722011
941.680266,95.712904,114.855485,-9418.149754
941.680894,76.570323,114.855485,-9475.577496
941.681521,76.570323,114.855485,-9418.149754
941.682148,133.998066,114.855485,-9418.149754
941.682776,133.998066,210.568389,-9418.149754
941.683403,76.570323,153.140646,-9437.292334
941.684030,19.142581,114.855485,-9418.149754
941.684658,114.855485,210.568389,-9360.722011
941.685285,133.998066,153.140646,-9418.149754
941.685912,76.570323,172.283227,-9437.292334
941.686540,76.570323,172.283227,-9418.149754
941.687167,76.570323,114.855485,-9418.149754
941.687794,76.570323,172.283227,-9418.149754
941.688422,153.140646,172.283227,-9399.007173
941.689049,133.998066,114.855485,-9533.005238
941.689676,133.998066,114.855485,-9418.149754
941.690304,76.570323,153.140646,-9418.149754
941.690931,95.712904,133.998066,-9360.722011
941.691559,76.570323,153.140646,-9418.149754
941.692186,133.998066,114.855485,-9418.149754
941.692813,153.140646,210.568389,-9360.722011
941.693441,38.285162,133.998066,-9341.579430
941.694068,95.712904,172.283227,-9360.722011
941.694695,133.998066,114.855485,-9360.722011
941.695323,133.998066,191.425808,-9399.007173
941.695950,95.712904,95.712904,-9399.007173
941.696577,57.427742,133.998066,-9322.436850
941.697205,133.998066,229.710970,-9418.149754
941.697832,38.285162,114.855485,-9418.149754
941.698459,133.998066,114.855485,-9418.149754
941.699087,95.712904,153.140646,-9360.722011
941.699714,153.140646,114.855485,-9418.149754
941.700341,153.140646,133.998066,-9399.007173
941.700969,114.855485,133.998066,-9360.722011
941.701596,191.425808,172.283227,-9379.864592
941.702223,133.998066,153.140646,-9456.434915
941.702851,153.140646,191.425808,-9399.007173
941.703478,172.283227,172.283227,-9399.007173
941.704105,76.570323,153.140646,-9418.149754
941.704733,76.570323,95.712904,-9399.007173
941.705360,114.855485,133.998066,-9360.722011
941.705987,95.712904,153.140646,-9418.149754
941.706615,76.570323,172.283227,-9437.292334
941.707242,38.285162,172.283227,-9418.149754
941.707869,76.570323,210.568389,-9418.149754
941.708497,38.285162,172.283227,-9418.149754
941.709124,153.140646,133.998066,-9399.007173
941.709751,95.712904,95.712904,-9399.007173
941.710379,133.998066,114.855485,-9418.149754
941.711006,133.998066,114.855485,-9418.149754
941.711633,172.283227,114.855485,-9379.864592
941.712261,76.570323,114.855485,-9418.149754
941.712888,133.998066,172.283227,-9399.007173
941.713515,114.855485,153.140646,-9360.722011
941.714143,76.570323,153.140646,-9418.149754
941.714770,76.570323,114.855485,-9418.149754
941.715397,76.570323,114.855485,-9418.149754
941.716025,114.855485,95.712904,-9399.007173
941.716652,57.427742,95.712904,-9399.007173
941.717279,76.570323,114.855485,-9533.005238
941.717907,57.427742,95.712904,-9399.007173
941.718534,76.570323,114.855485,-9418.149754
941.719161,153.140646,172.283227,-9399.007173
941.719789,133.998066,114.855485,-9475.577496
941.720416,95.712904,133.998066,-9360.722011
941.721044,76.570323,210.568389,-9399.007173
941.721671,57.427742,114.855485,-9399.007173
941.722298,114.855485,114.855485,-9418.149754
941.722926,114.855485,95.712904,-9437.292334
941.723553,95.712904,153.140646,-9360.722011
941.724180,133.998066,114.855485,-9418.149754
941.724808,38.285162,114.855485,-9418.149754
941.725435,133.998066,114.855485,-9418.149754
941.726062,76.570323,114.855485,-9418.149754
941.726690,38.285162,114.855485,-9418.149754
941.727317,76.570323,114.855485,-9418.149754
941.727944,76.570323,114.855485,-9360.722011
941.728572,133.998066,114.855485,-9360.722011
941.729199,133.998066,229.710970,-9360.722011
941.729826,133.998066,172.283227,-9437.292334
941.730454,133.998066,114.855485,-9360.722011
941.731081,95.712904,114.855485,-9418.149754
941.731708,76.570323,114.855485,-9418.149754
941.732336,95.712904,133.998066,-9360.722011
941.732963,133.998066,76.570323,-9379.864592
941.733590,153.140646,191.425808,-9399.007173
941.734218,95.712904,114.855485,-9418.149754
941.734845,172.283227,210.568389,-9379.864592
941.735472,76.570323,153.140646,-9418.149754
941.736100,76.570323,114.855485,-9418.149754
941.736727,57.427742,133.998066,-9341.579430
941.737355,95.712904,133.998066,-9341.579430
941.737982,76.570323,153.140646,-9418.149754
941.738609,76.570323,172.283227,-9418.149754
941.739237,76.570323,114.855485,-9360.722011
941.739864,95.712904,133.998066,-9360.722011
941.740491,76.570323,114.855485,-9418.149754
941.741119,114.855485,133.998066,-9360.722011
941.741746,95.712904,133.998066,-9360.722011
941.742374,76.570323,114.855485,-9418.149754
941.743001,133.998066,114.855485,-9360.722011
941.743628,76.570323,76.570323,-9379.864592
941.744256,133.998066,153.140646,-9418.149754
941.744883,38.285162,114.855485,-9418.149754
941.745510,114.855485,133.998066,-9360.722011
941.746138,76.570323,114.855485,-9437.292334
941.746765,133.998066,172.283227,-9456.434915
941.747393,133.998066,114.855485,-9418.149754
941.748020,76.570323,114.855485,-9418.149754
941.748647,57.427742,172.283227,-9360.722011
941.749275,76.570323,114.855485,-9437.292334
941.749902,95.712904,95.712904,-9494.720077
941.750529,133.998066,210.568389,-9456.434915
941.751157,76.570323,114.855485,-9418.149754
941.751784,114.855485,191.425808,-9360.722011
941.752412,95.712904,133.998066,-9360.722011
941.753039,76.570323,114.855485,-9360.722011
941.753666,95.712904,114.855485,-9399.007173
941.754294,133.998066,114.855485,-9418.149754
941.754921,76.570323,172.283227,-9437.292334
941.755548,57.427742,133.998066,-9360.722011
941.756176,38.285162,114.855485,-9418.149754
941.756803,133.998066,133.998066,-9399.007173
941.757431,76.570323,114.855485,-9418.149754
941.758058,133.998066,114.855485,-9418.149754
941.758685,76.570323,114.855485,-9418.149754
941.759313,76.570323,95.712904,-9399.007173
941.759940,76.570323,153.140646,-9418.149754
941.760567,38.285162,172.283227,-9418.149754
941.761195,76.570323,210.568389,-9360.722011
941.761822,57.427742,153.140646,-9360.722011
941.762450,153.140646,133.998066,-9399.007173
941.763077,153.140646,191.425808,-9456.434915
941.763704,76.570323,153.140646,-9456.434915
941.764332,38.285162,210.568389,-9418.149754
941.764959,133.998066,153.140646,-9456.434915
941.765586,38.285162,114.855485,-9418.149754
941.766214,76.570323,114.855485,-9418.149754
941.766841,76.570323,114.855485,-9418.149754
941.767469,95.712904,114.855485,-9418.149754
941.768096,114.855485,153.140646,-9360.722011
941.768723,114.855485,133.998066,-9360.722011
941.769351,114.855485,95.712904,-9399.007173
941.769978,38.285162,114.855485,-9418.149754
941.770605,95.712904,133.998066,-9360.722011
941.771233,76.570323,210.568389,-9341.579430
941.771860,95.712904,153.140646,-9418.149754
941.772488,76.570323,114.855485,-9418.149754
941.773115,153.140646,133.998066,-9379.864592
941.773742,133.998066,114.855485,-9418.149754
941.774370,153.140646,95.712904,-9360.722011
941.774997,133.998066,153.140646,-9418.149754
941.775624,153.140646,133.998066,-9399.007173
941.776252,133.998066,133.998066,-9494.720077
941.776879,133.998066,172.283227,-9418.149754
941.777507,114.855485,153.140646,-9360.722011
941.778134,133.998066,153.140646,-9418.149754
941.778761,38.285162,172.283227,-9418.149754
941.779389,133.998066,114.855485,-9418.149754
941.780016,133.998066,153.140646,-9475.577496
941.780643,76.570323,114.855485,-9437.292334
941.781271,76.570323,191.425808,-9418.149754
941.781898,57.427742,133.998066,-9360.722011
941.782526,76.570323,153.140646,-9418.149754
941.783153,133.998066,114.855485,-9456.434915
941.783780,153.140646,191.425808,-9399.007173
941.784408,172.283227,153.140646,-9322.436850
941.785035,133.998066,114.855485,-9456.434915
941.785662,38.285162,114.855485,-9418.149754
941.786290,153.140646,133.998066,-9437.292334
941.786917,76.570323,114.855485,-9418.149754
941.787545,133.998066,191.425808,-9418.149754
941.788172,133.998066,172.283227,-9418.149754
941.788799,133.998066,114.855485,-9456.434915
941.789427,38.285162,114.855485,-9418.149754
941.790054,38.285162,172.283227,-9418.149754
941.790681,76.570323,172.283227,-9360.722011
941.791309,38.285162,114.855485,-9418.149754
941.791936,153.140646,172.283227,-9399.007173
941.792564,133.998066,191.425808,-9418.149754
941.793191,76.570323,172.283227,-9418.149754
941.793818,76.570323,153.140646,-9437.292334
941.794446,95.712904,133.998066,-9360.722011
941.795073,133.998066,114.855485,-9418.149754
941.795700,133.998066,114.855485,-9456.434915
941.796328,95.712904,133.998066,-9360.722011
941.796955,0.000000,153.140646,-9360.722011
941.797583,76.570323,114.855485,-9418.149754
941.798210,95.712904,114.855485,-9418.149754
941.798837,76.570323,210.568389,-9418.149754
941.799465,76.570323,133.998066,-9360.722011
941.800092,172.283227,95.712904,-9399.007173
941.800719,153.140646,133.998066,-9437.292334
941.801347,133.998066,153.140646,-9418.149754
941.801974,76.570323,153.140646,-9456.434915
941.802602,76.570323,172.283227,-9418.149754
941.803229,76.570323,153.140646,-9418.149754
941.803856,95.712904,114.855485,-9418.149754
941.804484,38.285162,114.855485,-9418.149754
941.805111,114.855485,133.998066,-9360.722011
941.805738,38.285162,114.855485,-9418.149754
941.806366,95.712904,191.425808,-9360.722011
941.806993,114.855485,133.998066,-9360.722011
941.807621,76.570323,114.855485,-9456.434915
941.808248,133.998066,114.855485,-9418.149754
941.808875,133.998066,172.283227,-9418.149754
941.809503,95.712904,133.998066,-9360.722011
941.810130,153.140646,114.855485,-9418.149754
941.810757,133.998066,210.568389,-9418.149754
941.811385,133.998066,153.140646,-9418.149754
941.812012,95.712904,95.712904,-9399.007173
941.812640,210.568389,133.998066,-9437.292334
941.813267,133.998066,114.855485,-9418.149754
941.813894,95.712904,95.712904,-9437.292334
941.814522,76.570323,172.283227,-9418.149754
941.815149,133.998066,172.283227,-9418.149754
941.815776,95.712904,153.140646,-9360.722011
941.816404,133.998066,114.855485,-9418.149754
941.817031,95.712904,133.998066,-9360.722011
941.817659,76.570323,172.283227,-9418.149754
941.818286,76.570323,114.855485,-9418.149754
941.818913,76.570323,114.855485,-9418.149754
941.819541,172.283227,114.855485,-9379.864592
941.820168,76.570323,114.855485,-9437.292334
941.820795,133.998066,133.998066,-9399.007173
941.821423,133.998066,114.855485,-9418.149754
941.822050,114.855485,95.712904,-9379.864592
941.822678,95.712904,133.998066,-9360.722011
941.823305,133.998066,172.283227,-9399.007173
941.823932,76.570323,114.855485,-9418.149754
941.824560,133.998066,114.855485,-9418.149754
941.825187,153.140646,133.998066,-9379.864592
941.825814,76.570323,172.283227,-9456.434915
941.826442,76.570323,114.855485,-9418.149754
941.827069,133.998066,114.855485,-9418.149754
941.827697,38.285162,172.283227,-9360.722011
941.828324,133.998066,114.855485,-9418.149754
941.828951,133.998066,114.855485,-9418.149754
941.829579,133.998066,153.140646,-9418.149754
941.830206,76.570323,114.855485,-9418.149754
941.830833,133.998066,114.855485,-9437.292334
941.831461,133.998066,153.140646,-9418.149754
941.832088,133.998066,114.855485,-9437.292334
941.832715,95.712904,153.140646,-9437.292334
941.833343,76.570323,57.427742,-9399.007173
941.833970,133.998066,114.855485,-9418.149754
941.834598,76.570323,172.283227,-9418.149754
941.835225,133.998066,114.855485,-9418.149754
941.835852,95.712904,95.712904,-9399.007173
941.836480,133.998066,114.855485,-9494.720077
941.837107,76.570323,114.855485,-9456.434915
941.837734,38.285162,76.570323,-9322.436850
941.838362,76.570323,114.855485,-9418.149754
941.838989,114.855485,95.712904,-9399.007173
941.839616,133.998066,172.283227,-9418.149754
941.840244,38.285162,153.140646,-9418.149754
941.840871,133.998066,114.855485,-9456.434915
941.841498,76.570323,114.855485,-9418.149754
941.842126,95.712904,95.712904,-9399.007173
941.842753,133.998066,210.568389,-9399.007173
941.843380,76.570323,172.283227,-9418.149754
941.844008,114.855485,133.998066,-9360.722011
941.844635,95.712904,95.712904,-9399.007173
941.845262,95.712904,172.283227,-9418.149754
941.845890,210.568389,133.998066,-9399.007173
941.846517,76.570323,114.855485,-9418.149754
941.847144,95.712904,153.140646,-9360.722011
941.847772,95.712904,114.855485,-9418.149754
941.848399,76.570323,114.855485,-9418.149754
941.849026,172.283227,114.855485,-9379.864592
941.849654,76.570323,114.855485,-9418.149754
941.850281,114.855485,114.855485,-9399.007173
941.850908,114.855485,133.998066,-9360.722011
941.851536,133.998066,114.855485,-9418.149754
941.852163,133.998066,153.140646,-9437.292334
941.852790,76.570323,210.568389,-9418.149754
941.853418,38.285162,153.140646,-9418.149754
941.854045,133.998066,153.140646,-9360.722011
941.854672,76.570323,210.568389,-9418.149754
941.855300,76.570323,172.283227,-9360.722011
941.855927,76.570323,114.855485,-9418.149754
941.856554,95.712904,153.140646,-9437.292334
941.857182,76.570323,153.140646,-9418.149754
941.857809,57.427742,172.283227,-9360.722011
941.858436,133.998066,153.140646,-9418.149754
941.859064,38.285162,114.855485,-9418.149754
941.859691,133.998066,172.283227,-9418.149754
941.860318,133.998066,114.855485,-9418.149754
941.860946,76.570323,133.998066,-9360.722011
941.861573,38.285162,114.855485,-9437.292334
941.862200,114.855485,133.998066,-9360.722011
941.862828,76.570323,114.855485,-9418.149754
941.863455,153.140646,153.140646,-9399.007173
941.864082,133.998066,133.998066,-9399.007173
941.864710,76.570323,153.140646,-9456.434915
941.865337,95.712904,172.283227,-9360.722011
941.865964,114.855485,76.570323,-9437.292334
941.866592,153.140646,133.998066,-9399.007173
941.867219,76.570323,153.140646,-9418.149754
941.867846,133.998066,172.283227,-9418.149754
941.868474,95.712904,95.712904,-9399.007173
941.869101,95.712904,95.712904,-9399.007173
941.869728,95.712904,153.140646,-9418.149754
941.870356,114.855485,133.998066,-9360.722011
941.870983,95.712904,153.140646,-9418.149754
941.871610,38.285162,153.140646,-9418.149754
941.872238,76.570323,114.855485,-9418.149754
941.872865,57.427742,133.998066,-9360.722011
941.873492,133.998066,153.140646,-9418.149754
941.874120,76.570323,114.855485,-9456.434915
941.874747,95.712904,133.998066,-9360.722011
941.875374,76.570323,114.855485,-9418.149754
941.876002,76.570323,114.855485,-9360.722011
941.876629,114.855485,114.855485,-9379.864592
941.877256,133.998066,133.998066,-9399.007173
941.877884,95.712904,95.712904,-9399.007173
941.878511,76.570323,114.855485,-9418.149754
941.879138,57.427742,95.712904,-9399.007173
941.879766,114.855485,172.283227,-9360.722011
941.880393,76.570323,172.283227,-9360.722011
941.881020,76.570323,210.568389,-9418.149754
941.881648,133.998066,210.568389,-9437.292334
941.882275,114.855485,95.712904,-9494.720077
941.882902,153.140646,133.998066,-9494.720077
941.883530,133.998066,191.425808,-9437.292334
941.884157,38.285162,153.140646,-9360.722011
941.884784,95.712904,153.140646,-9418.149754
941.885412,133.998066,210.568389,-9456.434915
941.886039,76.570323,210.568389,-9437.292334
941.886666,76.570323,153.140646,-9418.149754
941.887294,133.998066,153.140646,-9494.720077
941.887921,133.998066,191.425808,-9437.292334
941.888548,76.570323,172.283227,-9418.149754
941.889176,76.570323,114.855485,-9360.722011
941.889803,76.570323,114.855485,-9437.292334
941.890430,38.285162,114.855485,-9418.149754
941.891058,114.855485,191.425808,-9379.864592
941.891685,76.570323,153.140646,-9418.149754
941.892312,76.570323,114.855485,-9418.149754
941.892940,76.570323,172.283227,-9418.149754
941.893567,76.570323,114.855485,-9418.149754
941.894194,95.712904,153.140646,-9360.722011
941.894822,114.855485,133.998066,-9322.436850
941.895449,114.855485,191.425808,-9360.722011
941.896076,133.998066,114.855485,-9418.149754
941.896704,38.285162,114.855485,-9437.292334
941.897331,133.998066,114.855485,-9418.149754
941.897958,133.998066,114.855485,-9418.149754
941.898586,76.570323,133.998066,-9418.149754
941.899213,133.998066,114.855485,-9418.149754
941.899840,76.570323,114.855485,-9437.292334
941.900468,95.712904,95.712904,-9399.007173
941.901095,133.998066,133.998066,-9399.007173
941.901722,76.570323,153.140646,-9456.434915
941.902350,76.570323,210.568389,-9437.292334
941.902977,76.570323,114.855485,-9456.434915
941.903604,95.712904,114.855485,-9418.149754
941.904232,76.570323,114.855485,-9418.149754
941.904859,38.285162,153.140646,-9418.149754
941.905486,133.998066,172.283227,-9418.149754
941.906114,95.712904,114.855485,-9418.149754
941.906741,76.570323,172.283227,-9418.149754
941.907368,76.570323,172.283227,-9475.577496
941.907996,38.285162,114.855485,-9418.149754
941.908623,76.570323,114.855485,-9456.434915
941.909250,76.570323,114.855485,-9418.149754
941.909878,133.998066,114.855485,-9360.722011
941.910505,133.998066,76.570323,-9322.436850
941.911132,95.712904,95.712904,-9399.007173
941.911760,133.998066,153.140646,-9456.434915
941.912387,114.855485,153.140646,-9360.722011
941.913014,76.570323,229.710970,-9418.149754
941.913642,76.570323,114.855485,-9418.149754
941.914269,76.570323,114.855485,-9418.149754
941.914896,57.427742,95.712904,-9399.007173
941.915524,38.285162,114.855485,-9456.434915
941.916151,133.998066,114.855485,-9418.149754
941.916778,153.140646,133.998066,-9399.007173
941.917406,153.140646,133.998066,-9437.292334
941.918033,114.855485,95.712904,-9399.007173
941.918660,76.570323,153.140646,-9418.149754
941.919288,114.855485,133.998066,-9360.722011
941.919915,76.570323,114.855485,-9475.577496
941.920542,95.712904,133.998066,-9360.722011
941.921170,57.427742,95.712904,-9399.007173
941.921797,76.570323,153.140646,-9418.149754
941.922424,133.998066,153.140646,-9379.864592
941.923052,76.570323,153.140646,-9418.149754
941.923679,95.712904,95.712904,-9399.007173
941.924306,153.140646,133.998066,-9399.007173
941.924934,114.855485,114.855485,-9399.007173
941.925561,76.570323,114.855485,-9456.434915
941.926188,76.570323,114.855485,-9418.149754
941.926816,38.285162,172.283227,-9418.149754
941.927443,114.855485,172.283227,-9360.722011
941.928070,153.140646,153.140646,-9399.007173
941.928698,172.283227,153.140646,-9379.864592
941.929325,133.998066,153.140646,-9437.292334
941.929952,76.570323,172.283227,-9437.292334
941.930580,95.712904,210.568389,-9418.149754
941.931207,95.712904,133.998066,-9360.722011
941.931834,38.285162,114.855485,-9418.149754
941.932462,95.712904,133.998066,-9418.149754
941.933089,114.855485,95.712904,-9399.007173
941.933716,114.855485,114.855485,-9379.864592
941.934344,95.712904,153.140646,-9360.722011
941.934971,19.142581,210.568389,-9418.149754
941.935599,76.570323,153.140646,-9437.292334
941.936226,57.427742,95.712904,-9379.864592
941.936853,114.855485,172.283227,-9360.722011
941.937481,114.855485,248.853550,-9360.722011
941.938108,133.998066,153.140646,-9437.292334
941.938736,95.712904,229.710970,-9418.149754
941.939363,76.570323,191.425808,-9360.722011
941.939990,95.712904,114.855485,-9418.149754
941.940618,76.570323,76.570323,-9379.864592
941.941245,114.855485,133.998066,-9418.149754
941.941873,57.427742,95.712904,-9437.292334
941.942500,38.285162,114.855485,-9418.149754
941.943127,133.998066,114.855485,-9418.149754
941.943755,153.140646,133.998066,-9399.007173
941.944382,76.570323,153.140646,-9437.292334
941.945010,133.998066,172.283227,-9418.149754
941.945637,133.998066,153.140646,-9418.149754
941.946264,57.427742,133.998066,-9360.722011
941.946892,95.712904,172.283227,-9418.149754
941.947519,76.570323,114.855485,-9418.149754
941.948147,95.712904,133.998066,-9360.722011
941.948774,76.570323,114.855485,-9360.722011
941.949402,57.427742,76.570323,-9360.722011
941.950029,76.570323,76.570323,-9379.864592
941.950656,76.570323,172.283227,-9418.149754
941.951284,76.570323,114.855485,-9437.292334
941.951911,95.712904,133.998066,-9360.722011
941.952539,57.427742,114.855485,-9437.292334
941.953166,76.570323,114.855485,-9437.292334
941.953793,133.998066,210.568389,-9437.292334
941.954421,19.142581,114.855485,-9418.149754
941.955048,133.998066,153.140646,-9418.149754
941.955676,153.140646,133.998066,-9399.007173
941.956303,95.712904,191.425808,-9360.722011
941.956930,76.570323,114.855485,-9418.149754
941.957558,95.712904,114.855485,-9399.007173
941.958185,133.998066,114.855485,-9418.149754
941.958813,95.712904,95.712904,-9437.292334
941.959440,76.570323,114.855485,-9418.149754
941.960067,95.712904,133.998066,-9360.722011
941.960695,133.998066,114.855485,-9418.149754
941.961322,95.712904,153.140646,-9418.149754
941.961950,57.427742,133.998066,-9360.722011
941.962577,95.712904,95.712904,-9399.007173
941.963205,133.998066,76.570323,-9379.864592
941.963832,95.712904,210.568389,-9418.149754
941.964459,76.570323,95.712904,-9456.434915
941.965087,114.855485,76.570323,-9418.149754
941.965714,133.998066,133.998066,-9399.007173
941.966342,38.285162,114.855485,-9418.149754
941.966969,133.998066,172.283227,-9418.149754
941.967596,133.998066,153.140646,-9418.149754
941.968224,153.140646,172.283227,-9437.292334
941.968851,76.570323,114.855485,-9360.722011
941.969479,76.570323,114.855485,-9437.292334
941.970106,76.570323,172.283227,-9418.149754
941.970733,38.285162,114.855485,-9456.434915
941.971361,133.998066,114.855485,-9456.434915
941.971988,133.998066,114.855485,-9399.007173
941.972616,133.998066,114.855485,-9437.292334
941.973243,38.285162,114.855485,-9418.149754
941.973870,95.712904,153.140646,-9418.149754
941.974498,153.140646,172.283227,-9399.007173
941.975125,133.998066,114.855485,-9418.149754
941.975753,133.998066,133.998066,-9399.007173
941.976380,38.285162,114.855485,-9360.722011
941.977007,133.998066,210.568389,-9456.434915
941.977635,133.998066,153.140646,-9418.149754
941.978262,133.998066,153.140646,-9418.149754
941.978890,76.570323,114.855485,-9418.149754
941.979517,38.285162,114.855485,-9418.149754
941.980145,133.998066,114.855485,-9418.149754
941.980772,95.712904,133.998066,-9360.722011
941.981399,95.712904,95.712904,-9399.007173
941.982027,38.285162,114.855485,-9418.149754
941.982654,114.855485,76.570323,-9418.149754
941.983282,95.712904,114.855485,-9437.292334
941.983909,133.998066,153.140646,-9418.149754
941.984536,57.427742,153.140646,-9341.579430
941.985164,57.427742,191.425808,-9360.722011
941.985791,76.570323,153.140646,-9418.149754
941.986419,133.998066,114.855485,-9418.149754
941.987046,133.998066,76.570323,-9379.864592
941.987673,114.855485,95.712904,-9399.007173
941.988301,114.855485,172.283227,-9379.864592
941.988928,133.998066,114.855485,-9418.149754
941.989556,133.998066,172.283227,-9418.149754
941.990183,76.570323,172.283227,-9418.149754
941.990810,76.570323,172.283227,-9418.149754
941.991438,57.427742,95.712904,-9399.007173
941.992065,153.140646,133.998066,-9399.007173
941.992693,95.712904,133.998066,-9360.722011
941.993320,133.998066,210.568389,-9418.149754
941.993948,76.570323,172.283227,-9418.149754
941.994575,133.998066,114.855485,-9456.434915
941.995202,133.998066,114.855485,-9418.149754
941.995830,114.855485,76.570323,-9418.149754
941.996457,76.570323,76.570323,-9399.007173
941.997085,76.570323,210.568389,-9418.149754
941.997712,95.712904,114.855485,-9418.149754
941.998339,114.855485,95.712904,-9399.007173
941.998967,133.998066,114.855485,-9418.149754
941.999594,76.570323,114.855485,-9475.577496
942.000222,76.570323,114.855485,-9418.149754
942.000849,172.283227,114.855485,-9379.864592
942.001476,76.570323,114.855485,-9437.292334
942.002104,38.285162,210.568389,-9418.149754
942.002731,38.285162,114.855485,-9418.149754
942.003359,133.998066,114.855485,-9418.149754
942.003986,153.140646,114.855485,-9418.149754
942.004613,133.998066,153.140646,-9418.149754
942.005241,95.712904,133.998066,-9360.722011
942.005868,95.712904,172.283227,-9360.722011
942.006496,76.570323,114.855485,-9360.722011
942.007123,76.570323,114.855485,-9418.149754
942.007751,76.570323,114.855485,-9456.434915
942.008378,38.285162,114.855485,-9418.149754
942.009005,172.283227,114.855485,-9379.864592
942.009633,114.855485,133.998066,-9360.722011
942.010260,133.998066,76.570323,-9379.864592
942.010888,38.285162,114.855485,-9418.149754
942.011515,76.570323,172.283227,-9437.292334
942.012142,38.285162,114.855485,-9456.434915
942.012770,19.142581,172.283227,-9418.149754
942.013397,38.285162,153.140646,-9418.149754
942.014025,153.140646,172.283227,-9399.007173
942.014652,76.570323,153.140646,-9418.149754
942.015279,133.998066,172.283227,-9437.292334
942.015907,76.570323,210.568389,-9418.149754
942.016534,76.570323,172.283227,-9418.149754
942.017162,114.855485,95.712904,-9399.007173
942.017789,95.712904,133.998066,-9284.151688
942.018416,95.712904,153.140646,-9418.149754
942.019044,76.570323,114.855485,-9418.149754
942.019671,95.712904,172.283227,-9360.722011
942.020299,76.570323,114.855485,-9418.149754
942.020926,133.998066,114.855485,-9418.149754
