#time,accel_x,accel_y,accel_z
956.142001,76.570323,114.855485,-9418.149754
956.142628,76.570323,114.855485,-9418.149754
956.143255,95.712904,133.998066,-9360.722011
956.143882,76.570323,210.568389,-9418.149754
956.144510,76.570323,114.855485,-9418.149754
956.145137,114.855485,133.998066,-9360.722011
956.145764,133.998066,114.855485,-9418.149754
956.146391,133.998066,133.998066,-9399.007173
956.147018,76.570323,114.855485,-9418.149754
956.147645,38.285162,114.855485,-9418.149754
956.148272,38.285162,114.855485,-9418.149754
956.148899,76.570323,114.855485,-9418.149754
956.149526,153.140646,133.998066,-9437.292334
956.150153,114.855485,95.712904,-9399.007173
956.150780,95.712904,133.998066,-9360.722011
956.151407,76.570323,114.855485,-9360.722011
956.152034,76.570323,114.855485,-9437.292334
956.152661,133.998066,114.855485,-9418.149754
956.153288,114.855485,95.712904,-9399.007173
956.153915,76.570323,172.283227,-9418.149754
956.154542,76.570323,153.140646,-9456.434915
956.155169,76.570323,114.855485,-9437.292334
956.155796,133.998066,133.998066,-9399.007173
956.156423,133.998066,172.283227,-9418.149754
956.157050,114.855485,133.998066,-9360.722011
956.157677,153.140646,153.140646,-9456.434915
956.158304,133.998066,114.855485,-9418.149754
956.158931,95.712904,172.283227,-9418.149754
956.159558,133.998066,114.855485,-9418.149754
956.160185,114.855485,191.425808,-9360.722011
956.160812,38.285162,172.283227,-9418.149754
956.161439,95.712904,114.855485,-9418.149754
956.162066,38.285162,114.855485,-9418.149754
956.162693,57.427742,95.712904,-9399.007173
956.163320,95.712904,95.712904,-9399.007173
956.163947,133.998066,172.283227,-9418.149754
956.164574,76.570323,114.855485,-9418.149754
956.165201,133.998066,114.855485,-9418.149754
956.165828,153.140646,114.855485,-9418.149754
956.166455,76.570323,114.855485,-9418.149754
956.167082,133.998066,95.712904,-9360.722011
956.167709,76.570323,114.855485,-9456.434915
956.168336,95.712904,114.855485,-9418.149754
956.168963,133.998066,153.140646,-9418.149754
956.169590,76.570323,153.140646,-9456.434915
956.170217,133.998066,172.283227,-9418.149754
956.170844,76.570323,114.855485,-9475.577496
956.171471,76.570323,229.710970,-9418.149754
956.172098,114.855485,133.998066,-9360.722011
956.172725,95.712904,114.855485,-9418.149754
956.173352,76.570323,210.568389,-9456.434915
956.173979,76.570323,114.855485,-9494.720077
956.174607,57.427742,153.140646,-9418.149754
956.175234,133.998066,191.425808,-9437.292334
956.175861,133.998066,191.425808,-9399.007173
956.176488,133.998066,153.140646,-9418.149754
956.177115,133.998066,172.283227,-9475.577496
956.177742,133.998066,153.140646,-9418.149754
956.178369,95.712904,133.998066,-9341.579430
956.178996,95.712904,114.855485,-9418.149754
956.179623,38.285162,114.855485,-9456.434915
956.180250,153.140646,133.998066,-9399.007173
956.180877,133.998066,172.283227,-9418.149754
956.181504,76.570323,210.568389,-9456.434915
956.182131,76.570323,114.855485,-9437.292334
956.182758,95.712904,114.855485,-9418.149754
956.183385,38.285162,114.855485,-9418.149754
956.184012,38.285162,172.283227,-9418.149754
956.184639,114.855485,153.140646,-9360.722011
956.185266,133.998066,133.998066,-9399.007173
956.185893,95.712904,153.140646,-9360.722011
956.186520,38.285162,114.855485,-9437.292334
956.187147,133.998066,153.140646,-9418.149754
956.187774,133.998066,172.283227,-9418.149754
956.188401,38.285162,114.855485,-9418.149754
956.189028,133.998066,114.855485,-9418.149754
956.189655,76.570323,76.570323,-9379.864592
956.190282,38.285162,153.140646,-9418.149754
956.190909,95.712904,153.140646,-9418.149754
956.191536,133.998066,210.568389,-9418.149754
956.192163,133.998066,172.283227,-9437.292334
956.192790,133.998066,153.140646,-9418.149754
956.193417,76.570323,114.855485,-9418.149754
956.194044,38.285162,133.998066,-9360.722011
956.194671,172.283227,114.855485,-9379.864592
956.195298,114.855485,133.998066,-9360.722011
956.195925,133.998066,114.855485,-9418.149754
956.196552,133.998066,114.855485,-9418.149754
956.197179,76.570323,114.855485,-9437.292334
956.197806,114.855485,114.855485,-9418.149754
956.198433,76.570323,172.283227,-9418.149754
956.199060,133.998066,133.998066,-9399.007173
956.199687,76.570323,114.855485,-9418.149754
956.200314,76.570323,172.283227,-9456.434915
956.200942,57.427742,153.140646,-9418.149754
956.201570,76.570323,114.855485,-9418.149754
956.202197,95.712904,114.855485,-9437.292334
956.202825,76.570323,114.855485,-9456.434915
956.203452,133.998066,172.283227,-9418.149754
956.204080,76.570323,153.140646,-9418.149754
956.204708,133.998066,210.568389,-9418.149754
956.205335,153.140646,133.998066,-9399.007173
956.205963,133.998066,114.855485,-9418.149754
956.206590,76.570323,114.855485,-9437.292334
956.207218,114.855485,210.568389,-9379.864592
956.207846,133.998066,153.140646,-9418.149754
956.208473,76.570323,114.855485,-9418.149754
956.209101,76.570323,210.568389,-9418.149754
956.209729,133.998066,114.855485,-9418.149754
956.210356,133.998066,153.140646,-9437.292334
956.210984,172.283227,76.570323,-9418.149754
956.211611,133.998066,114.855485,-9418.149754
956.212239,76.570323,114.855485,-9456.434915
956.212867,76.570323,114.855485,-9418.149754
956.213494,153.140646,172.283227,-9418.149754
956.214122,133.998066,114.855485,-9418.149754
956.214749,133.998066,153.140646,-9437.292334
956.215377,153.140646,133.998066,-9494.720077
956.216005,133.998066,210.568389,-9418.149754
956.216632,76.570323,114.855485,-9418.149754
956.217260,0.000000,133.998066,-9360.722011
956.217887,38.285162,114.855485,-9437.292334
956.218515,38.285162,114.855485,-9418.149754
956.219143,133.998066,114.855485,-9437.292334
956.219770,76.570323,172.283227,-9418.149754
956.220398,76.570323,172.283227,-9418.149754
956.221025,57.427742,191.425808,-9360.722011
956.221653,57.427742,153.140646,-9341.579430
956.222281,133.998066,172.283227,-9418.149754
956.222908,76.570323,114.855485,-9418.149754
956.223536,114.855485,133.998066,-9360.722011
956.224164,76.570323,172.283227,-9418.149754
956.224791,133.998066,114.855485,-9418.149754
956.225419,133.998066,114.855485,-9360.722011
956.226046,114.855485,76.570323,-9418.149754
956.226674,133.998066,114.855485,-9418.149754
956.227302,114.855485,114.855485,-9379.864592
956.227929,76.570323,172.283227,-9475.577496
956.228557,133.998066,133.998066,-9399.007173
956.229184,76.570323,153.140646,-9418.149754
956.229812,57.427742,133.998066,-9360.722011
956.230440,95.712904,210.568389,-9399.007173
956.231067,95.712904,95.712904,-9437.292334
956.231695,38.285162,114.855485,-9418.149754
956.232322,133.998066,153.140646,-9360.722011
956.232950,95.712904,133.998066,-9360.722011
956.233578,76.570323,153.140646,-9418.149754
956.234205,95.712904,153.140646,-9418.149754
956.234833,76.570323,114.855485,-9360.722011
956.235461,38.285162,114.855485,-9418.149754
956.236088,114.855485,133.998066,-9360.722011
956.236716,133.998066,114.855485,-9418.149754
956.237343,76.570323,153.140646,-9437.292334
956.237971,133.998066,191.425808,-9456.434915
956.238599,95.712904,114.855485,-9437.292334
956.239226,76.570323,153.140646,-9456.434915
956.239854,76.570323,153.140646,-9418.149754
956.240481,38.285162,114.855485,-9418.149754
956.241109,38.285162,133.998066,-9360.722011
956.241737,76.570323,114.855485,-9418.149754
956.242364,76.570323,114.855485,-9418.149754
956.242992,133.998066,172.283227,-9418.149754
956.243619,133.998066,172.283227,-9360.722011
956.244247,114.855485,133.998066,-9360.722011
956.244875,38.285162,114.855485,-9437.292334
956.245502,133.998066,153.140646,-9418.149754
956.246130,76.570323,114.855485,-9437.292334
956.246757,95.712904,133.998066,-9418.149754
956.247385,76.570323,114.855485,-9475.577496
956.248013,95.712904,114.855485,-9399.007173
956.248640,76.570323,172.283227,-9418.149754
956.249268,76.570323,153.140646,-9456.434915
956.249896,133.998066,172.283227,-9437.292334
956.250523,38.285162,114.855485,-9418.149754
956.251151,38.285162,153.140646,-9418.149754
956.251778,76.570323,114.855485,-9456.434915
956.252406,76.570323,191.425808,-9418.149754
956.253034,76.570323,114.855485,-9418.149754
956.253661,133.998066,172.283227,-9399.007173
956.254289,38.285162,153.140646,-9418.149754
956.254916,133.998066,114.855485,-9418.149754
956.255544,153.140646,133.998066,-9399.007173
956.256172,38.285162,114.855485,-9418.149754
956.256799,76.570323,114.855485,-9418.149754
956.257427,76.570323,114.855485,-9418.149754
956.258054,57.427742,114.855485,-9418.149754
956.258682,57.427742,95.712904,-9399.007173
956.259310,76.570323,153.140646,-9437.292334
956.259937,76.570323,153.140646,-9418.149754
956.260565,95.712904,133.998066,-9360.722011
956.261193,114.855485,133.998066,-9360.722011
956.261820,114.855485,133.998066,-9360.722011
956.262448,38.285162,153.140646,-9418.149754
956.263075,95.712904,133.998066,-9360.722011
956.263703,114.855485,191.425808,-9379.864592
956.264331,133.998066,172.283227,-9418.149754
956.264958,133.998066,114.855485,-9418.149754
956.265586,114.855485,95.712904,-9399.007173
956.266213,95.712904,133.998066,-9360.722011
956.266841,133.998066,210.568389,-9418.149754
956.267469,133.998066,172.283227,-9418.149754
956.268096,95.712904,153.140646,-9360.722011
956.268724,153.140646,191.425808,-9399.007173
956.269351,133.998066,114.855485,-9418.149754
956.269979,153.140646,133.998066,-9456.434915
956.270607,133.998066,153.140646,-9418.149754
956.271234,95.712904,95.712904,-9399.007173
956.271862,153.140646,133.998066,-9399.007173
956.272489,114.855485,95.712904,-9399.007173
956.273117,76.570323,172.283227,-9437.292334
956.273745,114.855485,95.712904,-9399.007173
956.274372,133.998066,172.283227,-9418.149754
956.275000,76.570323,114.855485,-9418.149754
956.275628,38.285162,114.855485,-9437.292334
956.276255,153.140646,153.140646,-9399.007173
956.276883,153.140646,172.283227,-9437.292334
956.277510,153.140646,153.140646,-9437.292334
956.278138,133.998066,114.855485,-9418.149754
956.278766,114.855485,133.998066,-9360.722011
956.279393,114.855485,114.855485,-9379.864592
956.280021,133.998066,133.998066,-9399.007173
956.280648,153.140646,133.998066,-9399.007173
956.281276,95.712904,95.712904,-9399.007173
956.281904,95.712904,153.140646,-9360.722011
956.282531,57.427742,95.712904,-9399.007173
956.283159,114.855485,133.998066,-9437.292334
956.283786,76.570323,114.855485,-9437.292334
956.284414,76.570323,114.855485,-9437.292334
956.285042,114.855485,114.855485,-9399.007173
956.285669,57.427742,153.140646,-9418.149754
956.286297,57.427742,133.998066,-9360.722011
956.286924,95.712904,95.712904,-9399.007173
956.287552,38.285162,114.855485,-9456.434915
956.288180,133.998066,114.855485,-9475.577496
956.288807,95.712904,114.855485,-9418.149754
956.289435,95.712904,114.855485,-9418.149754
956.290063,133.998066,114.855485,-9418.149754
956.290690,133.998066,191.425808,-9456.434915
956.291318,114.855485,133.998066,-9360.722011
956.291945,76.570323,114.855485,-9418.149754
956.292573,133.998066,114.855485,-9418.149754
956.293201,76.570323,172.283227,-9418.149754
956.293828,57.427742,172.283227,-9456.434915
956.294456,57.427742,191.425808,-9360.722011
956.295083,133.998066,210.568389,-9418.149754
956.295711,133.998066,172.283227,-9399.007173
956.296339,76.570323,153.140646,-9456.434915
956.296966,76.570323,172.283227,-9418.149754
956.297594,133.998066,172.283227,-9456.434915
956.298221,133.998066,153.140646,-9418.149754
956.298849,133.998066,114.855485,-9437.292334
956.299477,133.998066,153.140646,-9456.434915
956.300104,133.998066,114.855485,-9418.149754
956.300732,76.570323,114.855485,-9418.149754
956.301359,133.998066,114.855485,-9418.149754
956.301986,133.998066,114.855485,-9418.149754
956.302614,114.855485,133.998066,-9360.722011
956.303241,0.000000,133.998066,-9360.722011
956.303868,76.570323,172.283227,-9418.149754
956.304495,133.998066,114.855485,-9418.149754
956.305123,153.140646,133.998066,-9399.007173
956.305750,76.570323,210.568389,-9418.149754
956.306377,76.570323,114.855485,-9418.149754
956.307005,57.427742,95.712904,-9399.007173
956.307632,95.712904,133.998066,-9360.722011
956.308259,114.855485,133.998066,-9360.722011
956.308886,133.998066,114.855485,-9437.292334
956.309514,95.712904,133.998066,-9360.722011
956.310141,114.855485,133.998066,-9418.149754
956.310768,38.285162,114.855485,-9437.292334
956.311395,133.998066,153.140646,-9475.577496
956.312023,153.140646,153.140646,-9437.292334
956.312650,76.570323,114.855485,-9418.149754
956.313277,76.570323,114.855485,-9399.007173
956.313904,95.712904,210.568389,-9418.149754
956.314532,114.855485,95.712904,-9399.007173
956.315159,153.140646,172.283227,-9399.007173
956.315786,76.570323,114.855485,-9418.149754
956.316413,133.998066,172.283227,-9437.292334
956.317041,210.568389,133.998066,-9399.007173
956.317668,76.570323,114.855485,-9418.149754
956.318295,133.998066,114.855485,-9418.149754
956.318923,76.570323,114.855485,-9437.292334
956.319550,38.285162,114.855485,-9418.149754
956.320177,38.285162,114.855485,-9418.149754
956.320804,133.998066,172.283227,-9418.149754
956.321432,133.998066,114.855485,-9418.149754
956.322059,95.712904,191.425808,-9360.722011
956.322686,133.998066,153.140646,-9418.149754
956.323313,133.998066,172.283227,-9399.007173
956.323941,133.998066,114.855485,-9418.149754
956.324568,38.285162,114.855485,-9437.292334
956.325195,76.570323,153.140646,-9418.149754
956.325822,95.712904,114.855485,-9418.149754
956.326450,133.998066,76.570323,-9322.436850
956.327077,95.712904,133.998066,-9360.722011
956.327704,133.998066,114.855485,-9418.149754
956.328331,95.712904,114.855485,-9418.149754
956.328959,95.712904,133.998066,-9360.722011
956.329586,76.570323,114.855485,-9418.149754
956.330213,76.570323,114.855485,-9418.149754
956.330841,76.570323,114.855485,-9456.434915
956.331468,153.140646,133.998066,-9456.434915
956.332095,76.570323,172.283227,-9418.149754
956.332722,133.998066,172.283227,-9418.149754
956.333350,76.570323,114.855485,-9418.149754
956.333977,114.855485,133.998066,-9341.579430
956.334604,57.427742,133.998066,-9360.722011
956.335231,114.855485,133.998066,-9360.722011
956.335859,38.285162,114.855485,-9418.149754
956.336486,76.570323,76.570323,-9379.864592
956.337113,153.140646,133.998066,-9399.007173
956.337740,95.712904,95.712904,-9399.007173
956.338368,76.570323,114.855485,-9418.149754
956.338995,153.140646,133.998066,-9399.007173
956.339622,76.570323,114.855485,-9418.149754
956.340249,76.570323,114.855485,-9418.149754
956.340877,76.570323,114.855485,-9418.149754
956.341504,133.998066,172.283227,-9418.149754
956.342131,76.570323,114.855485,-9360.722011
956.342759,95.712904,76.570323,-9379.864592
956.343386,95.712904,114.855485,-9418.149754
956.344013,76.570323,114.855485,-9418.149754
956.344640,95.712904,172.283227,-9437.292334
956.345268,153.140646,133.998066,-9437.292334
956.345895,133.998066,114.855485,-9494.720077
956.346522,76.570323,114.855485,-9418.149754
956.347149,76.570323,114.855485,-9456.434915
956.347777,133.998066,114.855485,-9360.722011
956.348404,76.570323,153.140646,-9437.292334
956.349031,95.712904,133.998066,-9360.722011
956.349658,95.712904,172.283227,-9418.149754
956.350286,57.427742,95.712904,-9399.007173
956.350913,38.285162,114.855485,-9418.149754
956.351540,19.142581,191.425808,-9418.149754
956.352167,95.712904,191.425808,-9437.292334
956.352795,76.570323,114.855485,-9456.434915
956.353422,19.142581,153.140646,-9456.434915
956.354049,57.427742,133.998066,-9341.579430
956.354677,57.427742,114.855485,-9418.149754
956.355304,76.570323,153.140646,-9418.149754
956.355931,38.285162,172.283227,-9418.149754
956.356558,133.998066,114.855485,-9418.149754
956.357186,76.570323,172.283227,-9418.149754
956.357813,133.998066,114.855485,-9418.149754
956.358440,95.712904,114.855485,-9379.864592
956.359067,38.285162,153.140646,-9418.149754
956.359695,153.140646,153.140646,-9399.007173
956.360322,114.855485,133.998066,-9360.722011
956.360949,76.570323,153.140646,-9418.149754
956.361576,57.427742,114.855485,-9494.720077
956.362204,76.570323,191.425808,-9437.292334
956.362831,210.568389,153.140646,-9399.007173
956.363458,76.570323,114.855485,-9418.149754
956.364085,153.140646,153.140646,-9399.007173
956.364713,153.140646,133.998066,-9399.007173
956.365340,76.570323,172.283227,-9418.149754
956.365967,133.998066,210.568389,-9418.149754
956.366595,133.998066,172.283227,-9437.292334
956.367222,114.855485,172.283227,-9437.292334
956.367849,95.712904,133.998066,-9360.722011
956.368476,38.285162,172.283227,-9418.149754
956.369104,133.998066,210.568389,-9418.149754
956.369731,76.570323,114.855485,-9418.149754
956.370358,114.855485,210.568389,-9418.149754
956.370985,133.998066,114.855485,-9418.149754
956.371613,95.712904,95.712904,-9418.149754
956.372240,76.570323,114.855485,-9418.149754
956.372867,38.285162,114.855485,-9418.149754
956.373494,76.570323,114.855485,-9418.149754
956.374122,38.285162,114.855485,-9456.434915
956.374749,76.570323,172.283227,-9418.149754
956.375376,133.998066,172.283227,-9418.149754
956.376003,133.998066,114.855485,-9418.149754
956.376631,76.570323,114.855485,-9418.149754
956.377258,95.712904,210.568389,-9494.720077
956.377885,57.427742,172.283227,-9418.149754
956.378513,76.570323,172.283227,-9418.149754
956.379140,153.140646,114.855485,-9418.149754
956.379767,153.140646,133.998066,-9379.864592
956.380394,153.140646,172.283227,-9399.007173
956.381022,38.285162,172.283227,-9418.149754
956.381649,76.570323,114.855485,-9475.577496
956.382276,38.285162,172.283227,-9418.149754
956.382903,76.570323,114.855485,-9418.149754
956.383531,76.570323,172.283227,-9418.149754
956.384158,76.570323,114.855485,-9418.149754
956.384785,153.140646,133.998066,-9456.434915
956.385412,133.998066,172.283227,-9418.149754
956.386040,38.285162,114.855485,-9456.434915
956.386667,95.712904,95.712904,-9399.007173
956.387294,133.998066,210.568389,-9437.292334
956.387921,133.998066,114.855485,-9437.292334
956.388549,133.998066,172.283227,-9399.007173
956.389176,38.285162,210.568389,-9418.149754
956.389803,76.570323,114.855485,-9437.292334
956.390431,133.998066,114.855485,-9418.149754
956.391058,76.570323,172.283227,-9418.149754
956.391685,133.998066,191.425808,-9399.007173
956.392312,76.570323,210.568389,-9418.149754
956.392940,76.570323,114.855485,-9437.292334
956.393567,133.998066,172.283227,-9418.149754
956.394194,133.998066,133.998066,-9399.007173
956.394821,57.427742,133.998066,-9360.722011
956.395449,38.285162,153.140646,-9437.292334
956.396076,133.998066,114.855485,-9418.149754
956.396703,95.712904,133.998066,-9360.722011
956.397330,133.998066,191.425808,-9399.007173
956.397958,95.712904,114.855485,-9418.149754
956.398585,133.998066,114.855485,-9418.149754
956.399212,153.140646,191.425808,-9437.292334
956.399839,76.570323,114.855485,-9475.577496
956.400467,76.570323,114.855485,-9418.149754
956.401094,95.712904,95.712904,-9399.007173
956.401721,76.570323,114.855485,-9456.434915
956.402349,76.570323,172.283227,-9418.149754
956.402976,95.712904,153.140646,-9437.292334
956.403603,133.998066,114.855485,-9418.149754
956.404231,133.998066,133.998066,-9399.007173
956.404858,57.427742,172.283227,-9360.722011
956.405485,76.570323,153.140646,-9360.722011
956.406113,95.712904,114.855485,-9418.149754
956.406740,57.427742,114.855485,-9418.149754
956.407367,133.998066,114.855485,-9437.292334
956.407994,133.998066,153.140646,-9399.007173
956.408622,76.570323,153.140646,-9418.149754
956.409249,133.998066,114.855485,-9418.149754
956.409876,133.998066,153.140646,-9437.292334
956.410504,172.283227,114.855485,-9379.864592
956.411131,114.855485,133.998066,-9360.722011
956.411758,114.855485,133.998066,-9360.722011
956.412386,133.998066,133.998066,-9399.007173
956.413013,133.998066,114.855485,-9418.149754
956.413640,76.570323,114.855485,-9418.149754
956.414268,133.998066,114.855485,-9418.149754
956.414895,133.998066,114.855485,-9418.149754
956.415522,76.570323,114.855485,-9418.149754
956.416150,95.712904,133.998066,-9341.579430
956.416777,133.998066,114.855485,-9418.149754
956.417404,95.712904,95.712904,-9399.007173
956.418032,133.998066,210.568389,-9418.149754
956.418659,38.285162,114.855485,-9437.292334
956.419286,38.285162,210.568389,-9418.149754
956.419913,38.285162,114.855485,-9418.149754
956.420541,133.998066,172.283227,-9418.149754
956.421168,153.140646,133.998066,-9456.434915
956.421795,153.140646,153.140646,-9399.007173
956.422423,76.570323,172.283227,-9418.149754
956.423050,38.285162,172.283227,-9418.149754
956.423677,76.570323,153.140646,-9418.149754
956.424305,76.570323,114.855485,-9418.149754
956.424932,133.998066,172.283227,-9475.577496
956.425559,76.570323,172.283227,-9437.292334
956.426187,95.712904,172.283227,-9418.149754
956.426814,76.570323,153.140646,-9494.720077
956.427441,76.570323,210.568389,-9456.434915
956.428069,133.998066,114.855485,-9418.149754
956.428696,95.712904,133.998066,-9360.722011
956.429323,133.998066,114.855485,-9418.149754
956.429950,133.998066,172.283227,-9360.722011
956.430578,153.140646,133.998066,-9399.007173
956.431205,76.570323,153.140646,-9456.434915
956.431832,57.427742,153.140646,-9418.149754
956.432460,114.855485,153.140646,-9360.722011
956.433087,133.998066,153.140646,-9418.149754
956.433714,133.998066,114.855485,-9418.149754
956.434342,76.570323,95.712904,-9399.007173
956.434969,57.427742,114.855485,-9418.149754
956.435596,38.285162,114.855485,-9418.149754
956.436224,114.855485,172.283227,-9360.722011
956.436851,95.712904,114.855485,-9418.149754
956.437478,76.570323,153.140646,-9418.149754
956.438106,76.570323,114.855485,-9418.149754
956.438733,38.285162,76.570323,-9399.007173
956.439360,133.998066,114.855485,-9418.149754
956.439988,133.998066,114.855485,-9418.149754
956.440615,95.712904,76.570323,-9341.579430
956.441242,95.712904,133.998066,-9360.722011
956.441869,95.712904,133.998066,-9360.722011
956.442497,133.998066,172.283227,-9418.149754
956.443124,38.285162,114.855485,-9418.149754
956.443751,95.712904,133.998066,-9341.579430
956.444379,95.712904,95.712904,-9399.007173
956.445006,76.570323,172.283227,-9418.149754
956.445633,76.570323,210.568389,-9418.149754
956.446261,133.998066,153.140646,-9418.149754
956.446888,76.570323,114.855485,-9418.149754
956.447515,76.570323,210.568389,-9418.149754
956.448143,153.140646,133.998066,-9399.007173
956.448770,57.427742,95.712904,-9399.007173
956.449397,57.427742,133.998066,-9360.722011
956.450025,38.285162,114.855485,-9418.149754
956.450652,133.998066,172.283227,-9418.149754
956.451279,153.140646,114.855485,-9418.149754
956.451907,133.998066,114.855485,-9418.149754
956.452534,114.855485,95.712904,-9399.007173
956.453161,114.855485,191.425808,-9360.722011
956.453788,76.570323,114.855485,-9437.292334
956.454416,133.998066,153.140646,-9399.007173
956.455043,38.285162,172.283227,-9418.149754
956.455670,153.140646,133.998066,-9399.007173
956.456298,76.570323,153.140646,-9437.292334
956.456925,153.140646,172.283227,-9437.292334
956.457552,133.998066,114.855485,-9418.149754
956.458180,133.998066,114.855485,-9418.149754
956.458807,76.570323,172.283227,-9418.149754
956.459434,133.998066,114.855485,-9418.149754
956.460062,38.285162,114.855485,-9360.722011
956.460689,133.998066,114.855485,-9418.149754
956.461316,76.570323,153.140646,-9418.149754
956.461944,76.570323,153.140646,-9437.292334
956.462571,38.285162,172.283227,-9418.149754
956.463198,95.712904,95.712904,-9379.864592
956.463826,95.712904,133.998066,-9360.722011
956.464453,76.570323,210.568389,-9418.149754
956.465080,76.570323,114.855485,-9456.434915
956.465707,133.998066,153.140646,-9437.292334
956.466335,114.855485,95.712904,-9456.434915
956.466962,133.998066,114.855485,-9437.292334
956.467589,57.427742,114.855485,-9418.149754
956.468217,76.570323,153.140646,-9418.149754
956.468844,76.570323,172.283227,-9418.149754
956.469471,76.570323,114.855485,-9418.149754
956.470099,76.570323,172.283227,-9418.149754
956.470726,76.570323,114.855485,-9418.149754
956.471353,76.570323,153.140646,-9360.722011
956.471981,76.570323,172.283227,-9360.722011
956.472608,38.285162,153.140646,-9418.149754
956.473235,76.570323,210.568389,-9418.149754
956.473863,114.855485,114.855485,-9399.007173
956.474490,133.998066,114.855485,-9418.149754
956.475117,114.855485,133.998066,-9360.722011
956.475744,76.570323,172.283227,-9437.292334
956.476372,95.712904,172.283227,-9456.434915
956.476999,95.712904,114.855485,-9418.149754
956.477626,38.285162,133.998066,-9360.722011
956.478254,114.855485,95.712904,-9399.007173
956.478881,153.140646,153.140646,-9399.007173
956.479508,76.570323,210.568389,-9418.149754
956.480136,76.570323,153.140646,-9418.149754
956.480763,76.570323,229.710970,-9418.149754
956.481390,38.285162,153.140646,-9418.149754
956.482018,133.998066,114.855485,-9360.722011
956.482645,76.570323,114.855485,-9418.149754
956.483272,76.570323,114.855485,-9418.149754
956.483900,114.855485,95.712904,-9399.007173
956.484527,133.998066,114.855485,-9418.149754
956.485154,133.998066,114.855485,-9360.722011
956.485782,76.570323,172.283227,-9418.149754
956.486409,38.285162,172.283227,-9360.722011
956.487036,38.285162,172.283227,-9418.149754
956.487663,95.712904,248.853550,-9360.722011
956.488291,114.855485,153.140646,-9360.722011
956.488918,76.570323,172.283227,-9456.434915
956.489545,57.427742,133.998066,-9360.722011
956.490173,76.570323,210.568389,-9418.149754
956.490800,114.855485,133.998066,-9360.722011
956.491427,95.712904,114.855485,-9418.149754
956.492055,95.712904,133.998066,-9360.722011
956.492682,133.998066,114.855485,-9456.434915
956.493309,133.998066,114.855485,-9418.149754
956.493937,76.570323,114.855485,-9418.149754
956.494564,76.570323,114.855485,-9418.149754
956.495191,133.998066,210.568389,-9437.292334
956.495819,133.998066,153.140646,-9399.007173
956.496446,153.140646,172.283227,-9399.007173
956.497073,114.855485,114.855485,-9379.864592
956.497701,76.570323,114.855485,-9418.149754
956.498328,114.855485,114.855485,-9379.864592
956.498955,76.570323,191.425808,-9437.292334
956.499582,57.427742,95.712904,-9437.292334
956.500210,76.570323,133.998066,-9360.722011
956.500837,95.712904,133.998066,-9360.722011
956.501464,76.570323,76.570323,-9379.864592
956.502092,57.427742,114.855485,-9418.149754
956.502719,95.712904,133.998066,-9360.722011
956.503347,133.998066,172.283227,-9418.149754
956.503974,153.140646,172.283227,-9399.007173
956.504602,133.998066,76.570323,-9379.864592
956.505229,76.570323,114.855485,-9418.149754
956.505856,38.285162,114.855485,-9418.149754
956.506484,114.855485,95.712904,-9399.007173
956.507111,133.998066,114.855485,-9418.149754
956.507739,95.712904,153.140646,-9360.722011
956.508366,133.998066,153.140646,-9399.007173
956.508994,114.855485,191.425808,-9322.436850
956.509621,133.998066,133.998066,-9399.007173
956.510248,133.998066,114.855485,-9418.149754
956.510876,95.712904,95.712904,-9399.007173
956.511503,133.998066,153.140646,-9418.149754
956.512131,114.855485,191.425808,-9360.722011
956.512758,114.855485,133.998066,-9360.722011
956.513385,76.570323,172.283227,-9418.149754
956.514013,76.570323,76.570323,-9379.864592
956.514640,57.427742,95.712904,-9399.007173
956.515268,95.712904,114.855485,-9418.149754
956.515895,133.998066,114.855485,-9418.149754
956.516523,133.998066,76.570323,-9379.864592
956.517150,57.427742,153.140646,-9456.434915
956.517777,133.998066,172.283227,-9418.149754
956.518405,153.140646,133.998066,-9399.007173
956.519032,210.568389,95.712904,-9360.722011
956.519660,133.998066,114.855485,-9437.292334
956.520287,76.570323,172.283227,-9418.149754
956.520915,95.712904,153.140646,-9418.149754
956.521542,95.712904,95.712904,-9399.007173
956.522169,114.855485,133.998066,-9418.149754
956.522797,114.855485,133.998066,-9360.722011
956.523424,95.712904,133.998066,-9360.722011
956.524052,76.570323,172.283227,-9360.722011
956.524679,76.570323,114.855485,-9418.149754
956.525307,133.998066,210.568389,-9418.149754
956.525934,76.570323,172.283227,-9418.149754
956.526561,133.998066,172.283227,-9418.149754
956.527189,76.570323,114.855485,-9418.149754
956.527816,76.570323,153.140646,-9418.149754
956.528444,133.998066,114.855485,-9418.149754
956.529071,38.285162,133.998066,-9360.722011
956.529699,114.855485,95.712904,-9399.007173
956.530326,133.998066,172.283227,-9418.149754
956.530953,76.570323,114.855485,-9475.577496
956.531581,76.570323,114.855485,-9418.149754
956.532208,133.998066,133.998066,-9399.007173
956.532836,76.570323,133.998066,-9399.007173
956.533463,38.285162,114.855485,-9418.149754
956.534090,57.427742,95.712904,-9399.007173
956.534718,76.570323,172.283227,-9418.149754
956.535345,76.570323,153.140646,-9418.149754
956.535973,133.998066,114.855485,-9418.149754
956.536600,114.855485,133.998066,-9360.722011
956.537228,95.712904,172.283227,-9418.149754
956.537855,95.712904,229.710970,-9418.149754
956.538482,114.855485,133.998066,-9418.149754
956.539110,114.855485,95.712904,-9399.007173
956.539737,114.855485,76.570323,-9418.149754
956.540365,133.998066,172.283227,-9360.722011
956.540992,133.998066,114.855485,-9418.149754
956.541620,114.855485,114.855485,-9456.434915
956.542247,95.712904,248.853550,-9360.722011
956.542874,133.998066,153.140646,-9418.149754
956.543502,133.998066,114.855485,-9418.149754
956.544129,95.712904,133.998066,-9360.722011
956.544757,57.427742,95.712904,-9399.007173
956.545384,76.570323,114.855485,-9418.149754
956.546012,76.570323,95.712904,-9399.007173
956.546639,95.712904,114.855485,-9418.149754
956.547266,133.998066,133.998066,-9379.864592
956.547894,153.140646,153.140646,-9418.149754
956.548521,76.570323,114.855485,-9456.434915
956.549149,76.570323,153.140646,-9456.434915
956.549776,95.712904,172.283227,-9437.292334
956.550404,95.712904,114.855485,-9418.149754
956.551031,57.427742,153.140646,-9360.722011
956.551658,133.998066,153.140646,-9418.149754
956.552286,133.998066,172.283227,-9399.007173
956.552913,133.998066,172.283227,-9437.292334
956.553541,76.570323,153.140646,-9456.434915
956.554168,76.570323,114.855485,-9418.149754
956.554796,95.712904,114.855485,-9418.149754
956.555423,95.712904,133.998066,-9360.722011
956.556050,114.855485,133.998066,-9360.722011
956.556678,76.570323,114.855485,-9437.292334
956.557305,76.570323,114.855485,-9418.149754
956.557933,133.998066,172.283227,-9437.292334
956.558560,133.998066,172.283227,-9418.149754
956.559187,38.285162,114.855485,-9418.149754
956.559815,76.570323,172.283227,-9418.149754
956.560442,57.427742,114.855485,-9418.149754
956.561070,95.712904,172.283227,-9418.149754
956.561697,95.712904,95.712904,-9399.007173
956.562325,57.427742,133.998066,-9360.722011
956.562952,95.712904,153.140646,-9418.149754
956.563579,133.998066,114.855485,-9437.292334
956.564207,76.570323,114.855485,-9418.149754
956.564834,76.570323,114.855485,-9437.292334
956.565462,95.712904,114.855485,-9418.149754
956.566089,76.570323,114.855485,-9418.149754
956.566717,114.855485,133.998066,-9360.722011
956.567344,133.998066,153.140646,-9418.149754
956.567971,153.140646,210.568389,-9399.007173
956.568599,76.570323,172.283227,-9418.149754
956.569226,76.570323,114.855485,-9418.149754
956.569854,133.998066,153.140646,-9418.149754
956.570481,133.998066,114.855485,-9418.149754
956.571109,95.712904,133.998066,-9360.722011
956.571736,76.570323,114.855485,-9456.434915
956.572363,133.998066,191.425808,-9418.149754
956.572991,76.570323,114.855485,-9418.149754
956.573618,38.285162,153.140646,-9418.149754
956.574246,76.570323,153.140646,-9418.149754
956.574873,76.570323,153.140646,-9418.149754
956.575501,76.570323,172.283227,-9418.149754
956.576128,153.140646,133.998066,-9399.007173
956.576755,38.285162,153.140646,-9418.149754
956.577383,172.283227,76.570323,-9418.149754
956.578010,76.570323,95.712904,-9399.007173
956.578638,114.855485,172.283227,-9360.722011
956.579265,133.998066,114.855485,-9418.149754
956.579893,76.570323,95.712904,-9437.292334
956.580520,114.855485,133.998066,-9360.722011
956.581147,95.712904,172.283227,-9437.292334
956.581775,76.570323,114.855485,-9418.149754
956.582402,114.855485,76.570323,-9437.292334
956.583030,114.855485,76.570323,-9418.149754
956.583657,57.427742,133.998066,-9360.722011
956.584284,38.285162,114.855485,-9418.149754
956.584912,38.285162,95.712904,-9418.149754
956.585539,133.998066,114.855485,-9418.149754
956.586167,95.712904,95.712904,-9399.007173
956.586794,76.570323,114.855485,-9418.149754
956.587422,114.855485,76.570323,-9418.149754
956.588049,95.712904,95.712904,-9437.292334
956.588676,76.570323,114.855485,-9418.149754
956.589304,133.998066,172.283227,-9418.149754
956.589931,38.285162,172.283227,-9418.149754
956.590559,133.998066,114.855485,-9418.149754
956.591186,76.570323,114.855485,-9418.149754
956.591814,95.712904,153.140646,-9360.722011
956.592441,133.998066,114.855485,-9418.149754
956.593068,133.998066,172.283227,-9437.292334
956.593696,133.998066,172.283227,-9399.007173
956.594323,76.570323,114.855485,-9418.149754
956.594951,153.140646,153.140646,-9418.149754
956.595578,114.855485,133.998066,-9360.722011
956.596206,133.998066,114.855485,-9418.149754
956.596833,133.998066,114.855485,-9418.149754
956.597460,133.998066,172.283227,-9418.149754
956.598088,153.140646,210.568389,-9418.149754
956.598715,153.140646,133.998066,-9399.007173
956.599343,76.570323,114.855485,-9418.149754
956.599970,76.570323,114.855485,-9418.149754
956.600598,76.570323,114.855485,-9418.149754
956.601225,57.427742,153.140646,-9418.149754
956.601852,38.285162,153.140646,-9418.149754
956.602480,38.285162,114.855485,-9437.292334
956.603107,133.998066,172.283227,-9418.149754
956.603734,133.998066,114.855485,-9418.149754
956.604361,133.998066,172.283227,-9418.149754
956.604988,133.998066,114.855485,-9418.149754
956.605615,114.855485,210.568389,-9360.722011
956.606242,76.570323,114.855485,-9456.434915
956.606869,57.427742,114.855485,-9494.720077
956.607496,133.998066,153.140646,-9418.149754
956.608124,38.285162,76.570323,-9322.436850
956.608751,114.855485,133.998066,-9360.722011
956.609378,95.712904,133.998066,-9360.722011
956.610005,133.998066,153.140646,-9418.149754
956.610632,95.712904,172.283227,-9360.722011
956.611259,114.855485,133.998066,-9456.434915
956.611886,38.285162,114.855485,-9456.434915
956.612513,76.570323,114.855485,-9418.149754
956.613141,76.570323,210.568389,-9418.149754
956.613768,153.140646,133.998066,-9399.007173
956.614395,76.570323,114.855485,-9418.149754
956.615022,133.998066,114.855485,-9418.149754
956.615649,95.712904,95.712904,-9475.577496
956.616276,114.855485,76.570323,-9418.149754
956.616903,133.998066,114.855485,-9456.434915
956.617530,133.998066,153.140646,-9418.149754
956.618158,95.712904,95.712904,-9437.292334
956.618785,76.570323,153.140646,-9418.149754
956.619412,133.998066,153.140646,-9418.149754
956.620039,95.712904,114.855485,-9494.720077
956.620666,153.140646,191.425808,-9399.007173
956.621293,76.570323,114.855485,-9418.149754
956.621920,76.570323,114.855485,-9418.149754
956.622547,133.998066,172.283227,-9418.149754
956.623175,76.570323,172.283227,-9360.722011
956.623802,133.998066,153.140646,-9418.149754
956.624429,133.998066,133.998066,-9399.007173
956.625056,114.855485,114.855485,-9399.007173
956.625683,133.998066,210.568389,-9437.292334
956.626310,95.712904,114.855485,-9456.434915
956.626937,153.140646,133.998066,-9456.434915
956.627564,76.570323,114.855485,-9418.149754
956.628192,76.570323,172.283227,-9418.149754
956.628819,76.570323,114.855485,-9418.149754
956.629446,153.140646,172.283227,-9399.007173
956.630073,133.998066,114.855485,-9418.149754
956.630700,76.570323,114.855485,-9418.149754
956.631327,133.998066,172.283227,-9399.007173
956.631954,38.285162,114.855485,-9418.149754
956.632581,95.712904,95.712904,-9399.007173
956.633209,133.998066,114.855485,-9533.005238
956.633836,95.712904,172.283227,-9456.434915
956.634463,133.998066,114.855485,-9456.434915
956.635090,114.855485,114.855485,-9379.864592
956.635717,76.570323,172.283227,-9437.292334
956.636344,95.712904,114.855485,-9418.149754
956.636971,133.998066,114.855485,-9437.292334
956.637598,38.285162,172.283227,-9418.149754
956.638226,19.142581,153.140646,-9437.292334
956.638853,38.285162,210.568389,-9475.577496
956.639480,95.712904,95.712904,-9399.007173
956.640107,76.570323,153.140646,-9418.149754
956.640734,76.570323,114.855485,-9418.149754
956.641361,133.998066,76.570323,-9379.864592
956.641988,76.570323,153.140646,-9360.722011
956.642615,76.570323,114.855485,-9418.149754
956.643242,76.570323,114.855485,-9418.149754
956.643870,76.570323,114.855485,-9418.149754
956.644497,76.570323,133.998066,-9418.149754
956.645124,95.712904,114.855485,-9418.149754
956.645751,76.570323,76.570323,-9379.864592
956.646378,57.427742,95.712904,-9399.007173
956.647005,76.570323,114.855485,-9418.149754
956.647632,76.570323,114.855485,-9418.149754
956.648259,133.998066,133.998066,-9399.007173
956.648887,57.427742,133.998066,-9360.722011
956.649514,38.285162,114.855485,-9437.292334
956.650141,76.570323,114.855485,-9418.149754
956.650768,57.427742,133.998066,-9360.722011
956.651395,38.285162,114.855485,-9360.722011
956.652022,76.570323,114.855485,-9418.149754
956.652649,76.570323,114.855485,-9418.149754
956.653276,38.285162,114.855485,-9418.149754
956.653904,76.570323,153.140646,-9418.149754
956.654531,95.712904,95.712904,-9399.007173
956.655158,95.712904,95.712904,-9437.292334
956.655785,76.570323,153.140646,-9418.149754
956.656412,76.570323,153.140646,-9437.292334
956.657039,95.712904,114.855485,-9418.149754
956.657666,57.427742,172.283227,-9360.722011
956.658293,76.570323,114.855485,-9418.149754
956.658921,172.283227,153.140646,-9379.864592
956.659548,114.855485,95.712904,-9399.007173
956.660175,95.712904,191.425808,-9418.149754
956.660802,19.142581,114.855485,-9418.149754
956.661429,133.998066,114.855485,-9360.722011
956.662056,38.285162,153.140646,-9418.149754
956.662683,133.998066,114.855485,-9456.434915
956.663310,153.140646,133.998066,-9399.007173
956.663938,76.570323,153.140646,-9418.149754
956.664565,76.570323,133.998066,-9399.007173
956.665192,95.712904,153.140646,-9418.149754
956.665819,76.570323,172.283227,-9360.722011
956.666446,76.570323,114.855485,-9418.149754
956.667073,133.998066,114.855485,-9437.292334
956.667700,133.998066,172.283227,-9418.149754
956.668327,114.855485,133.998066,-9360.722011
956.668955,114.855485,133.998066,-9360.722011
956.669582,133.998066,133.998066,-9399.007173
956.670209,95.712904,133.998066,-9360.722011
956.670836,38.285162,114.855485,-9418.149754
956.671463,133.998066,114.855485,-9437.292334
956.672090,76.570323,114.855485,-9437.292334
956.672717,153.140646,153.140646,-9399.007173
956.673344,172.283227,153.140646,-9379.864592
956.673972,95.712904,153.140646,-9360.722011
956.674599,114.855485,133.998066,-9360.722011
956.675226,95.712904,133.998066,-9360.722011
956.675853,95.712904,172.283227,-9360.722011
956.676480,38.285162,114.855485,-9418.149754
956.677107,76.570323,114.855485,-9437.292334
956.677734,76.570323,153.140646,-9418.149754
956.678361,95.712904,95.712904,-9399.007173
956.678989,76.570323,114.855485,-9418.149754
956.679616,57.427742,133.998066,-9360.722011
956.680243,153.140646,133.998066,-9399.007173
956.680870,210.568389,172.283227,-9399.007173
956.681497,172.283227,114.855485,-9379.864592
956.682124,114.855485,95.712904,-9399.007173
956.682751,153.140646,133.998066,-9456.434915
956.683378,76.570323,114.855485,-9475.577496
956.684005,38.285162,114.855485,-9456.434915
956.684633,133.998066,114.855485,-9418.149754
956.685260,76.570323,153.140646,-9418.149754
956.685887,95.712904,133.998066,-9341.579430
956.686514,133.998066,114.855485,-9418.149754
956.687141,133.998066,133.998066,-9456.434915
956.687768,133.998066,172.283227,-9418.149754
956.688395,95.712904,153.140646,-9360.722011
956.689022,114.855485,133.998066,-9360.722011
956.689650,76.570323,114.855485,-9418.149754
956.690277,76.570323,114.855485,-9418.149754
956.690904,57.427742,133.998066,-9360.722011
956.691531,38.285162,114.855485,-9456.434915
956.692158,57.427742,133.998066,-9360.722011
956.692785,95.712904,133.998066,-9360.722011
956.693412,153.140646,114.855485,-9418.149754
956.694039,133.998066,114.855485,-9360.722011
956.694667,172.283227,114.855485,-9379.864592
956.695294,133.998066,114.855485,-9437.292334
956.695921,133.998066,114.855485,-9418.149754
956.696548,133.998066,114.855485,-9418.149754
956.697175,133.998066,153.140646,-9418.149754
956.697802,153.140646,133.998066,-9399.007173
956.698429,76.570323,114.855485,-9437.292334
956.699056,76.570323,172.283227,-9418.149754
956.699684,95.712904,153.140646,-9418.149754
956.700311,95.712904,133.998066,-9360.722011
956.700938,76.570323,172.283227,-9418.149754
956.701565,57.427742,133.998066,-9360.722011
956.702192,133.998066,114.855485,-9475.577496
956.702819,133.998066,153.140646,-9399.007173
956.703447,133.998066,114.855485,-9418.149754
956.704074,114.855485,76.570323,-9418.149754
956.704701,95.712904,114.855485,-9418.149754
956.705329,133.998066,114.855485,-9418.149754
956.705956,76.570323,229.710970,-9456.434915
956.706583,76.570323,210.568389,-9418.149754
956.707210,76.570323,210.568389,-9437.292334
956.707838,76.570323,114.855485,-9418.149754
956.708465,95.712904,95.712904,-9399.007173
956.709092,133.998066,153.140646,-9399.007173
956.709720,95.712904,114.855485,-9437.292334
956.710347,133.998066,114.855485,-9456.434915
956.710974,76.570323,114.855485,-9418.149754
956.711602,133.998066,114.855485,-9418.149754
956.712229,57.427742,210.568389,-9418.149754
956.712856,57.427742,114.855485,-9418.149754
956.713483,133.998066,114.855485,-9418.149754
956.714111,114.855485,191.425808,-9360.722011
956.714738,19.142581,153.140646,-9418.149754
956.715365,95.712904,114.855485,-9418.149754
956.715993,133.998066,114.855485,-9418.149754
956.716620,76.570323,153.140646,-9437.292334
956.717247,76.570323,153.140646,-9456.434915
956.717875,76.570323,153.140646,-9418.149754
956.718502,133.998066,153.140646,-9437.292334
956.719129,133.998066,114.855485,-9437.292334
956.719756,153.140646,133.998066,-9399.007173
956.720384,133.998066,114.855485,-9418.149754
956.721011,76.570323,153.140646,-9360.722011
956.721638,133.998066,172.283227,-9418.149754
956.722266,133.998066,114.855485,-9418.149754
956.722893,38.285162,114.855485,-9437.292334
956.723520,95.712904,133.998066,-9360.722011
956.724148,133.998066,172.283227,-9418.149754
956.724775,133.998066,114.855485,-9418.149754
956.725402,114.855485,95.712904,-9399.007173
956.726029,133.998066,114.855485,-9418.149754
956.726657,172.283227,95.712904,-9379.864592
956.727284,76.570323,114.855485,-9418.149754
956.727911,95.712904,133.998066,-9360.722011
956.728539,133.998066,153.140646,-9418.149754
956.729166,133.998066,210.568389,-9418.149754
956.729793,76.570323,114.855485,-9418.149754
956.730421,76.570323,172.283227,-9418.149754
956.731048,76.570323,172.283227,-9418.149754
956.731675,133.998066,133.998066,-9399.007173
956.732302,133.998066,133.998066,-9399.007173
956.732930,76.570323,172.283227,-9437.292334
956.733557,153.140646,114.855485,-9418.149754
956.734184,133.998066,153.140646,-9399.007173
956.734812,76.570323,153.140646,-9418.149754
956.735439,114.855485,95.712904,-9399.007173
956.736066,153.140646,133.998066,-9399.007173
956.736694,133.998066,153.140646,-9418.149754
956.737321,210.568389,133.998066,-9399.007173
956.737948,153.140646,133.998066,-9399.007173
956.738575,133.998066,153.140646,-9418.149754
956.739203,133.998066,172.283227,-9399.007173
956.739830,133.998066,114.855485,-9418.149754
956.740457,76.570323,114.855485,-9360.722011
956.741085,172.283227,172.283227,-9360.722011
956.741712,76.570323,210.568389,-9418.149754
956.742339,57.427742,133.998066,-9360.722011
956.742967,114.855485,95.712904,-9399.007173
956.743594,133.998066,172.283227,-9418.149754
956.744221,153.140646,133.998066,-9399.007173
956.744848,172.283227,114.855485,-9379.864592
956.745476,172.283227,114.855485,-9379.864592
956.746103,153.140646,133.998066,-9399.007173
956.746730,133.998066,133.998066,-9456.434915
956.747358,76.570323,172.283227,-9418.149754
956.747985,76.570323,114.855485,-9418.149754
956.748612,133.998066,210.568389,-9456.434915
956.749240,133.998066,153.140646,-9418.149754
956.749867,133.998066,133.998066,-9456.434915
956.750494,133.998066,114.855485,-9475.577496
956.751122,76.570323,191.425808,-9418.149754
956.751749,95.712904,172.283227,-9360.722011
956.752376,76.570323,114.855485,-9418.149754
956.753003,57.427742,133.998066,-9360.722011
956.753631,114.855485,114.855485,-9399.007173
956.754258,133.998066,114.855485,-9437.292334
956.754885,76.570323,114.855485,-9418.149754
956.755513,133.998066,114.855485,-9418.149754
956.756140,114.855485,95.712904,-9399.007173
956.756767,38.285162,153.140646,-9341.579430
956.757395,133.998066,153.140646,-9360.722011
956.758022,95.712904,133.998066,-9360.722011
956.758649,38.285162,172.283227,-9418.149754
956.759276,133.998066,172.283227,-9418.149754
956.759904,38.285162,210.568389,-9418.149754
956.760531,114.855485,114.855485,-9379.864592
956.761158,114.855485,133.998066,-9360.722011
956.761786,38.285162,172.283227,-9437.292334
956.762413,76.570323,114.855485,-9418.149754
956.763040,95.712904,76.570323,-9322.436850
956.763668,133.998066,133.998066,-9399.007173
956.764295,114.855485,172.283227,-9399.007173
956.764922,114.855485,133.998066,-9360.722011
956.765549,133.998066,114.855485,-9418.149754
956.766177,153.140646,133.998066,-9399.007173
956.766804,153.140646,248.853550,-9456.434915
956.767431,76.570323,229.710970,-9418.149754
956.768059,153.140646,133.998066,-9399.007173
956.768686,76.570323,114.855485,-9418.149754
956.769313,95.712904,95.712904,-9399.007173
956.769941,95.712904,191.425808,-9360.722011
956.770568,76.570323,172.283227,-9437.292334
956.771195,153.140646,172.283227,-9399.007173
956.771822,153.140646,191.425808,-9399.007173
956.772450,95.712904,114.855485,-9418.149754
956.773077,133.998066,76.570323,-9379.864592
956.773704,38.285162,172.283227,-9437.292334
956.774332,133.998066,114.855485,-9418.149754
956.774959,95.712904,114.855485,-9475.577496
956.775586,76.570323,114.855485,-9494.720077
956.776214,76.570323,229.710970,-9418.149754
956.776841,133.998066,114.855485,-9418.149754
956.777468,76.570323,114.855485,-9418.149754
956.778095,153.140646,133.998066,-9437.292334
956.778723,95.712904,95.712904,-9399.007173
956.779350,76.570323,210.568389,-9418.149754
956.779977,153.140646,153.140646,-9456.434915
956.780605,76.570323,114.855485,-9437.292334
956.781232,76.570323,153.140646,-9437.292334
956.781859,76.570323,114.855485,-9418.149754
956.782487,76.570323,114.855485,-9418.149754
956.783114,114.855485,133.998066,-9341.579430
956.783741,153.140646,153.140646,-9456.434915
956.784368,95.712904,210.568389,-9437.292334
956.784996,133.998066,114.855485,-9418.149754
956.785623,114.855485,133.998066,-9341.579430
956.786250,76.570323,114.855485,-9360.722011
956.786878,57.427742,95.712904,-9456.434915
956.787505,114.855485,133.998066,-9360.722011
956.788132,76.570323,210.568389,-9418.149754
956.788760,95.712904,133.998066,-9360.722011
956.789387,133.998066,133.998066,-9399.007173
956.790014,133.998066,153.140646,-9418.149754
956.790641,76.570323,114.855485,-9418.149754
956.791269,76.570323,114.855485,-9418.149754
956.791896,133.998066,210.568389,-9418.149754
956.792523,76.570323,114.855485,-9418.149754
956.793151,76.570323,133.998066,-9360.722011
956.793778,153.140646,172.283227,-9399.007173
956.794405,76.570323,114.855485,-9418.149754
956.795033,76.570323,114.855485,-9437.292334
956.795660,76.570323,153.140646,-9418.149754
956.796287,133.998066,95.712904,-9418.149754
956.796914,133.998066,114.855485,-9418.149754
956.797542,38.285162,114.855485,-9418.149754
956.798169,38.285162,172.283227,-9418.149754
956.798796,76.570323,114.855485,-9418.149754
956.799424,76.570323,210.568389,-9418.149754
956.800051,38.285162,114.855485,-9456.434915
956.800678,95.712904,172.283227,-9418.149754
956.801306,133.998066,210.568389,-9418.149754
956.801933,114.855485,153.140646,-9360.722011
956.802560,38.285162,210.568389,-9418.149754
956.803188,133.998066,114.855485,-9418.149754
956.803815,76.570323,153.140646,-9418.149754
956.804442,76.570323,114.855485,-9437.292334
956.805070,76.570323,229.710970,-9418.149754
956.805697,76.570323,114.855485,-9418.149754
956.806325,76.570323,114.855485,-9418.149754
956.806952,76.570323,153.140646,-9418.149754
956.807579,133.998066,114.855485,-9418.149754
956.808207,153.140646,133.998066,-9456.434915
956.808834,95.712904,210.568389,-9360.722011
956.809461,133.998066,153.140646,-9399.007173
956.810089,95.712904,133.998066,-9360.722011
956.810716,133.998066,210.568389,-9418.149754
956.811344,76.570323,114.855485,-9418.149754
956.811971,76.570323,114.855485,-9418.149754
956.812598,38.285162,114.855485,-9437.292334
956.813226,133.998066,172.283227,-9418.149754
956.813853,95.712904,210.568389,-9418.149754
956.814481,114.855485,172.283227,-9360.722011
956.815108,114.855485,248.853550,-9360.722011
956.815735,133.998066,172.283227,-9418.149754
956.816363,133.998066,114.855485,-9418.149754
956.816990,172.283227,76.570323,-9418.149754
956.817618,76.570323,153.140646,-9456.434915
956.818245,76.570323,229.710970,-9437.292334
956.818872,57.427742,133.998066,-9360.722011
956.819500,95.712904,133.998066,-9360.722011
956.820127,133.998066,114.855485,-9437.292334
956.820755,133.998066,114.855485,-9456.434915
956.821382,57.427742,76.570323,-9475.577496
956.822009,38.285162,114.855485,-9418.149754
956.822637,95.712904,114.855485,-9437.292334
956.823264,153.140646,191.425808,-9399.007173
956.823892,133.998066,114.855485,-9456.434915
956.824519,153.140646,191.425808,-9399.007173
956.825146,133.998066,172.283227,-9418.149754
956.825774,133.998066,191.425808,-9418.149754
956.826401,114.855485,248.853550,-9360.722011
956.827029,133.998066,229.710970,-9418.149754
956.827656,38.285162,172.283227,-9418.149754
956.828283,133.998066,114.855485,-9418.149754
956.828911,57.427742,133.998066,-9360.722011
956.829538,153.140646,172.283227,-9399.007173
956.830166,133.998066,153.140646,-9399.007173
956.830793,133.998066,114.855485,-9418.149754
956.831420,133.998066,114.855485,-9418.149754
956.832048,95.712904,114.855485,-9399.007173
956.832675,76.570323,210.568389,-9437.292334
956.833302,76.570323,114.855485,-9418.149754
956.833930,38.285162,114.855485,-9437.292334
956.834557,133.998066,153.140646,-9418.149754
956.835185,133.998066,114.855485,-9418.149754
956.835812,172.283227,76.570323,-9418.149754
956.836439,95.712904,95.712904,-9399.007173
956.837067,76.570323,114.855485,-9418.149754
956.837694,95.712904,95.712904,-9399.007173
956.838322,114.855485,76.570323,-9437.292334
956.838949,38.285162,114.855485,-9456.434915
956.839576,76.570323,114.855485,-9418.149754
956.840204,114.855485,95.712904,-9399.007173
956.840831,114.855485,133.998066,-9360.722011
956.841459,133.998066,114.855485,-9437.292334
956.842086,133.998066,114.855485,-9418.149754
956.842713,133.998066,114.855485,-9418.149754
956.843341,153.140646,153.140646,-9456.434915
956.843968,133.998066,114.855485,-9418.149754
956.844596,153.140646,133.998066,-9437.292334
956.845223,114.855485,172.283227,-9360.722011
956.845850,133.998066,153.140646,-9437.292334
956.846478,133.998066,153.140646,-9399.007173
956.847105,95.712904,95.712904,-9379.864592
956.847733,114.855485,95.712904,-9399.007173
956.848360,76.570323,172.283227,-9418.149754
956.848987,153.140646,191.425808,-9399.007173
956.849615,76.570323,210.568389,-9437.292334
956.850242,76.570323,153.140646,-9418.149754
956.850870,19.142581,172.283227,-9399.007173
956.851497,133.998066,172.283227,-9418.149754
956.852124,95.712904,172.283227,-9418.149754
956.852752,133.998066,172.283227,-9456.434915
956.853379,57.427742,114.855485,-9418.149754
956.854007,57.427742,172.283227,-9418.149754
956.854634,76.570323,172.283227,-9418.149754
956.855261,76.570323,114.855485,-9418.149754
956.855889,76.570323,153.140646,-9456.434915
956.856516,38.285162,210.568389,-9418.149754
956.857143,76.570323,172.283227,-9418.149754
956.857771,133.998066,114.855485,-9456.434915
956.858398,76.570323,172.283227,-9418.149754
956.859026,133.998066,153.140646,-9360.722011
956.859653,133.998066,172.283227,-9418.149754
956.860280,153.140646,133.998066,-9399.007173
956.860908,76.570323,114.855485,-9437.292334
956.861535,114.855485,133.998066,-9360.722011
956.862163,133.998066,172.283227,-9418.149754
956.862790,133.998066,153.140646,-9418.149754
956.863417,133.998066,172.283227,-9418.149754
956.864045,76.570323,114.855485,-9418.149754
956.864672,95.712904,172.283227,-9360.722011
956.865300,95.712904,114.855485,-9418.149754
956.865927,57.427742,133.998066,-9360.722011
956.866554,76.570323,114.855485,-9418.149754
956.867182,95.712904,210.568389,-9418.149754
956.867809,133.998066,153.140646,-9437.292334
956.868437,95.712904,95.712904,-9437.292334
956.869064,114.855485,95.712904,-9437.292334
956.869691,133.998066,172.283227,-9418.149754
956.870319,133.998066,114.855485,-9418.149754
956.870946,38.285162,114.855485,-9418.149754
956.871574,95.712904,133.998066,-9360.722011
956.872201,76.570323,210.568389,-9418.149754
956.872828,95.712904,95.712904,-9399.007173
956.873456,133.998066,153.140646,-9418.149754
956.874083,76.570323,114.855485,-9418.149754
956.874711,133.998066,114.855485,-9418.149754
956.875338,153.140646,172.283227,-9399.007173
956.875965,133.998066,172.283227,-9399.007173
956.876593,76.570323,153.140646,-9418.149754
956.877220,76.570323,172.283227,-9418.149754
956.877848,38.285162,114.855485,-9418.149754
956.878475,38.285162,153.140646,-9418.149754
956.879102,57.427742,133.998066,-9360.722011
956.879730,133.998066,76.570323,-9379.864592
956.880357,38.285162,172.283227,-9418.149754
956.880984,133.998066,172.283227,-9418.149754
956.881612,76.570323,114.855485,-9437.292334
956.882239,76.570323,114.855485,-9475.577496
956.882867,76.570323,114.855485,-9418.149754
956.883494,95.712904,95.712904,-9399.007173
956.884121,76.570323,153.140646,-9418.149754
956.884749,133.998066,114.855485,-9418.149754
956.885376,133.998066,172.283227,-9418.149754
956.886004,114.855485,133.998066,-9418.149754
956.886631,76.570323,153.140646,-9456.434915
956.887258,76.570323,210.568389,-9418.149754
956.887886,133.998066,172.283227,-9418.149754
956.888513,38.285162,153.140646,-9437.292334
956.889141,133.998066,172.283227,-9418.149754
956.889768,76.570323,133.998066,-9418.149754
956.890395,153.140646,133.998066,-9399.007173
956.891023,172.283227,114.855485,-9379.864592
956.891650,76.570323,114.855485,-9437.292334
956.892278,95.712904,95.712904,-9399.007173
956.892905,76.570323,114.855485,-9418.149754
956.893532,133.998066,133.998066,-9399.007173
956.894160,76.570323,114.855485,-9418.149754
956.894787,114.855485,172.283227,-9360.722011
956.895415,95.712904,95.712904,-9399.007173
956.896042,133.998066,114.855485,-9418.149754
956.896669,133.998066,172.283227,-9418.149754
956.897297,172.283227,172.283227,-9379.864592
956.897924,57.427742,172.283227,-9360.722011
956.898552,133.998066,114.855485,-9418.149754
956.899179,133.998066,172.283227,-9418.149754
956.899806,133.998066,114.855485,-9418.149754
956.900434,76.570323,114.855485,-9360.722011
956.901061,76.570323,114.855485,-9418.149754
956.901689,76.570323,114.855485,-9418.149754
956.902316,38.285162,114.855485,-9418.149754
956.902943,133.998066,114.855485,-9360.722011
956.903571,76.570323,114.855485,-9418.149754
956.904198,38.285162,153.140646,-9418.149754
956.904825,76.570323,153.140646,-9437.292334
956.905453,133.998066,114.855485,-9418.149754
956.906080,76.570323,191.425808,-9360.722011
956.906707,76.570323,114.855485,-9418.149754
956.907335,76.570323,210.568389,-9418.149754
956.907962,76.570323,114.855485,-9418.149754
956.908589,95.712904,114.855485,-9418.149754
956.909217,114.855485,95.712904,-9399.007173
956.909844,38.285162,114.855485,-9418.149754
956.910471,76.570323,210.568389,-9418.149754
956.911099,38.285162,172.283227,-9418.149754
956.911726,133.998066,114.855485,-9418.149754
956.912354,76.570323,114.855485,-9418.149754
956.912981,76.570323,114.855485,-9418.149754
956.913608,95.712904,114.855485,-9418.149754
956.914236,57.427742,133.998066,-9418.149754
956.914863,95.712904,114.855485,-9418.149754
956.915490,38.285162,172.283227,-9418.149754
956.916118,38.285162,153.140646,-9418.149754
956.916745,57.427742,95.712904,-9399.007173
956.917372,133.998066,114.855485,-9456.434915
956.918000,76.570323,172.283227,-9418.149754
956.918627,210.568389,172.283227,-9494.720077
956.919254,76.570323,114.855485,-9418.149754
956.919882,57.427742,114.855485,-9418.149754
956.920509,95.712904,133.998066,-9418.149754
956.921136,133.998066,191.425808,-9418.149754
956.921764,76.570323,133.998066,-9360.722011
956.922391,38.285162,210.568389,-9418.149754
956.923018,76.570323,114.855485,-9475.577496
956.923646,133.998066,114.855485,-9418.149754
956.924273,76.570323,133.998066,-9360.722011
956.924900,76.570323,114.855485,-9418.149754
956.925528,0.000000,191.425808,-9360.722011
956.926155,76.570323,114.855485,-9418.149754
956.926783,133.998066,172.283227,-9399.007173
956.927410,95.712904,133.998066,-9360.722011
956.928037,76.570323,114.855485,-9418.149754
956.928665,133.998066,114.855485,-9418.149754
956.929292,95.712904,95.712904,-9437.292334
956.929919,95.712904,133.998066,-9360.722011
956.930547,114.855485,133.998066,-9360.722011
956.931174,133.998066,114.855485,-9418.149754
956.931801,133.998066,191.425808,-9399.007173
956.932429,114.855485,191.425808,-9360.722011
956.933056,76.570323,172.283227,-9418.149754
956.933683,76.570323,114.855485,-9418.149754
956.934311,38.285162,172.283227,-9418.149754
956.934938,76.570323,114.855485,-9456.434915
956.935565,38.285162,114.855485,-9360.722011
956.936193,76.570323,191.425808,-9360.722011
956.936820,95.712904,95.712904,-9399.007173
956.937447,57.427742,114.855485,-9399.007173
956.938075,133.998066,114.855485,-9437.292334
956.938702,133.998066,153.140646,-9418.149754
956.939330,76.570323,210.568389,-9418.149754
956.939957,95.712904,210.568389,-9418.149754
956.940584,133.998066,153.140646,-9399.007173
956.941212,38.285162,114.855485,-9418.149754
956.941839,76.570323,76.570323,-9379.864592
956.942466,133.998066,114.855485,-9418.149754
956.943094,114.855485,95.712904,-9437.292334
956.943721,153.140646,172.283227,-9418.149754
956.944348,95.712904,133.998066,-9360.722011
956.944976,76.570323,114.855485,-9418.149754
956.945603,153.140646,133.998066,-9399.007173
956.946230,76.570323,210.568389,-9437.292334
956.946858,76.570323,133.998066,-9399.007173
956.947485,133.998066,114.855485,-9360.722011
956.948112,57.427742,248.853550,-9360.722011
956.948740,133.998066,114.855485,-9418.149754
956.949367,76.570323,114.855485,-9418.149754
956.949994,133.998066,133.998066,-9399.007173
956.950622,76.570323,95.712904,-9399.007173
956.951249,153.140646,133.998066,-9399.007173
956.951876,76.570323,114.855485,-9437.292334
956.952504,133.998066,172.283227,-9418.149754
956.953131,153.140646,153.140646,-9399.007173
956.953759,114.855485,172.283227,-9360.722011
956.954386,114.855485,172.283227,-9360.722011
956.955013,95.712904,191.425808,-9418.149754
956.955641,153.140646,191.425808,-9437.292334
956.956268,76.570323,210.568389,-9437.292334
956.956895,38.285162,114.855485,-9418.149754
956.957523,76.570323,210.568389,-9456.434915
956.958150,76.570323,153.140646,-9418.149754
956.958777,114.855485,114.855485,-9456.434915
956.959405,133.998066,114.855485,-9437.292334
956.960032,153.140646,191.425808,-9379.864592
956.960659,38.285162,153.140646,-9418.149754
956.961287,38.285162,114.855485,-9418.149754
956.961914,95.712904,114.855485,-9418.149754
956.962541,76.570323,114.855485,-9418.149754
956.963169,95.712904,153.140646,-9418.149754
956.963796,114.855485,133.998066,-9360.722011
956.964423,191.425808,114.855485,-9379.864592
956.965051,153.140646,133.998066,-9456.434915
956.965678,133.998066,153.140646,-9418.149754
956.966305,76.570323,172.283227,-9437.292334
956.966933,133.998066,172.283227,-9437.292334
956.967560,95.712904,114.855485,-9418.149754
956.968188,133.998066,172.283227,-9418.149754
956.968815,133.998066,172.283227,-9418.149754
956.969442,95.712904,114.855485,-9418.149754
956.970070,76.570323,114.855485,-9418.149754
956.970697,76.570323,114.855485,-9456.434915
956.971324,133.998066,114.855485,-9418.149754
956.971952,133.998066,153.140646,-9418.149754
956.972579,95.712904,114.855485,-9418.149754
956.973206,76.570323,172.283227,-9360.722011
956.973834,38.285162,153.140646,-9360.722011
956.974461,133.998066,172.283227,-9418.149754
956.975088,133.998066,114.855485,-9456.434915
956.975716,76.570323,114.855485,-9418.149754
956.976343,76.570323,114.855485,-9418.149754
956.976970,153.140646,172.283227,-9399.007173
956.977598,114.855485,95.712904,-9437.292334
956.978225,76.570323,133.998066,-9360.722011
956.978852,133.998066,114.855485,-9360.722011
956.979480,95.712904,133.998066,-9360.722011
956.980107,57.427742,172.283227,-9360.722011
956.980735,38.285162,153.140646,-9437.292334
956.981362,133.998066,114.855485,-9418.149754
956.981989,133.998066,133.998066,-9399.007173
956.982617,114.855485,95.712904,-9399.007173
956.983244,133.998066,114.855485,-9418.149754
956.983871,57.427742,133.998066,-9360.722011
956.984499,114.855485,210.568389,-9399.007173
956.985126,76.570323,95.712904,-9399.007173
956.985753,114.855485,114.855485,-9456.434915
956.986381,76.570323,114.855485,-9418.149754
956.987008,133.998066,172.283227,-9418.149754
956.987635,76.570323,172.283227,-9418.149754
956.988263,133.998066,114.855485,-9418.149754
956.988890,133.998066,114.855485,-9418.149754
956.989517,38.285162,114.855485,-9418.149754
956.990145,172.283227,210.568389,-9360.722011
956.990772,76.570323,114.855485,-9418.149754
956.991399,76.570323,153.140646,-9418.149754
956.992027,95.712904,95.712904,-9399.007173
956.992654,133.998066,114.855485,-9418.149754
956.993281,133.998066,114.855485,-9437.292334
956.993909,133.998066,114.855485,-9418.149754
956.994536,95.712904,191.425808,-9341.579430
956.995164,153.140646,153.140646,-9399.007173
956.995791,114.855485,95.712904,-9379.864592
956.996418,133.998066,114.855485,-9418.149754
956.997046,76.570323,114.855485,-9418.149754
956.997673,76.570323,114.855485,-9418.149754
956.998300,114.855485,133.998066,-9360.722011
956.998928,133.998066,114.855485,-9418.149754
956.999555,95.712904,153.140646,-9360.722011
957.000182,133.998066,114.855485,-9418.149754
957.000810,133.998066,114.855485,-9418.149754
957.001437,76.570323,172.283227,-9418.149754
957.002064,57.427742,191.425808,-9360.722011
957.002692,76.570323,114.855485,-9418.149754
957.003319,76.570323,114.855485,-9418.149754
957.003947,133.998066,114.855485,-9418.149754
957.004574,95.712904,133.998066,-9360.722011
957.005202,38.285162,172.283227,-9437.292334
957.005830,76.570323,114.855485,-9418.149754
957.006457,114.855485,95.712904,-9437.292334
957.007085,76.570323,95.712904,-9399.007173
957.007713,76.570323,210.568389,-9418.149754
957.008340,95.712904,172.283227,-9456.434915
957.008968,57.427742,172.283227,-9360.722011
957.009596,76.570323,114.855485,-9418.149754
957.010223,38.285162,210.568389,-9418.149754
957.010851,153.140646,133.998066,-9399.007173
957.011479,38.285162,114.855485,-9418.149754
957.012106,153.140646,133.998066,-9399.007173
957.012734,133.998066,172.283227,-9494.720077
957.013362,76.570323,153.140646,-9456.434915
957.013989,76.570323,172.283227,-9456.434915
957.014617,57.427742,133.998066,-9360.722011
957.015245,133.998066,133.998066,-9399.007173
957.015872,95.712904,114.855485,-9418.149754
957.016500,133.998066,172.283227,-9418.149754
957.017128,133.998066,133.998066,-9399.007173
957.017755,57.427742,95.712904,-9399.007173
957.018383,38.285162,114.855485,-9456.434915
957.019011,76.570323,114.855485,-9418.149754
957.019638,76.570323,114.855485,-9456.434915
957.020266,133.998066,114.855485,-9418.149754
957.020894,133.998066,114.855485,-9418.149754
957.021521,114.855485,133.998066,-9360.722011
957.022149,133.998066,114.855485,-9360.722011
957.022777,133.998066,153.140646,-9399.007173
957.023404,76.570323,114.855485,-9418.149754
957.024032,114.855485,133.998066,-9360.722011
957.024660,133.998066,114.855485,-9456.434915
957.025287,76.570323,114.855485,-9418.149754
957.025915,76.570323,153.140646,-9418.149754
957.026543,133.998066,210.568389,-9418.149754
957.027170,133.998066,210.568389,-9437.292334
957.027798,76.570323,114.855485,-9360.722011
957.028426,133.998066,153.140646,-9399.007173
957.029053,133.998066,191.425808,-9456.434915
957.029681,114.855485,114.855485,-9399.007173
957.030309,95.712904,114.855485,-9418.149754
957.030936,133.998066,172.283227,-9418.149754
957.031564,133.998066,114.855485,-9437.292334
957.032191,114.855485,133.998066,-9418.149754
957.032819,133.998066,114.855485,-9418.149754
957.033447,95.712904,133.998066,-9360.722011
957.034074,38.285162,172.283227,-9418.149754
957.034702,76.570323,114.855485,-9418.149754
957.035330,133.998066,114.855485,-9418.149754
957.035957,114.855485,210.568389,-9379.864592
957.036585,133.998066,153.140646,-9418.149754
957.037213,76.570323,114.855485,-9418.149754
957.037840,133.998066,114.855485,-9418.149754
957.038468,95.712904,172.283227,-9418.149754
957.039096,76.570323,114.855485,-9456.434915
957.039723,133.998066,153.140646,-9418.149754
957.040351,38.285162,172.283227,-9475.577496
957.040979,76.570323,153.140646,-9437.292334
957.041606,76.570323,114.855485,-9418.149754
957.042234,95.712904,95.712904,-9399.007173
957.042862,133.998066,172.283227,-9399.007173
957.043489,153.140646,133.998066,-9399.007173
957.044117,76.570323,153.140646,-9418.149754
957.044745,38.285162,114.855485,-9418.149754
957.045372,76.570323,153.140646,-9418.149754
957.046000,114.855485,76.570323,-9418.149754
957.046628,133.998066,133.998066,-9399.007173
957.047255,76.570323,153.140646,-9418.149754
957.047883,95.712904,210.568389,-9437.292334
957.048511,76.570323,114.855485,-9456.434915
957.049138,76.570323,114.855485,-9418.149754
957.049766,133.998066,133.998066,-9399.007173
957.050394,76.570323,114.855485,-9418.149754
957.051021,76.570323,114.855485,-9418.149754
957.051649,95.712904,133.998066,-9360.722011
957.052277,38.285162,114.855485,-9418.149754
957.052904,133.998066,114.855485,-9418.149754
957.053532,38.285162,114.855485,-9418.149754
957.054160,133.998066,210.568389,-9456.434915
957.054787,76.570323,210.568389,-9418.149754
957.055415,76.570323,191.425808,-9418.149754
957.056043,133.998066,153.140646,-9399.007173
957.056670,133.998066,133.998066,-9399.007173
957.057298,76.570323,114.855485,-9418.149754
957.057926,38.285162,76.570323,-9379.864592
957.058553,76.570323,95.712904,-9399.007173
957.059181,38.285162,114.855485,-9437.292334
957.059809,172.283227,133.998066,-9360.722011
957.060436,114.855485,95.712904,-9437.292334
957.061064,133.998066,153.140646,-9437.292334
957.061692,133.998066,210.568389,-9399.007173
957.062319,38.285162,153.140646,-9418.149754
957.062947,210.568389,133.998066,-9399.007173
957.063575,76.570323,114.855485,-9456.434915
957.064202,76.570323,114.855485,-9418.149754
957.064830,114.855485,133.998066,-9360.722011
957.065458,133.998066,172.283227,-9456.434915
957.066085,172.283227,114.855485,-9379.864592
957.066713,114.855485,95.712904,-9399.007173
957.067341,76.570323,114.855485,-9437.292334
957.067968,76.570323,172.283227,-9418.149754
957.068596,133.998066,114.855485,-9418.149754
957.069224,76.570323,95.712904,-9456.434915
957.069851,76.570323,114.855485,-9418.149754
957.070479,76.570323,172.283227,-9418.149754
957.071107,76.570323,114.855485,-9418.149754
957.071734,133.998066,172.283227,-9418.149754
957.072362,76.570323,191.425808,-9418.149754
957.072990,76.570323,114.855485,-9418.149754
957.073617,133.998066,153.140646,-9456.434915
957.074245,38.285162,153.140646,-9418.149754
957.074872,76.570323,114.855485,-9418.149754
957.075500,76.570323,153.140646,-9437.292334
957.076128,95.712904,95.712904,-9437.292334
957.076755,38.285162,153.140646,-9418.149754
957.077383,153.140646,153.140646,-9399.007173
957.078011,76.570323,153.140646,-9418.149754
957.078638,76.570323,114.855485,-9418.149754
957.079266,19.142581,114.855485,-9494.720077
957.079894,76.570323,76.570323,-9379.864592
957.080521,76.570323,114.855485,-9456.434915
957.081149,133.998066,153.140646,-9437.292334
957.081777,95.712904,95.712904,-9399.007173
957.082404,114.855485,133.998066,-9322.436850
957.083032,133.998066,114.855485,-9456.434915
957.083660,133.998066,114.855485,-9418.149754
957.084287,133.998066,133.998066,-9437.292334
957.084915,114.855485,95.712904,-9399.007173
957.085543,76.570323,114.855485,-9494.720077
957.086170,76.570323,114.855485,-9456.434915
957.086798,57.427742,114.855485,-9418.149754
957.087426,95.712904,95.712904,-9399.007173
957.088053,38.285162,114.855485,-9494.720077
957.088681,57.427742,114.855485,-9418.149754
957.089309,38.285162,114.855485,-9418.149754
957.089936,76.570323,114.855485,-9418.149754
957.090564,76.570323,114.855485,-9418.149754
957.091192,76.570323,153.140646,-9418.149754
957.091819,133.998066,95.712904,-9399.007173
957.092447,133.998066,114.855485,-9456.434915
957.093075,76.570323,95.712904,-9399.007173
957.093702,133.998066,114.855485,-9418.149754
957.094330,133.998066,210.568389,-9360.722011
957.094958,114.855485,133.998066,-9360.722011
957.095585,95.712904,153.140646,-9360.722011
957.096213,133.998066,133.998066,-9399.007173
957.096841,114.855485,95.712904,-9399.007173
957.097468,76.570323,172.283227,-9418.149754
957.098096,38.285162,114.855485,-9418.149754
957.098724,38.285162,210.568389,-9360.722011
957.099351,210.568389,133.998066,-9399.007173
957.099979,133.998066,114.855485,-9456.434915
957.100607,76.570323,114.855485,-9418.149754
957.101234,76.570323,114.855485,-9456.434915
957.101862,133.998066,191.425808,-9418.149754
957.102490,133.998066,114.855485,-9418.149754
957.103117,95.712904,210.568389,-9437.292334
957.103745,153.140646,133.998066,-9399.007173
957.104372,38.285162,172.283227,-9456.434915
957.105000,95.712904,172.283227,-9360.722011
957.105628,76.570323,114.855485,-9418.149754
957.106255,57.427742,133.998066,-9360.722011
957.106883,76.570323,114.855485,-9437.292334
957.107510,133.998066,114.855485,-9418.149754
957.108138,114.855485,133.998066,-9360.722011
957.108765,76.570323,114.855485,-9437.292334
957.109393,76.570323,153.140646,-9418.149754
957.110020,76.570323,76.570323,-9379.864592
957.110648,133.998066,114.855485,-9418.149754
957.111276,38.285162,114.855485,-9418.149754
957.111903,153.140646,248.853550,-9456.434915
957.112531,133.998066,172.283227,-9475.577496
957.113158,76.570323,114.855485,-9418.149754
957.113786,95.712904,153.140646,-9360.722011
957.114413,76.570323,114.855485,-9418.149754
957.115041,133.998066,114.855485,-9418.149754
957.115668,114.855485,114.855485,-9379.864592
957.116296,153.140646,133.998066,-9399.007173
957.116924,38.285162,153.140646,-9418.149754
957.117551,76.570323,114.855485,-9418.149754
957.118179,114.855485,133.998066,-9360.722011
957.118806,76.570323,210.568389,-9418.149754
957.119434,172.283227,153.140646,-9379.864592
957.120061,76.570323,114.855485,-9418.149754
957.120689,114.855485,172.283227,-9360.722011
957.121316,133.998066,210.568389,-9418.149754
957.121944,76.570323,172.283227,-9418.149754
957.122572,133.998066,172.283227,-9418.149754
957.123199,172.283227,114.855485,-9322.436850
957.123827,114.855485,133.998066,-9360.722011
957.124454,95.712904,133.998066,-9360.722011
957.125082,76.570323,114.855485,-9437.292334
957.125709,76.570323,114.855485,-9418.149754
957.126337,153.140646,114.855485,-9418.149754
957.126964,114.855485,133.998066,-9360.722011
957.127592,95.712904,114.855485,-9418.149754
957.128220,76.570323,210.568389,-9418.149754
957.128847,172.283227,114.855485,-9379.864592
957.129475,133.998066,172.283227,-9437.292334
957.130102,133.998066,172.283227,-9456.434915
957.130730,95.712904,210.568389,-9418.149754
957.131357,133.998066,114.855485,-9475.577496
957.131985,133.998066,114.855485,-9437.292334
957.132612,76.570323,114.855485,-9418.149754
957.133240,133.998066,210.568389,-9418.149754
957.133868,114.855485,153.140646,-9360.722011
957.134495,76.570323,114.855485,-9456.434915
957.135123,172.283227,76.570323,-9418.149754
957.135750,95.712904,95.712904,-9399.007173
957.136378,153.140646,153.140646,-9399.007173
957.137005,95.712904,172.283227,-9360.722011
957.137633,95.712904,95.712904,-9399.007173
957.138260,133.998066,153.140646,-9456.434915
957.138888,133.998066,172.283227,-9360.722011
957.139516,133.998066,172.283227,-9418.149754
957.140143,114.855485,210.568389,-9360.722011
957.140771,38.285162,114.855485,-9418.149754
957.141398,95.712904,153.140646,-9418.149754
957.142026,114.855485,133.998066,-9360.722011
957.142653,95.712904,95.712904,-9399.007173
957.143281,95.712904,95.712904,-9399.007173
957.143908,38.285162,114.855485,-9475.577496
957.144536,95.712904,95.712904,-9399.007173
957.145164,76.570323,114.855485,-9475.577496
957.145791,133.998066,114.855485,-9437.292334
957.146419,153.140646,191.425808,-9399.007173
957.147046,38.285162,114.855485,-9437.292334
957.147674,76.570323,114.855485,-9418.149754
957.148301,57.427742,133.998066,-9360.722011
957.148929,133.998066,133.998066,-9475.577496
957.149556,76.570323,153.140646,-9418.149754
957.150184,133.998066,114.855485,-9360.722011
957.150812,38.285162,172.283227,-9418.149754
957.151439,76.570323,210.568389,-9418.149754
957.152067,57.427742,210.568389,-9360.722011
957.152694,76.570323,172.283227,-9456.434915
957.153322,76.570323,114.855485,-9475.577496
957.153949,38.285162,114.855485,-9437.292334
957.154577,57.427742,114.855485,-9418.149754
957.155204,76.570323,114.855485,-9418.149754
957.155832,38.285162,114.855485,-9418.149754
957.156460,76.570323,153.140646,-9418.149754
957.157087,76.570323,114.855485,-9418.149754
957.157715,133.998066,114.855485,-9360.722011
957.158342,76.570323,114.855485,-9418.149754
957.158970,38.285162,114.855485,-9475.577496
957.159597,76.570323,114.855485,-9418.149754
957.160225,114.855485,114.855485,-9399.007173
957.160852,95.712904,172.283227,-9360.722011
957.161480,95.712904,114.855485,-9437.292334
957.162108,95.712904,210.568389,-9418.149754
957.162735,76.570323,172.283227,-9475.577496
957.163363,133.998066,172.283227,-9456.434915
957.163990,95.712904,133.998066,-9341.579430
957.164618,38.285162,172.283227,-9418.149754
957.165245,76.570323,114.855485,-9456.434915
957.165873,76.570323,153.140646,-9418.149754
957.166500,38.285162,172.283227,-9418.149754
957.167128,95.712904,153.140646,-9360.722011
957.167756,57.427742,95.712904,-9456.434915
957.168383,57.427742,133.998066,-9360.722011
957.169011,114.855485,133.998066,-9360.722011
957.169638,95.712904,114.855485,-9456.434915
957.170266,114.855485,114.855485,-9399.007173
957.170893,133.998066,114.855485,-9418.149754
957.171521,133.998066,133.998066,-9437.292334
957.172148,38.285162,114.855485,-9418.149754
957.172776,76.570323,172.283227,-9418.149754
957.173404,133.998066,114.855485,-9418.149754
957.174031,133.998066,114.855485,-9437.292334
957.174659,76.570323,153.140646,-9418.149754
957.175286,76.570323,191.425808,-9418.149754
957.175914,38.285162,114.855485,-9418.149754
957.176541,38.285162,114.855485,-9533.005238
957.177169,38.285162,153.140646,-9456.434915
957.177796,133.998066,210.568389,-9418.149754
957.178424,95.712904,133.998066,-9360.722011
957.179052,76.570323,114.855485,-9418.149754
957.179679,114.855485,95.712904,-9456.434915
957.180307,133.998066,172.283227,-9437.292334
957.180934,133.998066,153.140646,-9418.149754
957.181562,38.285162,172.283227,-9418.149754
957.182189,114.855485,76.570323,-9360.722011
957.182817,114.855485,133.998066,-9360.722011
957.183444,133.998066,172.283227,-9399.007173
957.184072,76.570323,114.855485,-9456.434915
957.184700,76.570323,114.855485,-9418.149754
957.185327,133.998066,114.855485,-9456.434915
957.185955,76.570323,114.855485,-9418.149754
957.186582,57.427742,95.712904,-9399.007173
957.187210,95.712904,210.568389,-9418.149754
957.187837,38.285162,153.140646,-9437.292334
957.188465,95.712904,153.140646,-9418.149754
957.189092,76.570323,114.855485,-9418.149754
957.189720,153.140646,133.998066,-9399.007173
957.190348,95.712904,95.712904,-9379.864592
957.190975,38.285162,114.855485,-9418.149754
957.191603,38.285162,114.855485,-9418.149754
957.192230,76.570323,114.855485,-9437.292334
957.192858,153.140646,133.998066,-9399.007173
957.193485,153.140646,191.425808,-9399.007173
957.194113,153.140646,95.712904,-9360.722011
957.194740,133.998066,210.568389,-9418.149754
957.195368,76.570323,172.283227,-9418.149754
957.195996,76.570323,210.568389,-9418.149754
957.196623,38.285162,114.855485,-9418.149754
957.197251,133.998066,114.855485,-9437.292334
957.197878,76.570323,172.283227,-9418.149754
957.198506,76.570323,114.855485,-9456.434915
957.199133,95.712904,172.283227,-9322.436850
957.199761,76.570323,114.855485,-9418.149754
957.200388,133.998066,172.283227,-9418.149754
957.201016,172.283227,114.855485,-9379.864592
957.201644,133.998066,172.283227,-9418.149754
957.202271,133.998066,172.283227,-9437.292334
957.202899,114.855485,133.998066,-9360.722011
957.203526,153.140646,114.855485,-9456.434915
957.204154,114.855485,133.998066,-9360.722011
957.204781,76.570323,172.283227,-9418.149754
957.205409,95.712904,210.568389,-9418.149754
957.206036,76.570323,95.712904,-9399.007173
957.206664,133.998066,114.855485,-9418.149754
957.207292,133.998066,114.855485,-9418.149754
957.207919,153.140646,133.998066,-9399.007173
957.208547,114.855485,95.712904,-9399.007173
957.209174,153.140646,133.998066,-9399.007173
957.209802,133.998066,114.855485,-9437.292334
957.210429,76.570323,114.855485,-9418.149754
957.211057,76.570323,114.855485,-9418.149754
957.211684,133.998066,114.855485,-9418.149754
957.212312,95.712904,114.855485,-9418.149754
957.212940,76.570323,114.855485,-9418.149754
957.213567,95.712904,133.998066,-9360.722011
957.214195,133.998066,114.855485,-9418.149754
957.214822,38.285162,114.855485,-9456.434915
957.215450,76.570323,114.855485,-9418.149754
957.216077,114.855485,133.998066,-9360.722011
957.216705,76.570323,114.855485,-9418.149754
957.217332,133.998066,172.283227,-9456.434915
957.217960,133.998066,114.855485,-9418.149754
957.218588,76.570323,114.855485,-9360.722011
957.219215,38.285162,114.855485,-9360.722011
957.219843,114.855485,153.140646,-9418.149754
957.220470,133.998066,172.283227,-9418.149754
957.221098,133.998066,172.283227,-9399.007173
957.221725,57.427742,114.855485,-9437.292334
957.222353,76.570323,153.140646,-9418.149754
957.222980,95.712904,133.998066,-9360.722011
957.223608,95.712904,172.283227,-9418.149754
957.224236,76.570323,172.283227,-9418.149754
957.224863,95.712904,133.998066,-9360.722011
957.225491,76.570323,114.855485,-9437.292334
957.226118,76.570323,172.283227,-9418.149754
957.226746,133.998066,153.140646,-9418.149754
957.227373,76.570323,114.855485,-9418.149754
957.228001,76.570323,172.283227,-9418.149754
957.228628,95.712904,133.998066,-9360.722011
957.229256,38.285162,172.283227,-9418.149754
957.229884,95.712904,114.855485,-9418.149754
957.230511,114.855485,114.855485,-9437.292334
957.231139,95.712904,114.855485,-9418.149754
957.231766,95.712904,114.855485,-9418.149754
957.232394,153.140646,153.140646,-9399.007173
957.233021,133.998066,114.855485,-9456.434915
957.233649,76.570323,114.855485,-9456.434915
957.234277,57.427742,133.998066,-9360.722011
957.234904,38.285162,114.855485,-9418.149754
957.235532,38.285162,172.283227,-9437.292334
957.236159,76.570323,153.140646,-9418.149754
957.236787,153.140646,133.998066,-9399.007173
957.237414,133.998066,114.855485,-9437.292334
957.238042,153.140646,133.998066,-9399.007173
957.238669,76.570323,133.998066,-9379.864592
957.239297,76.570323,133.998066,-9360.722011
957.239925,114.855485,172.283227,-9360.722011
957.240552,76.570323,114.855485,-9399.007173
957.241180,133.998066,114.855485,-9437.292334
957.241807,76.570323,114.855485,-9399.007173
957.242435,57.427742,76.570323,-9418.149754
957.243062,38.285162,114.855485,-9418.149754
957.243690,114.855485,133.998066,-9360.722011
957.244317,172.283227,76.570323,-9418.149754
957.244945,76.570323,114.855485,-9418.149754
957.245573,76.570323,172.283227,-9418.149754
957.246200,76.570323,76.570323,-9379.864592
957.246828,133.998066,114.855485,-9418.149754
957.247455,133.998066,114.855485,-9533.005238
957.248083,114.855485,95.712904,-9399.007173
957.248710,76.570323,172.283227,-9418.149754
957.249338,76.570323,95.712904,-9399.007173
957.249965,76.570323,153.140646,-9418.149754
957.250593,76.570323,172.283227,-9437.292334
957.251221,95.712904,133.998066,-9360.722011
957.251848,76.570323,114.855485,-9418.149754
957.252476,133.998066,172.283227,-9418.149754
957.253103,133.998066,114.855485,-9418.149754
957.253731,76.570323,172.283227,-9418.149754
957.254358,133.998066,114.855485,-9418.149754
957.254986,114.855485,133.998066,-9341.579430
957.255613,76.570323,153.140646,-9418.149754
957.256241,153.140646,153.140646,-9399.007173
957.256869,114.855485,133.998066,-9360.722011
957.257496,76.570323,153.140646,-9418.149754
957.258124,133.998066,114.855485,-9418.149754
957.258751,191.425808,114.855485,-9379.864592
957.259379,114.855485,153.140646,-9360.722011
957.260006,38.285162,114.855485,-9494.720077
957.260634,57.427742,114.855485,-9418.149754
957.261261,76.570323,95.712904,-9399.007173
957.261889,133.998066,114.855485,-9418.149754
957.262517,133.998066,114.855485,-9418.149754
957.263144,114.855485,95.712904,-9399.007173
957.263772,133.998066,76.570323,-9379.864592
957.264399,38.285162,114.855485,-9418.149754
957.265027,76.570323,172.283227,-9418.149754
957.265654,133.998066,153.140646,-9418.149754
957.266282,153.140646,172.283227,-9399.007173
957.266909,153.140646,153.140646,-9399.007173
957.267537,153.140646,153.140646,-9399.007173
957.268165,95.712904,95.712904,-9399.007173
957.268792,95.712904,114.855485,-9418.149754
957.269420,133.998066,172.283227,-9475.577496
957.270047,133.998066,172.283227,-9475.577496
957.270675,76.570323,114.855485,-9418.149754
957.271302,133.998066,114.855485,-9360.722011
957.271930,133.998066,114.855485,-9418.149754
957.272557,133.998066,153.140646,-9418.149754
957.273185,95.712904,114.855485,-9418.149754
957.273813,133.998066,172.283227,-9418.149754
957.274440,57.427742,133.998066,-9360.722011
957.275068,133.998066,114.855485,-9418.149754
957.275695,114.855485,133.998066,-9360.722011
957.276323,133.998066,114.855485,-9418.149754
957.276950,76.570323,114.855485,-9418.149754
957.277578,114.855485,133.998066,-9360.722011
957.278205,133.998066,114.855485,-9418.149754
957.278833,0.000000,133.998066,-9360.722011
957.279461,76.570323,153.140646,-9418.149754
957.280088,76.570323,114.855485,-9437.292334
957.280716,76.570323,76.570323,-9379.864592
957.281343,38.285162,172.283227,-9418.149754
957.281971,76.570323,210.568389,-9437.292334
957.282598,76.570323,114.855485,-9456.434915
957.283226,114.855485,133.998066,-9360.722011
957.283853,133.998066,114.855485,-9418.149754
957.284481,114.855485,95.712904,-9399.007173
957.285109,95.712904,114.855485,-9399.007173
957.285736,38.285162,114.855485,-9418.149754
957.286364,133.998066,114.855485,-9418.149754
957.286991,76.570323,172.283227,-9418.149754
957.287619,38.285162,210.568389,-9418.149754
957.288246,95.712904,133.998066,-9360.722011
957.288874,38.285162,114.855485,-9494.720077
957.289501,95.712904,133.998066,-9360.722011
957.290129,133.998066,114.855485,-9437.292334
957.290757,95.712904,114.855485,-9418.149754
957.291384,95.712904,172.283227,-9360.722011
957.292012,38.285162,114.855485,-9418.149754
957.292639,114.855485,172.283227,-9360.722011
957.293267,95.712904,95.712904,-9437.292334
957.293894,133.998066,153.140646,-9437.292334
957.294522,114.855485,172.283227,-9360.722011
957.295149,133.998066,153.140646,-9418.149754
957.295777,95.712904,114.855485,-9418.149754
957.296405,133.998066,153.140646,-9418.149754
957.297032,95.712904,114.855485,-9418.149754
957.297660,133.998066,133.998066,-9399.007173
957.298287,76.570323,172.283227,-9418.149754
957.298915,133.998066,114.855485,-9437.292334
957.299542,133.998066,172.283227,-9418.149754
957.300170,133.998066,114.855485,-9456.434915
957.300797,57.427742,95.712904,-9399.007173
957.301425,76.570323,114.855485,-9418.149754
957.302053,76.570323,153.140646,-9418.149754
957.302680,95.712904,133.998066,-9360.722011
957.303308,76.570323,172.283227,-9418.149754
957.303935,76.570323,114.855485,-9437.292334
957.304563,114.855485,153.140646,-9360.722011
957.305190,133.998066,114.855485,-9418.149754
957.305818,95.712904,133.998066,-9360.722011
957.306446,76.570323,114.855485,-9418.149754
957.307073,76.570323,114.855485,-9418.149754
957.307701,95.712904,95.712904,-9399.007173
957.308328,133.998066,172.283227,-9418.149754
957.308956,38.285162,153.140646,-9418.149754
957.309584,76.570323,114.855485,-9418.149754
957.310211,95.712904,133.998066,-9360.722011
957.310839,153.140646,172.283227,-9456.434915
957.311466,76.570323,114.855485,-9418.149754
957.312094,95.712904,153.140646,-9360.722011
957.312722,38.285162,172.283227,-9418.149754
957.313349,114.855485,133.998066,-9360.722011
957.313977,95.712904,133.998066,-9360.722011
957.314604,95.712904,95.712904,-9399.007173
957.315232,133.998066,114.855485,-9418.149754
957.315860,114.855485,95.712904,-9399.007173
957.316487,133.998066,172.283227,-9418.149754
957.317115,76.570323,114.855485,-9418.149754
957.317742,133.998066,114.855485,-9437.292334
957.318370,133.998066,210.568389,-9456.434915
957.318998,76.570323,153.140646,-9418.149754
957.319625,76.570323,114.855485,-9437.292334
957.320253,57.427742,95.712904,-9399.007173
957.320881,76.570323,114.855485,-9418.149754
957.321508,133.998066,114.855485,-9418.149754
957.322136,133.998066,172.283227,-9399.007173
957.322763,76.570323,114.855485,-9418.149754
957.323391,133.998066,191.425808,-9437.292334
957.324019,57.427742,172.283227,-9418.149754
957.324646,38.285162,153.140646,-9456.434915
957.325274,76.570323,114.855485,-9418.149754
957.325901,38.285162,172.283227,-9437.292334
957.326529,153.140646,172.283227,-9399.007173
957.327157,114.855485,153.140646,-9360.722011
957.327784,133.998066,114.855485,-9418.149754
957.328412,133.998066,114.855485,-9456.434915
957.329039,76.570323,172.283227,-9418.149754
957.329667,38.285162,114.855485,-9456.434915
957.330295,38.285162,210.568389,-9418.149754
957.330922,38.285162,191.425808,-9418.149754
957.331550,76.570323,153.140646,-9418.149754
957.332177,57.427742,133.998066,-9360.722011
957.332805,153.140646,191.425808,-9399.007173
957.333433,133.998066,114.855485,-9475.577496
957.334060,114.855485,153.140646,-9360.722011
957.334688,133.998066,114.855485,-9418.149754
957.335315,76.570323,114.855485,-9418.149754
957.335943,133.998066,172.283227,-9418.149754
957.336571,95.712904,153.140646,-9360.722011
957.337198,38.285162,153.140646,-9418.149754
957.337826,153.140646,133.998066,-9399.007173
957.338453,133.998066,172.283227,-9418.149754
957.339081,76.570323,114.855485,-9418.149754
957.339709,19.142581,114.855485,-9418.149754
957.340336,76.570323,114.855485,-9418.149754
957.340964,57.427742,95.712904,-9399.007173
957.341591,76.570323,114.855485,-9418.149754
957.342219,133.998066,210.568389,-9418.149754
957.342847,76.570323,114.855485,-9418.149754
957.343474,76.570323,153.140646,-9360.722011
957.344102,76.570323,114.855485,-9418.149754
957.344730,57.427742,95.712904,-9456.434915
957.345357,76.570323,114.855485,-9418.149754
957.345985,76.570323,114.855485,-9418.149754
957.346612,133.998066,76.570323,-9379.864592
957.347240,95.712904,95.712904,-9456.434915
957.347868,38.285162,114.855485,-9437.292334
957.348495,76.570323,153.140646,-9437.292334
957.349123,76.570323,210.568389,-9418.149754
957.349750,76.570323,114.855485,-9418.149754
957.350378,76.570323,76.570323,-9379.864592
957.351006,114.855485,133.998066,-9418.149754
957.351633,76.570323,191.425808,-9418.149754
957.352261,76.570323,114.855485,-9418.149754
957.352888,153.140646,133.998066,-9399.007173
957.353516,133.998066,114.855485,-9418.149754
957.354144,133.998066,114.855485,-9418.149754
957.354771,133.998066,153.140646,-9399.007173
957.355399,133.998066,172.283227,-9399.007173
957.356026,95.712904,114.855485,-9418.149754
957.356654,133.998066,114.855485,-9418.149754
957.357282,76.570323,114.855485,-9418.149754
957.357909,133.998066,114.855485,-9418.149754
957.358537,76.570323,114.855485,-9418.149754
957.359164,38.285162,153.140646,-9418.149754
957.359792,95.712904,153.140646,-9360.722011
957.360420,133.998066,114.855485,-9418.149754
957.361047,133.998066,114.855485,-9360.722011
957.361675,57.427742,114.855485,-9399.007173
957.362302,133.998066,114.855485,-9456.434915
957.362930,133.998066,133.998066,-9418.149754
957.363558,76.570323,114.855485,-9475.577496
957.364185,133.998066,114.855485,-9418.149754
957.364813,76.570323,114.855485,-9418.149754
957.365441,57.427742,133.998066,-9360.722011
957.366068,76.570323,172.283227,-9418.149754
957.366696,95.712904,95.712904,-9399.007173
957.367323,76.570323,114.855485,-9418.149754
957.367951,95.712904,172.283227,-9360.722011
957.368579,114.855485,114.855485,-9379.864592
957.369206,133.998066,114.855485,-9418.149754
957.369834,76.570323,114.855485,-9418.149754
957.370461,95.712904,133.998066,-9341.579430
957.371089,76.570323,153.140646,-9456.434915
957.371717,133.998066,114.855485,-9418.149754
957.372344,114.855485,114.855485,-9399.007173
957.372972,133.998066,114.855485,-9437.292334
957.373599,133.998066,114.855485,-9418.149754
957.374227,76.570323,172.283227,-9418.149754
957.374855,76.570323,210.568389,-9418.149754
957.375482,76.570323,114.855485,-9418.149754
957.376110,95.712904,133.998066,-9360.722011
957.376737,76.570323,172.283227,-9418.149754
957.377365,133.998066,114.855485,-9456.434915
957.377993,76.570323,114.855485,-9418.149754
957.378620,76.570323,114.855485,-9418.149754
957.379248,76.570323,114.855485,-9399.007173
957.379875,133.998066,114.855485,-9456.434915
957.380503,76.570323,114.855485,-9418.149754
957.381131,133.998066,114.855485,-9418.149754
957.381758,153.140646,95.712904,-9360.722011
957.382386,172.283227,114.855485,-9379.864592
957.383013,76.570323,76.570323,-9379.864592
957.383641,133.998066,114.855485,-9418.149754
957.384269,38.285162,114.855485,-9418.149754
957.384896,57.427742,191.425808,-9341.579430
957.385524,76.570323,114.855485,-9437.292334
957.386152,76.570323,172.283227,-9418.149754
957.386779,76.570323,114.855485,-9418.149754
957.387407,76.570323,114.855485,-9418.149754
957.388034,57.427742,114.855485,-9475.577496
957.388662,133.998066,114.855485,-9418.149754
957.389290,133.998066,114.855485,-9418.149754
957.389917,76.570323,114.855485,-9475.577496
957.390545,76.570323,172.283227,-9475.577496
957.391172,76.570323,114.855485,-9418.149754
957.391800,133.998066,114.855485,-9418.149754
957.392428,133.998066,114.855485,-9418.149754
957.393055,38.285162,133.998066,-9360.722011
957.393683,95.712904,133.998066,-9360.722011
957.394310,95.712904,210.568389,-9475.577496
957.394938,133.998066,153.140646,-9418.149754
957.395566,76.570323,172.283227,-9475.577496
957.396193,76.570323,210.568389,-9418.149754
957.396821,114.855485,172.283227,-9360.722011
957.397448,76.570323,229.710970,-9418.149754
957.398076,95.712904,172.283227,-9418.149754
957.398704,38.285162,210.568389,-9418.149754
957.399331,76.570323,114.855485,-9418.149754
957.399959,76.570323,191.425808,-9418.149754
957.400586,133.998066,153.140646,-9418.149754
957.401214,95.712904,133.998066,-9360.722011
957.401842,172.283227,76.570323,-9456.434915
957.402469,76.570323,114.855485,-9418.149754
957.403097,76.570323,172.283227,-9418.149754
957.403724,76.570323,114.855485,-9418.149754
957.404352,95.712904,133.998066,-9360.722011
957.404980,114.855485,133.998066,-9360.722011
957.405607,76.570323,153.140646,-9437.292334
957.406235,133.998066,114.855485,-9437.292334
957.406862,114.855485,95.712904,-9399.007173
957.407490,114.855485,95.712904,-9456.434915
957.408117,95.712904,76.570323,-9379.864592
957.408745,95.712904,114.855485,-9418.149754
957.409372,95.712904,248.853550,-9360.722011
957.410000,95.712904,172.283227,-9360.722011
957.410627,133.998066,172.283227,-9399.007173
957.411255,76.570323,191.425808,-9418.149754
957.411882,76.570323,172.283227,-9418.149754
957.412510,133.998066,153.140646,-9399.007173
957.413138,133.998066,114.855485,-9418.149754
957.413765,95.712904,114.855485,-9399.007173
957.414393,133.998066,114.855485,-9418.149754
957.415020,133.998066,153.140646,-9456.434915
957.415648,133.998066,114.855485,-9418.149754
957.416275,38.285162,114.855485,-9437.292334
957.416903,133.998066,172.283227,-9456.434915
957.417530,95.712904,114.855485,-9418.149754
957.418158,133.998066,153.140646,-9418.149754
957.418785,76.570323,114.855485,-9456.434915
957.419413,114.855485,133.998066,-9360.722011
957.420040,153.140646,172.283227,-9399.007173
957.420668,133.998066,210.568389,-9418.149754
957.421295,133.998066,210.568389,-9360.722011
957.421923,114.855485,191.425808,-9360.722011
957.422550,57.427742,153.140646,-9418.149754
957.423178,133.998066,114.855485,-9456.434915
957.423805,76.570323,114.855485,-9437.292334
957.424433,76.570323,172.283227,-9418.149754
957.425061,76.570323,114.855485,-9418.149754
957.425688,76.570323,114.855485,-9418.149754
957.426316,57.427742,133.998066,-9418.149754
957.426943,133.998066,172.283227,-9418.149754
957.427571,95.712904,114.855485,-9418.149754
957.428198,76.570323,114.855485,-9418.149754
957.428826,133.998066,210.568389,-9418.149754
957.429453,95.712904,248.853550,-9360.722011
957.430081,153.140646,133.998066,-9399.007173
957.430708,153.140646,133.998066,-9437.292334
957.431336,95.712904,133.998066,-9360.722011
957.431963,95.712904,133.998066,-9360.722011
957.432591,38.285162,114.855485,-9418.149754
957.433218,95.712904,191.425808,-9360.722011
957.433846,38.285162,95.712904,-9399.007173
957.434473,38.285162,191.425808,-9418.149754
957.435101,153.140646,191.425808,-9456.434915
957.435728,76.570323,153.140646,-9418.149754
957.436356,114.855485,191.425808,-9360.722011
957.436984,95.712904,114.855485,-9418.149754
957.437611,76.570323,114.855485,-9418.149754
957.438239,114.855485,133.998066,-9418.149754
957.438866,76.570323,172.283227,-9418.149754
957.439494,19.142581,191.425808,-9437.292334
957.440121,133.998066,210.568389,-9437.292334
957.440749,76.570323,210.568389,-9418.149754
957.441376,95.712904,172.283227,-9418.149754
957.442004,133.998066,172.283227,-9399.007173
957.442631,133.998066,114.855485,-9418.149754
957.443259,76.570323,114.855485,-9437.292334
957.443886,76.570323,114.855485,-9456.434915
957.444514,38.285162,153.140646,-9418.149754
957.445141,95.712904,95.712904,-9399.007173
957.445769,95.712904,95.712904,-9399.007173
957.446396,95.712904,153.140646,-9418.149754
957.447024,95.712904,95.712904,-9399.007173
957.447651,133.998066,172.283227,-9418.149754
957.448279,76.570323,210.568389,-9418.149754
957.448907,57.427742,210.568389,-9418.149754
957.449534,76.570323,114.855485,-9475.577496
957.450162,133.998066,114.855485,-9418.149754
957.450789,133.998066,153.140646,-9399.007173
957.451417,133.998066,114.855485,-9418.149754
957.452044,114.855485,153.140646,-9322.436850
957.452672,38.285162,114.855485,-9437.292334
957.453299,76.570323,114.855485,-9360.722011
957.453927,133.998066,114.855485,-9418.149754
957.454554,133.998066,114.855485,-9418.149754
957.455182,133.998066,153.140646,-9418.149754
957.455809,153.140646,114.855485,-9418.149754
957.456437,76.570323,114.855485,-9418.149754
957.457064,133.998066,114.855485,-9418.149754
957.457692,133.998066,114.855485,-9418.149754
957.458319,172.283227,153.140646,-9379.864592
957.458947,114.855485,95.712904,-9437.292334
957.459574,76.570323,153.140646,-9418.149754
957.460202,76.570323,114.855485,-9418.149754
957.460830,76.570323,153.140646,-9418.149754
957.461457,95.712904,191.425808,-9418.149754
957.462085,153.140646,133.998066,-9399.007173
957.462712,76.570323,172.283227,-9494.720077
957.463340,133.998066,210.568389,-9418.149754
957.463967,76.570323,114.855485,-9437.292334
957.464595,133.998066,114.855485,-9418.149754
957.465222,38.285162,114.855485,-9437.292334
957.465850,76.570323,153.140646,-9418.149754
957.466477,114.855485,133.998066,-9360.722011
957.467105,114.855485,133.998066,-9360.722011
957.467732,133.998066,114.855485,-9418.149754
957.468360,153.140646,133.998066,-9399.007173
957.468987,133.998066,114.855485,-9418.149754
957.469615,133.998066,114.855485,-9418.149754
957.470242,76.570323,153.140646,-9418.149754
957.470870,38.285162,114.855485,-9418.149754
957.471497,133.998066,114.855485,-9418.149754
957.472125,76.570323,114.855485,-9418.149754
957.472753,76.570323,172.283227,-9418.149754
957.473380,76.570323,114.855485,-9437.292334
957.474008,133.998066,114.855485,-9418.149754
957.474635,57.427742,153.140646,-9418.149754
957.475263,38.285162,114.855485,-9418.149754
957.475890,95.712904,114.855485,-9399.007173
957.476518,95.712904,114.855485,-9437.292334
957.477145,114.855485,172.283227,-9360.722011
957.477773,114.855485,133.998066,-9533.005238
957.478400,133.998066,153.140646,-9418.149754
957.479028,76.570323,153.140646,-9437.292334
957.479655,38.285162,114.855485,-9456.434915
957.480283,114.855485,133.998066,-9360.722011
957.480910,57.427742,133.998066,-9418.149754
957.481538,114.855485,133.998066,-9360.722011
957.482165,76.570323,114.855485,-9418.149754
957.482793,133.998066,114.855485,-9418.149754
957.483420,76.570323,114.855485,-9418.149754
957.484048,57.427742,114.855485,-9437.292334
957.484676,38.285162,114.855485,-9418.149754
957.485303,114.855485,95.712904,-9399.007173
957.485931,95.712904,38.285162,-9399.007173
957.486558,19.142581,114.855485,-9418.149754
957.487186,76.570323,172.283227,-9360.722011
957.487813,114.855485,153.140646,-9360.722011
957.488441,76.570323,114.855485,-9418.149754
957.489068,133.998066,114.855485,-9418.149754
957.489696,133.998066,172.283227,-9418.149754
957.490323,76.570323,114.855485,-9494.720077
957.490951,114.855485,153.140646,-9360.722011
957.491578,133.998066,191.425808,-9437.292334
957.492206,76.570323,114.855485,-9418.149754
957.492833,133.998066,172.283227,-9418.149754
957.493461,95.712904,133.998066,-9341.579430
957.494088,133.998066,172.283227,-9399.007173
957.494716,114.855485,210.568389,-9360.722011
957.495343,38.285162,153.140646,-9418.149754
957.495971,76.570323,114.855485,-9456.434915
957.496599,114.855485,133.998066,-9341.579430
957.497226,133.998066,95.712904,-9437.292334
957.497854,38.285162,114.855485,-9437.292334
957.498481,95.712904,95.712904,-9437.292334
957.499109,95.712904,114.855485,-9456.434915
957.499736,153.140646,153.140646,-9418.149754
957.500364,76.570323,114.855485,-9456.434915
957.500991,95.712904,95.712904,-9399.007173
957.501619,76.570323,114.855485,-9437.292334
957.502246,133.998066,153.140646,-9456.434915
957.502874,133.998066,191.425808,-9418.149754
957.503501,38.285162,114.855485,-9418.149754
957.504129,38.285162,229.710970,-9418.149754
957.504756,95.712904,114.855485,-9399.007173
957.505384,133.998066,114.855485,-9418.149754
957.506011,38.285162,114.855485,-9418.149754
957.506639,95.712904,172.283227,-9360.722011
957.507266,38.285162,114.855485,-9418.149754
957.507894,76.570323,114.855485,-9418.149754
957.508521,95.712904,172.283227,-9418.149754
957.509149,133.998066,133.998066,-9399.007173
957.509776,133.998066,114.855485,-9418.149754
957.510404,133.998066,114.855485,-9418.149754
957.511031,76.570323,114.855485,-9418.149754
957.511658,153.140646,133.998066,-9399.007173
957.512286,133.998066,114.855485,-9418.149754
957.512913,38.285162,114.855485,-9418.149754
957.513541,95.712904,114.855485,-9418.149754
957.514168,133.998066,114.855485,-9418.149754
957.514796,76.570323,114.855485,-9437.292334
957.515423,76.570323,114.855485,-9418.149754
957.516051,38.285162,172.283227,-9456.434915
957.516678,133.998066,153.140646,-9418.149754
957.517305,95.712904,133.998066,-9360.722011
957.517933,38.285162,114.855485,-9418.149754
957.518560,76.570323,114.855485,-9418.149754
957.519188,76.570323,133.998066,-9360.722011
957.519815,76.570323,153.140646,-9418.149754
957.520443,76.570323,172.283227,-9418.149754
957.521070,76.570323,172.283227,-9475.577496
957.521698,95.712904,153.140646,-9360.722011
957.522325,133.998066,153.140646,-9494.720077
957.522953,76.570323,114.855485,-9418.149754
957.523580,95.712904,95.712904,-9399.007173
957.524207,133.998066,114.855485,-9437.292334
957.524835,76.570323,114.855485,-9418.149754
957.525462,133.998066,172.283227,-9456.434915
957.526090,133.998066,114.855485,-9418.149754
957.526717,57.427742,114.855485,-9437.292334
957.527345,57.427742,133.998066,-9360.722011
957.527972,95.712904,153.140646,-9418.149754
957.528600,153.140646,114.855485,-9418.149754
957.529227,133.998066,210.568389,-9418.149754
957.529855,114.855485,133.998066,-9360.722011
957.530482,95.712904,172.283227,-9341.579430
957.531109,76.570323,133.998066,-9360.722011
957.531737,133.998066,114.855485,-9475.577496
957.532364,76.570323,172.283227,-9418.149754
957.532992,133.998066,153.140646,-9418.149754
957.533619,76.570323,210.568389,-9456.434915
957.534247,95.712904,95.712904,-9399.007173
957.534874,76.570323,114.855485,-9418.149754
957.535502,95.712904,153.140646,-9360.722011
957.536129,76.570323,114.855485,-9418.149754
957.536757,76.570323,114.855485,-9360.722011
957.537384,95.712904,133.998066,-9360.722011
957.538011,76.570323,76.570323,-9379.864592
957.538639,76.570323,114.855485,-9437.292334
957.539266,153.140646,153.140646,-9418.149754
957.539894,76.570323,153.140646,-9418.149754
957.540521,133.998066,114.855485,-9418.149754
957.541149,153.140646,133.998066,-9399.007173
957.541776,76.570323,114.855485,-9437.292334
957.542404,76.570323,95.712904,-9418.149754
957.543031,133.998066,114.855485,-9418.149754
957.543658,133.998066,191.425808,-9418.149754
957.544286,114.855485,133.998066,-9360.722011
957.544913,76.570323,172.283227,-9360.722011
957.545541,76.570323,114.855485,-9418.149754
957.546168,133.998066,114.855485,-9456.434915
957.546796,153.140646,172.283227,-9399.007173
957.547423,114.855485,114.855485,-9379.864592
957.548051,133.998066,191.425808,-9437.292334
957.548678,76.570323,114.855485,-9418.149754
957.549306,19.142581,114.855485,-9418.149754
957.549933,38.285162,172.283227,-9418.149754
957.550560,133.998066,210.568389,-9418.149754
957.551188,76.570323,153.140646,-9418.149754
957.551815,76.570323,153.140646,-9360.722011
957.552443,133.998066,153.140646,-9418.149754
957.553070,153.140646,133.998066,-9399.007173
957.553698,76.570323,210.568389,-9418.149754
957.554325,38.285162,153.140646,-9418.149754
957.554953,133.998066,114.855485,-9437.292334
957.555580,95.712904,133.998066,-9360.722011
957.556208,95.712904,172.283227,-9360.722011
957.556835,133.998066,133.998066,-9437.292334
957.557462,76.570323,172.283227,-9418.149754
957.558090,76.570323,114.855485,-9418.149754
957.558717,133.998066,114.855485,-9418.149754
957.559345,133.998066,133.998066,-9399.007173
957.559972,76.570323,114.855485,-9418.149754
957.560600,133.998066,172.283227,-9418.149754
957.561227,76.570323,114.855485,-9418.149754
957.561855,76.570323,114.855485,-9418.149754
957.562482,114.855485,133.998066,-9360.722011
957.563110,133.998066,114.855485,-9475.577496
957.563737,38.285162,114.855485,-9437.292334
957.564364,57.427742,95.712904,-9399.007173
957.564992,76.570323,114.855485,-9418.149754
957.565619,57.427742,114.855485,-9456.434915
957.566247,114.855485,133.998066,-9360.722011
957.566874,76.570323,172.283227,-9418.149754
957.567502,76.570323,114.855485,-9418.149754
957.568129,76.570323,172.283227,-9418.149754
957.568757,133.998066,133.998066,-9399.007173
957.569384,95.712904,95.712904,-9399.007173
957.570012,76.570323,114.855485,-9418.149754
957.570639,38.285162,114.855485,-9418.149754
957.571266,133.998066,114.855485,-9456.434915
957.571894,76.570323,114.855485,-9418.149754
957.572521,95.712904,95.712904,-9399.007173
957.573149,76.570323,133.998066,-9360.722011
957.573776,38.285162,114.855485,-9418.149754
957.574404,133.998066,114.855485,-9360.722011
957.575031,114.855485,133.998066,-9360.722011
957.575659,153.140646,210.568389,-9399.007173
957.576286,114.855485,133.998066,-9360.722011
957.576913,133.998066,114.855485,-9418.149754
957.577541,114.855485,95.712904,-9399.007173
957.578168,133.998066,114.855485,-9437.292334
957.578796,38.285162,114.855485,-9360.722011
957.579423,76.570323,172.283227,-9418.149754
957.580051,38.285162,172.283227,-9418.149754
957.580678,76.570323,210.568389,-9418.149754
957.581306,210.568389,133.998066,-9399.007173
957.581933,133.998066,114.855485,-9437.292334
957.582561,133.998066,153.140646,-9437.292334
957.583188,133.998066,133.998066,-9456.434915
957.583815,133.998066,114.855485,-9418.149754
957.584443,114.855485,95.712904,-9494.720077
957.585070,133.998066,114.855485,-9418.149754
957.585698,153.140646,133.998066,-9399.007173
957.586325,153.140646,114.855485,-9456.434915
957.586953,133.998066,133.998066,-9399.007173
957.587580,38.285162,114.855485,-9418.149754
957.588208,76.570323,172.283227,-9418.149754
957.588835,38.285162,114.855485,-9360.722011
957.589463,153.140646,133.998066,-9399.007173
957.590090,133.998066,133.998066,-9399.007173
957.590717,133.998066,114.855485,-9418.149754
957.591345,133.998066,114.855485,-9360.722011
957.591972,95.712904,114.855485,-9418.149754
957.592600,133.998066,114.855485,-9456.434915
957.593227,153.140646,133.998066,-9437.292334
957.593855,153.140646,172.283227,-9437.292334
957.594482,133.998066,210.568389,-9418.149754
957.595110,95.712904,191.425808,-9360.722011
957.595737,76.570323,114.855485,-9418.149754
957.596365,95.712904,95.712904,-9437.292334
957.596992,38.285162,76.570323,-9379.864592
957.597619,95.712904,153.140646,-9360.722011
957.598247,95.712904,114.855485,-9418.149754
957.598874,133.998066,114.855485,-9418.149754
957.599502,38.285162,114.855485,-9418.149754
957.600129,133.998066,114.855485,-9437.292334
957.600757,133.998066,114.855485,-9418.149754
957.601384,38.285162,114.855485,-9418.149754
957.602012,95.712904,114.855485,-9475.577496
957.602639,133.998066,114.855485,-9418.149754
957.603266,76.570323,114.855485,-9418.149754
957.603894,95.712904,114.855485,-9418.149754
957.604521,153.140646,114.855485,-9418.149754
957.605149,133.998066,114.855485,-9360.722011
957.605776,133.998066,172.283227,-9418.149754
957.606404,38.285162,114.855485,-9418.149754
957.607031,57.427742,172.283227,-9360.722011
957.607658,38.285162,133.998066,-9360.722011
957.608286,133.998066,76.570323,-9379.864592
957.608913,38.285162,95.712904,-9418.149754
957.609540,133.998066,114.855485,-9418.149754
957.610168,38.285162,76.570323,-9379.864592
957.610795,76.570323,210.568389,-9418.149754
957.611423,38.285162,172.283227,-9418.149754
957.612050,76.570323,114.855485,-9475.577496
957.612677,95.712904,114.855485,-9418.149754
957.613305,76.570323,114.855485,-9418.149754
957.613932,76.570323,153.140646,-9418.149754
957.614559,133.998066,210.568389,-9418.149754
957.615187,133.998066,153.140646,-9437.292334
957.615814,76.570323,114.855485,-9418.149754
957.616441,76.570323,172.283227,-9418.149754
957.617069,76.570323,114.855485,-9456.434915
957.617696,76.570323,133.998066,-9360.722011
957.618324,76.570323,172.283227,-9418.149754
957.618951,133.998066,153.140646,-9399.007173
957.619578,153.140646,172.283227,-9399.007173
957.620206,133.998066,114.855485,-9418.149754
957.620833,95.712904,114.855485,-9399.007173
957.621460,76.570323,210.568389,-9437.292334
957.622088,38.285162,153.140646,-9418.149754
957.622715,133.998066,153.140646,-9418.149754
957.623342,114.855485,153.140646,-9379.864592
957.623970,114.855485,172.283227,-9360.722011
957.624597,133.998066,114.855485,-9418.149754
957.625225,133.998066,114.855485,-9418.149754
957.625852,76.570323,210.568389,-9418.149754
957.626479,76.570323,114.855485,-9418.149754
957.627107,38.285162,114.855485,-9418.149754
957.627734,172.283227,76.570323,-9437.292334
957.628361,76.570323,57.427742,-9399.007173
957.628989,76.570323,114.855485,-9437.292334
957.629616,133.998066,172.283227,-9418.149754
957.630243,76.570323,114.855485,-9437.292334
957.630871,133.998066,114.855485,-9360.722011
957.631498,133.998066,114.855485,-9418.149754
957.632126,76.570323,172.283227,-9418.149754
957.632753,95.712904,114.855485,-9418.149754
957.633380,153.140646,133.998066,-9456.434915
957.634008,76.570323,114.855485,-9418.149754
957.634635,133.998066,153.140646,-9418.149754
957.635262,114.855485,95.712904,-9399.007173
957.635890,76.570323,153.140646,-9418.149754
957.636517,153.140646,153.140646,-9399.007173
957.637144,38.285162,114.855485,-9418.149754
957.637772,38.285162,114.855485,-9418.149754
957.638399,38.285162,114.855485,-9418.149754
957.639027,38.285162,114.855485,-9418.149754
957.639654,57.427742,172.283227,-9418.149754
957.640281,133.998066,114.855485,-9418.149754
957.640909,76.570323,114.855485,-9418.149754
957.641536,76.570323,153.140646,-9418.149754
957.642163,95.712904,153.140646,-9360.722011
957.642791,133.998066,191.425808,-9379.864592
957.643418,133.998066,210.568389,-9418.149754
957.644045,95.712904,153.140646,-9360.722011
957.644673,133.998066,172.283227,-9418.149754
957.645300,95.712904,95.712904,-9399.007173
957.645928,133.998066,114.855485,-9360.722011
957.646555,133.998066,76.570323,-9379.864592
957.647182,133.998066,114.855485,-9418.149754
957.647810,76.570323,114.855485,-9418.149754
957.648437,153.140646,210.568389,-9399.007173
957.649064,114.855485,133.998066,-9360.722011
957.649692,133.998066,172.283227,-9418.149754
957.650319,133.998066,133.998066,-9360.722011
957.650946,95.712904,95.712904,-9437.292334
957.651574,133.998066,153.140646,-9418.149754
957.652201,76.570323,153.140646,-9418.149754
957.652829,133.998066,114.855485,-9418.149754
957.653456,133.998066,114.855485,-9418.149754
957.654083,133.998066,76.570323,-9379.864592
957.654711,172.283227,76.570323,-9456.434915
957.655338,76.570323,114.855485,-9418.149754
957.655965,95.712904,95.712904,-9456.434915
957.656593,76.570323,114.855485,-9437.292334
957.657220,76.570323,153.140646,-9418.149754
957.657847,95.712904,95.712904,-9456.434915
957.658475,95.712904,114.855485,-9418.149754
957.659102,95.712904,95.712904,-9399.007173
957.659730,114.855485,95.712904,-9399.007173
957.660357,114.855485,172.283227,-9360.722011
957.660984,95.712904,133.998066,-9360.722011
957.661612,76.570323,114.855485,-9418.149754
957.662239,95.712904,133.998066,-9360.722011
957.662866,38.285162,153.140646,-9418.149754
957.663494,153.140646,133.998066,-9437.292334
957.664121,133.998066,153.140646,-9418.149754
957.664748,57.427742,133.998066,-9360.722011
957.665376,57.427742,133.998066,-9360.722011
957.666003,76.570323,76.570323,-9379.864592
957.666631,133.998066,114.855485,-9418.149754
957.667258,133.998066,114.855485,-9418.149754
957.667885,76.570323,153.140646,-9418.149754
957.668513,57.427742,172.283227,-9360.722011
957.669140,38.285162,114.855485,-9418.149754
957.669767,76.570323,114.855485,-9418.149754
957.670395,76.570323,191.425808,-9494.720077
957.671022,153.140646,191.425808,-9475.577496
957.671649,76.570323,114.855485,-9418.149754
957.672277,133.998066,114.855485,-9494.720077
957.672904,76.570323,153.140646,-9418.149754
957.673532,57.427742,248.853550,-9360.722011
957.674159,133.998066,114.855485,-9418.149754
957.674786,133.998066,210.568389,-9360.722011
957.675414,114.855485,229.710970,-9379.864592
957.676041,133.998066,133.998066,-9399.007173
957.676668,76.570323,114.855485,-9418.149754
957.677296,95.712904,172.283227,-9418.149754
957.677923,38.285162,210.568389,-9418.149754
957.678550,38.285162,229.710970,-9418.149754
957.679178,38.285162,114.855485,-9418.149754
957.679805,76.570323,114.855485,-9418.149754
957.680433,76.570323,114.855485,-9418.149754
957.681060,38.285162,114.855485,-9418.149754
957.681687,38.285162,114.855485,-9456.434915
957.682315,114.855485,95.712904,-9456.434915
957.682942,76.570323,114.855485,-9418.149754
957.683569,76.570323,114.855485,-9418.149754
957.684197,114.855485,95.712904,-9437.292334
957.684824,76.570323,114.855485,-9418.149754
957.685451,133.998066,133.998066,-9437.292334
957.686079,76.570323,191.425808,-9456.434915
957.686706,76.570323,191.425808,-9418.149754
957.687334,114.855485,133.998066,-9360.722011
957.687961,133.998066,76.570323,-9379.864592
957.688588,153.140646,153.140646,-9418.149754
957.689216,76.570323,153.140646,-9418.149754
957.689843,38.285162,114.855485,-9418.149754
957.690470,95.712904,114.855485,-9418.149754
957.691098,76.570323,229.710970,-9418.149754
957.691725,38.285162,114.855485,-9418.149754
957.692352,38.285162,153.140646,-9418.149754
957.692980,38.285162,153.140646,-9418.149754
957.693607,76.570323,191.425808,-9418.149754
957.694235,133.998066,114.855485,-9418.149754
957.694862,114.855485,133.998066,-9360.722011
957.695489,133.998066,172.283227,-9418.149754
957.696117,57.427742,133.998066,-9360.722011
957.696744,133.998066,114.855485,-9418.149754
957.697371,153.140646,133.998066,-9399.007173
957.697999,38.285162,114.855485,-9418.149754
957.698626,114.855485,95.712904,-9399.007173
957.699253,76.570323,114.855485,-9418.149754
957.699881,38.285162,191.425808,-9418.149754
957.700508,114.855485,133.998066,-9360.722011
957.701136,133.998066,114.855485,-9456.434915
957.701763,133.998066,153.140646,-9418.149754
957.702390,95.712904,133.998066,-9360.722011
957.703018,57.427742,133.998066,-9341.579430
957.703645,57.427742,133.998066,-9360.722011
957.704272,114.855485,248.853550,-9360.722011
957.704900,114.855485,191.425808,-9379.864592
957.705527,172.283227,76.570323,-9418.149754
957.706154,133.998066,114.855485,-9418.149754
957.706782,76.570323,114.855485,-9418.149754
957.707409,76.570323,114.855485,-9418.149754
957.708037,114.855485,95.712904,-9399.007173
957.708664,76.570323,114.855485,-9418.149754
957.709291,57.427742,76.570323,-9379.864592
957.709919,76.570323,172.283227,-9360.722011
957.710546,95.712904,191.425808,-9360.722011
957.711173,153.140646,191.425808,-9399.007173
957.711801,76.570323,229.710970,-9437.292334
957.712428,133.998066,153.140646,-9418.149754
957.713055,133.998066,114.855485,-9418.149754
957.713683,133.998066,133.998066,-9379.864592
957.714310,76.570323,114.855485,-9418.149754
957.714938,38.285162,114.855485,-9418.149754
957.715565,114.855485,95.712904,-9399.007173
957.716192,76.570323,114.855485,-9418.149754
957.716820,95.712904,172.283227,-9360.722011
957.717447,76.570323,133.998066,-9360.722011
957.718074,38.285162,114.855485,-9418.149754
957.718702,76.570323,95.712904,-9456.434915
957.719329,38.285162,172.283227,-9418.149754
957.719956,76.570323,172.283227,-9418.149754
957.720584,76.570323,153.140646,-9418.149754
957.721211,76.570323,153.140646,-9437.292334
957.721839,38.285162,210.568389,-9437.292334
957.722466,76.570323,172.283227,-9456.434915
957.723093,133.998066,114.855485,-9418.149754
957.723721,114.855485,133.998066,-9418.149754
957.724348,76.570323,114.855485,-9418.149754
957.724975,210.568389,191.425808,-9399.007173
957.725603,133.998066,210.568389,-9418.149754
957.726230,153.140646,172.283227,-9494.720077
957.726857,133.998066,133.998066,-9456.434915
957.727485,76.570323,114.855485,-9456.434915
957.728112,76.570323,153.140646,-9418.149754
957.728740,114.855485,95.712904,-9437.292334
957.729367,133.998066,191.425808,-9399.007173
957.729994,76.570323,191.425808,-9418.149754
957.730622,133.998066,114.855485,-9418.149754
957.731249,153.140646,153.140646,-9399.007173
957.731876,114.855485,133.998066,-9303.294269
957.732504,133.998066,172.283227,-9418.149754
957.733131,153.140646,133.998066,-9437.292334
957.733758,133.998066,114.855485,-9418.149754
957.734386,133.998066,172.283227,-9418.149754
957.735013,38.285162,210.568389,-9418.149754
957.735641,38.285162,172.283227,-9360.722011
957.736268,76.570323,172.283227,-9418.149754
957.736895,133.998066,114.855485,-9418.149754
957.737523,95.712904,114.855485,-9418.149754
957.738150,95.712904,114.855485,-9418.149754
957.738777,76.570323,172.283227,-9418.149754
957.739405,76.570323,114.855485,-9437.292334
957.740032,133.998066,172.283227,-9456.434915
957.740659,133.998066,133.998066,-9437.292334
957.741287,114.855485,153.140646,-9360.722011
957.741914,114.855485,133.998066,-9360.722011
957.742542,76.570323,114.855485,-9418.149754
957.743169,76.570323,95.712904,-9418.149754
957.743796,19.142581,133.998066,-9360.722011
957.744424,38.285162,76.570323,-9379.864592
957.745051,76.570323,114.855485,-9418.149754
957.745678,133.998066,114.855485,-9456.434915
957.746306,172.283227,76.570323,-9418.149754
957.746933,95.712904,114.855485,-9418.149754
957.747560,133.998066,114.855485,-9418.149754
957.748188,153.140646,153.140646,-9399.007173
957.748815,95.712904,153.140646,-9418.149754
957.749443,114.855485,114.855485,-9399.007173
957.750070,114.855485,133.998066,-9360.722011
957.750697,133.998066,153.140646,-9456.434915
957.751325,133.998066,172.283227,-9418.149754
957.751952,114.855485,172.283227,-9360.722011
957.752579,76.570323,153.140646,-9418.149754
957.753207,133.998066,114.855485,-9360.722011
957.753834,95.712904,133.998066,-9360.722011
957.754461,95.712904,172.283227,-9360.722011
957.755089,95.712904,191.425808,-9360.722011
957.755716,76.570323,114.855485,-9418.149754
957.756344,133.998066,133.998066,-9399.007173
957.756971,38.285162,114.855485,-9418.149754
957.757598,114.855485,133.998066,-9360.722011
957.758226,76.570323,114.855485,-9418.149754
957.758853,57.427742,95.712904,-9379.864592
957.759480,114.855485,133.998066,-9341.579430
957.760108,57.427742,172.283227,-9360.722011
957.760735,38.285162,114.855485,-9418.149754
957.761362,133.998066,114.855485,-9456.434915
957.761990,153.140646,153.140646,-9437.292334
957.762617,76.570323,210.568389,-9418.149754
957.763245,95.712904,153.140646,-9360.722011
957.763872,76.570323,114.855485,-9437.292334
957.764499,76.570323,153.140646,-9418.149754
957.765127,57.427742,133.998066,-9360.722011
957.765754,133.998066,172.283227,-9399.007173
957.766381,133.998066,114.855485,-9418.149754
957.767009,38.285162,172.283227,-9437.292334
957.767636,76.570323,95.712904,-9399.007173
957.768263,57.427742,95.712904,-9399.007173
957.768891,133.998066,153.140646,-9399.007173
957.769518,76.570323,133.998066,-9360.722011
957.770146,38.285162,114.855485,-9418.149754
957.770773,76.570323,114.855485,-9456.434915
957.771400,133.998066,210.568389,-9418.149754
957.772028,76.570323,153.140646,-9437.292334
957.772655,57.427742,114.855485,-9399.007173
957.773282,57.427742,133.998066,-9322.436850
957.773910,95.712904,114.855485,-9418.149754
957.774537,133.998066,114.855485,-9418.149754
957.775164,76.570323,114.855485,-9418.149754
957.775792,153.140646,133.998066,-9456.434915
957.776419,38.285162,114.855485,-9418.149754
957.777047,133.998066,153.140646,-9418.149754
957.777674,76.570323,114.855485,-9418.149754
957.778301,76.570323,114.855485,-9360.722011
957.778929,133.998066,114.855485,-9418.149754
957.779556,76.570323,153.140646,-9418.149754
957.780183,114.855485,114.855485,-9399.007173
957.780811,114.855485,133.998066,-9360.722011
957.781438,57.427742,95.712904,-9399.007173
957.782065,114.855485,191.425808,-9360.722011
957.782693,133.998066,76.570323,-9379.864592
957.783320,76.570323,153.140646,-9418.149754
957.783948,172.283227,114.855485,-9379.864592
957.784575,76.570323,114.855485,-9418.149754
957.785202,133.998066,172.283227,-9418.149754
957.785830,76.570323,114.855485,-9360.722011
957.786457,133.998066,114.855485,-9418.149754
957.787084,133.998066,153.140646,-9418.149754
957.787712,133.998066,210.568389,-9418.149754
957.788339,114.855485,172.283227,-9360.722011
957.788966,76.570323,153.140646,-9418.149754
957.789594,76.570323,95.712904,-9399.007173
957.790221,76.570323,172.283227,-9437.292334
957.790849,76.570323,172.283227,-9418.149754
957.791476,114.855485,133.998066,-9360.722011
957.792103,114.855485,95.712904,-9399.007173
957.792731,76.570323,114.855485,-9418.149754
957.793358,95.712904,95.712904,-9379.864592
957.793985,95.712904,95.712904,-9456.434915
957.794613,133.998066,114.855485,-9418.149754
957.795240,38.285162,153.140646,-9437.292334
957.795867,114.855485,95.712904,-9399.007173
957.796495,153.140646,133.998066,-9399.007173
957.797122,38.285162,114.855485,-9418.149754
957.797750,76.570323,114.855485,-9418.149754
957.798377,76.570323,114.855485,-9437.292334
957.799004,95.712904,114.855485,-9437.292334
957.799632,76.570323,114.855485,-9418.149754
957.800259,95.712904,114.855485,-9456.434915
957.800886,76.570323,114.855485,-9437.292334
957.801514,153.140646,153.140646,-9399.007173
