#time,accel_x,accel_y,accel_z
1003.555329,153.140646,133.998066,-9399.007173
1003.555956,133.998066,172.283227,-9418.149754
1003.556583,133.998066,133.998066,-9399.007173
1003.557210,76.570323,114.855485,-9418.149754
1003.557837,95.712904,95.712904,-9399.007173
1003.558465,133.998066,114.855485,-9418.149754
1003.559092,76.570323,76.570323,-9379.864592
1003.559719,38.285162,172.283227,-9437.292334
1003.560346,38.285162,210.568389,-9418.149754
1003.560974,38.285162,114.855485,-9418.149754
1003.561601,133.998066,114.855485,-9418.149754
1003.562228,95.712904,114.855485,-9437.292334
1003.562855,76.570323,172.283227,-9418.149754
1003.563482,133.998066,153.140646,-9475.577496
1003.564110,76.570323,191.425808,-9418.149754
1003.564737,153.140646,229.710970,-9418.149754
1003.565364,133.998066,133.998066,-9399.007173
1003.565991,76.570323,114.855485,-9418.149754
1003.566618,76.570323,114.855485,-9437.292334
1003.567246,133.998066,153.140646,-9418.149754
1003.567873,76.570323,114.855485,-9456.434915
1003.568500,76.570323,114.855485,-9418.149754
1003.569127,133.998066,114.855485,-9418.149754
1003.569754,133.998066,133.998066,-9475.577496
1003.570382,95.712904,95.712904,-9399.007173
1003.571009,133.998066,114.855485,-9418.149754
1003.571636,114.855485,191.425808,-9360.722011
1003.572263,76.570323,114.855485,-9418.149754
1003.572890,133.998066,191.425808,-9437.292334
1003.573518,133.998066,114.855485,-9437.292334
1003.574145,153.140646,191.425808,-9399.007173
1003.574772,133.998066,114.855485,-9360.722011
1003.575399,172.283227,76.570323,-9418.149754
1003.576027,133.998066,114.855485,-9418.149754
1003.576654,114.855485,133.998066,-9322.436850
1003.577281,114.855485,133.998066,-9341.579430
1003.577908,153.140646,153.140646,-9399.007173
1003.578535,133.998066,153.140646,-9418.149754
1003.579163,95.712904,172.283227,-9418.149754
1003.579790,76.570323,114.855485,-9418.149754
1003.580417,76.570323,172.283227,-9418.149754
1003.581044,114.855485,133.998066,-9360.722011
1003.581671,19.142581,114.855485,-9418.149754
1003.582299,76.570323,172.283227,-9437.292334
1003.582926,76.570323,114.855485,-9418.149754
1003.583553,76.570323,114.855485,-9418.149754
1003.584180,133.998066,133.998066,-9399.007173
1003.584807,133.998066,114.855485,-9360.722011
1003.585435,95.712904,153.140646,-9360.722011
1003.586062,133.998066,191.425808,-9418.149754
1003.586689,76.570323,153.140646,-9418.149754
1003.587316,76.570323,114.855485,-9418.149754
1003.587943,133.998066,114.855485,-9456.434915
1003.588571,76.570323,153.140646,-9475.577496
1003.589198,95.712904,210.568389,-9418.149754
1003.589825,95.712904,133.998066,-9360.722011
1003.590452,133.998066,153.140646,-9418.149754
1003.591080,57.427742,133.998066,-9360.722011
1003.591707,133.998066,133.998066,-9399.007173
1003.592334,76.570323,172.283227,-9418.149754
1003.592961,172.283227,95.712904,-9399.007173
1003.593588,57.427742,114.855485,-9418.149754
1003.594216,57.427742,133.998066,-9360.722011
1003.594843,76.570323,191.425808,-9418.149754
1003.595470,76.570323,172.283227,-9418.149754
1003.596097,76.570323,191.425808,-9418.149754
1003.596724,38.285162,172.283227,-9418.149754
1003.597352,76.570323,114.855485,-9456.434915
1003.597979,95.712904,133.998066,-9360.722011
1003.598606,95.712904,172.283227,-9418.149754
1003.599233,133.998066,114.855485,-9360.722011
1003.599860,76.570323,114.855485,-9437.292334
1003.600488,76.570323,172.283227,-9418.149754
1003.601115,76.570323,153.140646,-9418.149754
1003.601742,38.285162,172.283227,-9418.149754
1003.602369,76.570323,114.855485,-9418.149754
1003.602997,133.998066,191.425808,-9399.007173
1003.603624,76.570323,114.855485,-9418.149754
1003.604251,133.998066,114.855485,-9418.149754
1003.604878,38.285162,114.855485,-9418.149754
1003.605505,76.570323,153.140646,-9437.292334
1003.606133,133.998066,114.855485,-9418.149754
1003.606760,57.427742,114.855485,-9399.007173
1003.607387,95.712904,172.283227,-9437.292334
1003.608014,95.712904,114.855485,-9418.149754
1003.608641,76.570323,153.140646,-9456.434915
1003.609269,114.855485,133.998066,-9360.722011
1003.609896,76.570323,172.283227,-9418.149754
1003.610523,76.570323,172.283227,-9418.149754
1003.611150,133.998066,114.855485,-9437.292334
1003.611777,133.998066,114.855485,-9456.434915
1003.612405,133.998066,133.998066,-9437.292334
1003.613032,76.570323,114.855485,-9418.149754
1003.613659,57.427742,172.283227,-9399.007173
1003.614286,95.712904,95.712904,-9399.007173
1003.614913,133.998066,114.855485,-9437.292334
1003.615541,133.998066,114.855485,-9418.149754
1003.616168,133.998066,114.855485,-9418.149754
1003.616795,95.712904,133.998066,-9360.722011
1003.617422,114.855485,133.998066,-9360.722011
1003.618050,76.570323,114.855485,-9360.722011
1003.618677,95.712904,133.998066,-9418.149754
1003.619304,76.570323,153.140646,-9418.149754
1003.619931,114.855485,95.712904,-9399.007173
1003.620558,57.427742,133.998066,-9360.722011
1003.621186,38.285162,114.855485,-9418.149754
1003.621813,133.998066,153.140646,-9418.149754
1003.622440,38.285162,172.283227,-9437.292334
1003.623067,133.998066,114.855485,-9418.149754
1003.623694,95.712904,153.140646,-9418.149754
1003.624321,133.998066,172.283227,-9418.149754
1003.624948,95.712904,133.998066,-9360.722011
1003.625575,76.570323,114.855485,-9418.149754
1003.626202,133.998066,153.140646,-9418.149754
1003.626829,95.712904,133.998066,-9360.722011
1003.627456,76.570323,153.140646,-9418.149754
1003.628083,38.285162,114.855485,-9456.434915
1003.628710,133.998066,114.855485,-9418.149754
1003.629337,19.142581,114.855485,-9418.149754
1003.629964,38.285162,114.855485,-9456.434915
1003.630591,114.855485,114.855485,-9418.149754
1003.631218,95.712904,114.855485,-9418.149754
1003.631845,76.570323,114.855485,-9456.434915
1003.632472,95.712904,114.855485,-9418.149754
1003.633099,133.998066,133.998066,-9399.007173
1003.633726,133.998066,172.283227,-9418.149754
1003.634353,95.712904,172.283227,-9437.292334
1003.634980,38.285162,153.140646,-9418.149754
1003.635607,76.570323,114.855485,-9418.149754
1003.636234,76.570323,114.855485,-9418.149754
1003.636861,95.712904,95.712904,-9399.007173
1003.637488,133.998066,172.283227,-9360.722011
1003.638115,133.998066,133.998066,-9456.434915
1003.638742,76.570323,114.855485,-9418.149754
1003.639369,76.570323,114.855485,-9418.149754
1003.639996,76.570323,153.140646,-9360.722011
1003.640623,38.285162,210.568389,-9418.149754
1003.641250,133.998066,153.140646,-9418.149754
1003.641877,133.998066,133.998066,-9399.007173
1003.642504,38.285162,114.855485,-9418.149754
1003.643131,38.285162,114.855485,-9418.149754
1003.643758,95.712904,133.998066,-9360.722011
1003.644386,95.712904,38.285162,-9437.292334
1003.645013,172.283227,133.998066,-9341.579430
1003.645640,133.998066,172.283227,-9437.292334
1003.646267,114.855485,172.283227,-9360.722011
1003.646894,38.285162,114.855485,-9456.434915
1003.647521,76.570323,153.140646,-9418.149754
1003.648148,133.998066,114.855485,-9418.149754
1003.648775,76.570323,114.855485,-9456.434915
1003.649402,76.570323,114.855485,-9418.149754
1003.650029,76.570323,114.855485,-9418.149754
1003.650656,76.570323,172.283227,-9418.149754
1003.651283,76.570323,114.855485,-9437.292334
1003.651910,95.712904,95.712904,-9399.007173
1003.652537,76.570323,114.855485,-9360.722011
1003.653164,76.570323,114.855485,-9360.722011
1003.653791,95.712904,114.855485,-9418.149754
1003.654418,114.855485,229.710970,-9418.149754
1003.655045,133.998066,133.998066,-9399.007173
1003.655672,76.570323,114.855485,-9418.149754
1003.656299,38.285162,229.710970,-9418.149754
1003.656926,153.140646,191.425808,-9399.007173
1003.657553,76.570323,114.855485,-9418.149754
1003.658180,153.140646,133.998066,-9399.007173
1003.658807,133.998066,114.855485,-9418.149754
1003.659434,133.998066,172.283227,-9418.149754
1003.660061,133.998066,172.283227,-9418.149754
1003.660688,95.712904,114.855485,-9418.149754
1003.661315,38.285162,114.855485,-9437.292334
1003.661942,114.855485,95.712904,-9437.292334
1003.662569,133.998066,114.855485,-9418.149754
1003.663196,76.570323,172.283227,-9418.149754
1003.663823,172.283227,133.998066,-9360.722011
1003.664450,133.998066,114.855485,-9437.292334
1003.665077,76.570323,114.855485,-9418.149754
1003.665704,76.570323,114.855485,-9418.149754
1003.666331,114.855485,114.855485,-9399.007173
1003.666958,133.998066,114.855485,-9418.149754
1003.667585,153.140646,133.998066,-9399.007173
1003.668212,153.140646,133.998066,-9456.434915
1003.668840,114.855485,172.283227,-9418.149754
1003.669467,133.998066,114.855485,-9418.149754
1003.670094,95.712904,133.998066,-9360.722011
1003.670721,114.855485,133.998066,-9360.722011
1003.671348,57.427742,133.998066,-9360.722011
1003.671975,114.855485,114.855485,-9399.007173
1003.672602,133.998066,114.855485,-9418.149754
1003.673229,95.712904,114.855485,-9437.292334
1003.673856,95.712904,172.283227,-9418.149754
1003.674483,95.712904,114.855485,-9475.577496
1003.675110,76.570323,114.855485,-9456.434915
1003.675737,153.140646,153.140646,-9399.007173
1003.676364,57.427742,133.998066,-9360.722011
1003.676991,133.998066,114.855485,-9418.149754
1003.677618,153.140646,133.998066,-9456.434915
1003.678245,76.570323,114.855485,-9437.292334
1003.678872,133.998066,114.855485,-9418.149754
1003.679499,114.855485,133.998066,-9360.722011
1003.680126,38.285162,76.570323,-9379.864592
1003.680753,95.712904,95.712904,-9456.434915
1003.681380,95.712904,95.712904,-9379.864592
1003.682007,76.570323,114.855485,-9456.434915
1003.682634,76.570323,114.855485,-9418.149754
1003.683261,57.427742,95.712904,-9456.434915
1003.683888,76.570323,210.568389,-9418.149754
1003.684515,38.285162,114.855485,-9399.007173
1003.685142,95.712904,114.855485,-9418.149754
1003.685769,38.285162,114.855485,-9418.149754
1003.686396,76.570323,114.855485,-9418.149754
1003.687023,95.712904,95.712904,-9475.577496
1003.687650,76.570323,114.855485,-9418.149754
1003.688277,76.570323,153.140646,-9456.434915
1003.688904,95.712904,133.998066,-9360.722011
1003.689531,133.998066,114.855485,-9418.149754
1003.690158,76.570323,114.855485,-9437.292334
1003.690785,38.285162,153.140646,-9418.149754
1003.691412,76.570323,114.855485,-9475.577496
1003.692039,114.855485,95.712904,-9437.292334
1003.692666,114.855485,133.998066,-9341.579430
1003.693294,95.712904,172.283227,-9360.722011
1003.693921,76.570323,172.283227,-9437.292334
1003.694548,95.712904,172.283227,-9456.434915
1003.695175,76.570323,114.855485,-9418.149754
1003.695802,114.855485,153.140646,-9360.722011
1003.696429,133.998066,153.140646,-9418.149754
1003.697056,95.712904,133.998066,-9418.149754
1003.697683,76.570323,114.855485,-9437.292334
1003.698310,133.998066,114.855485,-9456.434915
1003.698937,133.998066,210.568389,-9418.149754
1003.699564,76.570323,114.855485,-9418.149754
1003.700191,133.998066,133.998066,-9399.007173
1003.700818,95.712904,114.855485,-9418.149754
1003.701445,114.855485,191.425808,-9360.722011
1003.702072,133.998066,114.855485,-9418.149754
1003.702699,153.140646,172.283227,-9399.007173
1003.703326,114.855485,133.998066,-9341.579430
1003.703953,95.712904,95.712904,-9399.007173
1003.704580,133.998066,114.855485,-9418.149754
1003.705207,153.140646,133.998066,-9399.007173
1003.705834,133.998066,191.425808,-9456.434915
1003.706461,95.712904,114.855485,-9418.149754
1003.707088,133.998066,114.855485,-9418.149754
1003.707715,38.285162,114.855485,-9418.149754
1003.708342,38.285162,114.855485,-9418.149754
1003.708969,38.285162,133.998066,-9379.864592
1003.709596,133.998066,210.568389,-9418.149754
1003.710223,76.570323,172.283227,-9418.149754
1003.710850,133.998066,153.140646,-9418.149754
1003.711477,76.570323,76.570323,-9379.864592
1003.712104,114.855485,95.712904,-9456.434915
1003.712731,76.570323,114.855485,-9418.149754
1003.713358,153.140646,172.283227,-9418.149754
1003.713985,133.998066,153.140646,-9418.149754
1003.714612,95.712904,191.425808,-9360.722011
1003.715239,95.712904,114.855485,-9418.149754
1003.715866,38.285162,153.140646,-9437.292334
1003.716493,76.570323,114.855485,-9418.149754
1003.717120,153.140646,172.283227,-9418.149754
1003.717748,153.140646,133.998066,-9399.007173
1003.718375,76.570323,114.855485,-9418.149754
1003.719002,57.427742,133.998066,-9418.149754
1003.719629,76.570323,114.855485,-9418.149754
1003.720256,133.998066,114.855485,-9475.577496
1003.720883,57.427742,95.712904,-9437.292334
1003.721510,38.285162,114.855485,-9418.149754
1003.722137,76.570323,114.855485,-9418.149754
1003.722764,172.283227,38.285162,-9437.292334
1003.723391,76.570323,114.855485,-9418.149754
1003.724018,133.998066,172.283227,-9418.149754
1003.724645,114.855485,76.570323,-9456.434915
1003.725272,38.285162,114.855485,-9418.149754
1003.725899,95.712904,153.140646,-9437.292334
1003.726526,133.998066,114.855485,-9418.149754
1003.727153,38.285162,114.855485,-9418.149754
1003.727781,133.998066,191.425808,-9399.007173
1003.728408,133.998066,114.855485,-9418.149754
1003.729035,76.570323,114.855485,-9437.292334
1003.729663,76.570323,172.283227,-9418.149754
1003.730290,114.855485,95.712904,-9399.007173
1003.730918,114.855485,114.855485,-9399.007173
1003.731545,133.998066,153.140646,-9418.149754
1003.732173,76.570323,114.855485,-9418.149754
1003.732800,133.998066,114.855485,-9418.149754
1003.733427,133.998066,133.998066,-9399.007173
1003.734055,153.140646,76.570323,-9399.007173
1003.734682,114.855485,76.570323,-9456.434915
1003.735310,76.570323,114.855485,-9418.149754
1003.735937,133.998066,133.998066,-9475.577496
1003.736564,57.427742,95.712904,-9399.007173
1003.737192,133.998066,114.855485,-9437.292334
1003.737819,133.998066,172.283227,-9437.292334
1003.738447,76.570323,191.425808,-9399.007173
1003.739074,76.570323,210.568389,-9418.149754
1003.739701,76.570323,114.855485,-9418.149754
1003.740329,38.285162,172.283227,-9418.149754
1003.740956,133.998066,133.998066,-9399.007173
1003.741584,133.998066,114.855485,-9418.149754
1003.742211,114.855485,95.712904,-9399.007173
1003.742838,76.570323,114.855485,-9418.149754
1003.743466,38.285162,114.855485,-9418.149754
1003.744093,133.998066,114.855485,-9418.149754
1003.744721,76.570323,114.855485,-9418.149754
1003.745348,133.998066,114.855485,-9456.434915
1003.745975,38.285162,76.570323,-9379.864592
1003.746603,114.855485,95.712904,-9399.007173
1003.747230,57.427742,153.140646,-9418.149754
1003.747858,38.285162,114.855485,-9418.149754
1003.748485,133.998066,133.998066,-9399.007173
1003.749113,133.998066,76.570323,-9379.864592
1003.749740,76.570323,172.283227,-9418.149754
1003.750367,114.855485,95.712904,-9437.292334
1003.750995,76.570323,153.140646,-9418.149754
1003.751622,133.998066,114.855485,-9360.722011
1003.752250,95.712904,172.283227,-9360.722011
1003.752877,76.570323,114.855485,-9418.149754
1003.753504,133.998066,114.855485,-9418.149754
1003.754132,95.712904,133.998066,-9341.579430
1003.754759,57.427742,229.710970,-9418.149754
1003.755387,76.570323,210.568389,-9418.149754
1003.756014,133.998066,114.855485,-9418.149754
1003.756641,95.712904,153.140646,-9360.722011
1003.757269,95.712904,114.855485,-9437.292334
1003.757896,133.998066,114.855485,-9418.149754
1003.758524,133.998066,114.855485,-9475.577496
1003.759151,133.998066,114.855485,-9456.434915
1003.759778,76.570323,191.425808,-9360.722011
1003.760406,133.998066,114.855485,-9418.149754
1003.761033,95.712904,114.855485,-9418.149754
1003.761661,133.998066,133.998066,-9399.007173
1003.762288,133.998066,114.855485,-9418.149754
1003.762915,95.712904,172.283227,-9418.149754
1003.763543,133.998066,114.855485,-9418.149754
1003.764170,153.140646,76.570323,-9379.864592
1003.764798,133.998066,114.855485,-9456.434915
1003.765425,38.285162,114.855485,-9456.434915
1003.766053,114.855485,267.996131,-9418.149754
1003.766680,95.712904,153.140646,-9360.722011
1003.767307,133.998066,248.853550,-9456.434915
1003.767935,133.998066,114.855485,-9418.149754
1003.768562,76.570323,153.140646,-9418.149754
1003.769190,133.998066,114.855485,-9418.149754
1003.769817,95.712904,133.998066,-9360.722011
1003.770444,95.712904,114.855485,-9418.149754
1003.771072,38.285162,114.855485,-9475.577496
1003.771699,95.712904,133.998066,-9418.149754
1003.772327,133.998066,114.855485,-9418.149754
1003.772954,38.285162,153.140646,-9418.149754
1003.773581,95.712904,95.712904,-9456.434915
1003.774209,114.855485,210.568389,-9360.722011
1003.774836,153.140646,172.283227,-9399.007173
1003.775464,38.285162,114.855485,-9475.577496
1003.776091,114.855485,133.998066,-9360.722011
1003.776718,153.140646,210.568389,-9418.149754
1003.777346,133.998066,133.998066,-9399.007173
1003.777973,76.570323,114.855485,-9418.149754
1003.778601,133.998066,114.855485,-9418.149754
1003.779228,133.998066,153.140646,-9399.007173
1003.779855,76.570323,114.855485,-9418.149754
1003.780483,133.998066,153.140646,-9418.149754
1003.781110,76.570323,114.855485,-9418.149754
1003.781738,95.712904,95.712904,-9399.007173
1003.782365,76.570323,114.855485,-9475.577496
1003.782993,57.427742,95.712904,-9399.007173
1003.783620,38.285162,76.570323,-9399.007173
1003.784247,76.570323,114.855485,-9418.149754
1003.784875,76.570323,114.855485,-9418.149754
1003.785502,133.998066,114.855485,-9418.149754
1003.786130,153.140646,133.998066,-9494.720077
1003.786757,76.570323,114.855485,-9418.149754
1003.787384,133.998066,133.998066,-9399.007173
1003.788012,153.140646,133.998066,-9437.292334
1003.788639,153.140646,172.283227,-9399.007173
1003.789267,57.427742,114.855485,-9437.292334
1003.789894,133.998066,114.855485,-9418.149754
1003.790521,133.998066,114.855485,-9418.149754
1003.791149,133.998066,153.140646,-9418.149754
1003.791776,114.855485,133.998066,-9360.722011
1003.792404,38.285162,172.283227,-9456.434915
1003.793031,114.855485,95.712904,-9399.007173
1003.793658,133.998066,133.998066,-9399.007173
1003.794286,133.998066,114.855485,-9456.434915
1003.794913,76.570323,172.283227,-9418.149754
1003.795541,114.855485,95.712904,-9399.007173
1003.796168,76.570323,153.140646,-9418.149754
1003.796795,153.140646,133.998066,-9399.007173
1003.797423,133.998066,76.570323,-9379.864592
1003.798050,133.998066,76.570323,-9379.864592
1003.798678,76.570323,114.855485,-9418.149754
1003.799305,38.285162,114.855485,-9475.577496
1003.799932,95.712904,114.855485,-9418.149754
1003.800560,95.712904,210.568389,-9418.149754
1003.801187,133.998066,172.283227,-9418.149754
1003.801815,76.570323,114.855485,-9437.292334
1003.802442,153.140646,153.140646,-9418.149754
1003.803070,133.998066,153.140646,-9399.007173
1003.803697,133.998066,210.568389,-9418.149754
1003.804324,133.998066,114.855485,-9437.292334
1003.804952,38.285162,114.855485,-9456.434915
1003.805579,57.427742,114.855485,-9379.864592
1003.806207,153.140646,172.283227,-9399.007173
1003.806834,153.140646,133.998066,-9456.434915
1003.807461,38.285162,172.283227,-9418.149754
1003.808089,133.998066,114.855485,-9418.149754
1003.808716,95.712904,95.712904,-9399.007173
1003.809344,114.855485,287.138712,-9399.007173
1003.809971,76.570323,114.855485,-9437.292334
1003.810598,76.570323,172.283227,-9437.292334
1003.811226,76.570323,114.855485,-9437.292334
1003.811853,38.285162,114.855485,-9418.149754
1003.812481,133.998066,153.140646,-9437.292334
1003.813108,76.570323,210.568389,-9418.149754
1003.813735,133.998066,114.855485,-9418.149754
1003.814363,76.570323,114.855485,-9418.149754
1003.814990,76.570323,172.283227,-9418.149754
1003.815618,133.998066,114.855485,-9456.434915
1003.816245,114.855485,133.998066,-9360.722011
1003.816872,133.998066,153.140646,-9418.149754
1003.817500,95.712904,114.855485,-9418.149754
1003.818127,133.998066,191.425808,-9437.292334
1003.818755,76.570323,114.855485,-9437.292334
1003.819382,133.998066,114.855485,-9418.149754
1003.820010,76.570323,114.855485,-9418.149754
1003.820637,38.285162,95.712904,-9456.434915
1003.821264,38.285162,172.283227,-9418.149754
1003.821892,133.998066,114.855485,-9418.149754
1003.822519,133.998066,114.855485,-9437.292334
1003.823147,76.570323,114.855485,-9360.722011
1003.823774,133.998066,76.570323,-9379.864592
1003.824401,95.712904,133.998066,-9360.722011
1003.825029,76.570323,114.855485,-9360.722011
1003.825656,95.712904,172.283227,-9360.722011
1003.826284,76.570323,114.855485,-9418.149754
1003.826911,57.427742,191.425808,-9360.722011
1003.827538,114.855485,95.712904,-9399.007173
1003.828165,153.140646,172.283227,-9399.007173
1003.828792,76.570323,114.855485,-9475.577496
1003.829420,133.998066,133.998066,-9513.862658
1003.830047,133.998066,114.855485,-9418.149754
1003.830674,133.998066,114.855485,-9437.292334
1003.831301,76.570323,153.140646,-9418.149754
1003.831928,76.570323,114.855485,-9418.149754
1003.832555,153.140646,133.998066,-9399.007173
1003.833182,133.998066,153.140646,-9418.149754
1003.833810,133.998066,133.998066,-9399.007173
1003.834437,114.855485,95.712904,-9437.292334
1003.835064,76.570323,114.855485,-9418.149754
1003.835691,95.712904,114.855485,-9437.292334
1003.836318,76.570323,114.855485,-9475.577496
1003.836945,133.998066,114.855485,-9418.149754
1003.837572,133.998066,114.855485,-9418.149754
1003.838199,76.570323,114.855485,-9418.149754
1003.838827,133.998066,114.855485,-9418.149754
1003.839454,76.570323,114.855485,-9360.722011
1003.840081,114.855485,114.855485,-9399.007173
1003.840708,95.712904,210.568389,-9418.149754
1003.841335,133.998066,114.855485,-9456.434915
1003.841962,133.998066,114.855485,-9418.149754
1003.842589,76.570323,172.283227,-9418.149754
1003.843217,133.998066,172.283227,-9418.149754
1003.843844,153.140646,133.998066,-9399.007173
1003.844471,76.570323,114.855485,-9418.149754
1003.845098,133.998066,210.568389,-9418.149754
1003.845725,133.998066,114.855485,-9418.149754
1003.846352,133.998066,114.855485,-9494.720077
1003.846979,133.998066,172.283227,-9418.149754
1003.847607,76.570323,153.140646,-9360.722011
1003.848234,76.570323,172.283227,-9418.149754
1003.848861,38.285162,114.855485,-9418.149754
1003.849488,76.570323,95.712904,-9399.007173
1003.850115,38.285162,133.998066,-9379.864592
1003.850742,76.570323,114.855485,-9418.149754
1003.851369,57.427742,153.140646,-9360.722011
1003.851997,95.712904,114.855485,-9456.434915
1003.852624,76.570323,153.140646,-9437.292334
1003.853251,76.570323,114.855485,-9418.149754
1003.853878,76.570323,172.283227,-9418.149754
1003.854505,172.283227,172.283227,-9322.436850
1003.855132,95.712904,95.712904,-9399.007173
1003.855759,76.570323,133.998066,-9418.149754
1003.856386,76.570323,114.855485,-9437.292334
1003.857014,133.998066,172.283227,-9418.149754
1003.857641,76.570323,153.140646,-9418.149754
1003.858268,95.712904,153.140646,-9418.149754
1003.858895,76.570323,133.998066,-9379.864592
1003.859522,114.855485,133.998066,-9360.722011
1003.860149,114.855485,172.283227,-9418.149754
1003.860776,133.998066,114.855485,-9456.434915
1003.861404,114.855485,114.855485,-9379.864592
1003.862031,133.998066,153.140646,-9418.149754
1003.862658,76.570323,114.855485,-9437.292334
1003.863285,76.570323,114.855485,-9437.292334
1003.863912,153.140646,133.998066,-9399.007173
1003.864539,76.570323,114.855485,-9418.149754
1003.865166,95.712904,172.283227,-9360.722011
1003.865794,38.285162,114.855485,-9418.149754
1003.866421,133.998066,114.855485,-9494.720077
1003.867048,133.998066,114.855485,-9418.149754
1003.867675,133.998066,114.855485,-9418.149754
1003.868302,153.140646,172.283227,-9399.007173
1003.868929,114.855485,95.712904,-9437.292334
1003.869556,133.998066,114.855485,-9418.149754
1003.870184,114.855485,133.998066,-9360.722011
1003.870811,57.427742,114.855485,-9456.434915
1003.871438,133.998066,133.998066,-9456.434915
1003.872065,133.998066,114.855485,-9418.149754
1003.872692,76.570323,210.568389,-9456.434915
1003.873319,133.998066,153.140646,-9418.149754
1003.873946,133.998066,114.855485,-9418.149754
1003.874573,133.998066,114.855485,-9418.149754
1003.875201,133.998066,153.140646,-9418.149754
1003.875828,95.712904,95.712904,-9399.007173
1003.876455,114.855485,95.712904,-9399.007173
1003.877082,76.570323,114.855485,-9418.149754
1003.877709,76.570323,114.855485,-9418.149754
1003.878336,76.570323,114.855485,-9418.149754
1003.878963,38.285162,114.855485,-9418.149754
1003.879591,76.570323,95.712904,-9399.007173
1003.880218,76.570323,114.855485,-9437.292334
1003.880845,133.998066,114.855485,-9418.149754
1003.881472,133.998066,114.855485,-9437.292334
1003.882099,38.285162,114.855485,-9418.149754
1003.882726,133.998066,172.283227,-9418.149754
1003.883353,133.998066,114.855485,-9418.149754
1003.883981,57.427742,153.140646,-9418.149754
1003.884608,76.570323,153.140646,-9360.722011
1003.885235,133.998066,114.855485,-9418.149754
1003.885862,153.140646,172.283227,-9456.434915
1003.886489,76.570323,114.855485,-9418.149754
1003.887116,38.285162,153.140646,-9418.149754
1003.887743,95.712904,248.853550,-9360.722011
1003.888370,95.712904,114.855485,-9418.149754
1003.888998,95.712904,114.855485,-9456.434915
1003.889625,114.855485,95.712904,-9399.007173
1003.890252,76.570323,114.855485,-9456.434915
1003.890879,95.712904,95.712904,-9399.007173
1003.891506,76.570323,153.140646,-9437.292334
1003.892133,133.998066,172.283227,-9418.149754
1003.892760,210.568389,153.140646,-9456.434915
1003.893388,133.998066,172.283227,-9418.149754
1003.894015,76.570323,114.855485,-9418.149754
1003.894642,133.998066,114.855485,-9456.434915
1003.895269,153.140646,191.425808,-9399.007173
1003.895896,76.570323,133.998066,-9360.722011
1003.896523,76.570323,191.425808,-9418.149754
1003.897150,153.140646,114.855485,-9418.149754
1003.897778,95.712904,133.998066,-9360.722011
1003.898405,95.712904,95.712904,-9456.434915
1003.899032,153.140646,133.998066,-9399.007173
1003.899659,114.855485,133.998066,-9360.722011
1003.900286,133.998066,153.140646,-9399.007173
1003.900913,76.570323,210.568389,-9360.722011
1003.901540,76.570323,153.140646,-9418.149754
1003.902168,95.712904,114.855485,-9437.292334
1003.902795,133.998066,153.140646,-9418.149754
1003.903422,76.570323,172.283227,-9418.149754
1003.904049,76.570323,114.855485,-9418.149754
1003.904676,76.570323,114.855485,-9437.292334
1003.905303,172.283227,114.855485,-9322.436850
1003.905930,76.570323,114.855485,-9456.434915
1003.906557,76.570323,114.855485,-9418.149754
1003.907185,38.285162,114.855485,-9418.149754
1003.907812,133.998066,191.425808,-9360.722011
1003.908439,133.998066,114.855485,-9418.149754
1003.909066,95.712904,114.855485,-9399.007173
1003.909693,153.140646,210.568389,-9399.007173
1003.910320,114.855485,172.283227,-9399.007173
1003.910947,38.285162,153.140646,-9418.149754
1003.911575,76.570323,114.855485,-9418.149754
1003.912202,95.712904,133.998066,-9360.722011
1003.912829,133.998066,172.283227,-9418.149754
1003.913456,76.570323,114.855485,-9418.149754
1003.914083,133.998066,114.855485,-9437.292334
1003.914710,153.140646,153.140646,-9399.007173
1003.915337,133.998066,114.855485,-9456.434915
1003.915965,38.285162,153.140646,-9418.149754
1003.916592,95.712904,153.140646,-9360.722011
1003.917219,76.570323,153.140646,-9418.149754
1003.917846,57.427742,172.283227,-9360.722011
1003.918473,38.285162,114.855485,-9418.149754
1003.919100,153.140646,153.140646,-9399.007173
1003.919727,76.570323,114.855485,-9418.149754
1003.920355,95.712904,133.998066,-9360.722011
1003.920982,95.712904,114.855485,-9399.007173
1003.921609,76.570323,172.283227,-9418.149754
1003.922236,133.998066,153.140646,-9418.149754
1003.922863,114.855485,172.283227,-9475.577496
1003.923490,95.712904,114.855485,-9418.149754
1003.924117,95.712904,133.998066,-9360.722011
1003.924744,133.998066,114.855485,-9418.149754
1003.925372,133.998066,114.855485,-9418.149754
1003.925999,133.998066,133.998066,-9399.007173
1003.926626,95.712904,133.998066,-9418.149754
1003.927253,133.998066,153.140646,-9418.149754
1003.927881,76.570323,95.712904,-9399.007173
1003.928508,76.570323,153.140646,-9418.149754
1003.929135,133.998066,114.855485,-9437.292334
1003.929763,114.855485,153.140646,-9360.722011
1003.930390,76.570323,114.855485,-9418.149754
1003.931018,133.998066,133.998066,-9399.007173
1003.931645,76.570323,153.140646,-9418.149754
1003.932273,153.140646,153.140646,-9399.007173
1003.932900,76.570323,172.283227,-9418.149754
1003.933528,133.998066,114.855485,-9418.149754
1003.934155,95.712904,153.140646,-9360.722011
1003.934783,172.283227,210.568389,-9379.864592
1003.935410,38.285162,172.283227,-9418.149754
1003.936038,114.855485,133.998066,-9360.722011
1003.936665,114.855485,191.425808,-9360.722011
1003.937293,133.998066,114.855485,-9418.149754
1003.937920,76.570323,114.855485,-9418.149754
1003.938548,133.998066,133.998066,-9456.434915
1003.939175,133.998066,172.283227,-9418.149754
1003.939803,57.427742,133.998066,-9360.722011
1003.940430,95.712904,153.140646,-9418.149754
1003.941058,133.998066,114.855485,-9418.149754
1003.941685,95.712904,153.140646,-9437.292334
1003.942313,153.140646,133.998066,-9399.007173
1003.942940,114.855485,133.998066,-9360.722011
1003.943568,172.283227,114.855485,-9379.864592
1003.944195,76.570323,114.855485,-9437.292334
1003.944822,38.285162,153.140646,-9418.149754
1003.945450,76.570323,114.855485,-9437.292334
1003.946077,172.283227,114.855485,-9379.864592
1003.946705,95.712904,133.998066,-9360.722011
1003.947332,76.570323,114.855485,-9418.149754
1003.947960,76.570323,114.855485,-9418.149754
1003.948587,133.998066,114.855485,-9418.149754
1003.949215,95.712904,95.712904,-9399.007173
1003.949842,114.855485,172.283227,-9360.722011
1003.950470,153.140646,133.998066,-9399.007173
1003.951097,153.140646,153.140646,-9456.434915
1003.951725,76.570323,114.855485,-9418.149754
1003.952352,95.712904,95.712904,-9399.007173
1003.952980,76.570323,114.855485,-9418.149754
1003.953607,95.712904,95.712904,-9399.007173
1003.954235,76.570323,153.140646,-9418.149754
1003.954862,95.712904,95.712904,-9399.007173
1003.955490,57.427742,153.140646,-9418.149754
1003.956117,95.712904,95.712904,-9399.007173
1003.956745,76.570323,114.855485,-9418.149754
1003.957372,153.140646,191.425808,-9399.007173
1003.958000,76.570323,172.283227,-9418.149754
1003.958627,76.570323,114.855485,-9418.149754
1003.959255,38.285162,114.855485,-9418.149754
1003.959882,57.427742,172.283227,-9437.292334
1003.960510,57.427742,210.568389,-9418.149754
1003.961137,133.998066,133.998066,-9399.007173
1003.961764,133.998066,114.855485,-9418.149754
1003.962392,76.570323,172.283227,-9418.149754
1003.963019,76.570323,172.283227,-9418.149754
1003.963647,38.285162,114.855485,-9418.149754
1003.964274,95.712904,133.998066,-9360.722011
1003.964902,76.570323,153.140646,-9418.149754
1003.965529,133.998066,114.855485,-9418.149754
1003.966157,153.140646,191.425808,-9418.149754
1003.966784,153.140646,172.283227,-9399.007173
1003.967412,76.570323,210.568389,-9437.292334
1003.968039,133.998066,114.855485,-9418.149754
1003.968667,133.998066,114.855485,-9418.149754
1003.969294,76.570323,153.140646,-9418.149754
1003.969922,114.855485,133.998066,-9360.722011
1003.970549,133.998066,153.140646,-9418.149754
1003.971177,133.998066,133.998066,-9399.007173
1003.971804,133.998066,114.855485,-9418.149754
1003.972432,114.855485,114.855485,-9379.864592
1003.973059,114.855485,95.712904,-9399.007173
1003.973687,133.998066,114.855485,-9418.149754
1003.974314,133.998066,191.425808,-9399.007173
1003.974942,133.998066,114.855485,-9418.149754
1003.975569,95.712904,114.855485,-9456.434915
1003.976197,153.140646,114.855485,-9475.577496
1003.976824,76.570323,172.283227,-9456.434915
1003.977452,133.998066,114.855485,-9418.149754
1003.978079,133.998066,114.855485,-9418.149754
1003.978706,133.998066,172.283227,-9418.149754
1003.979334,76.570323,114.855485,-9456.434915
1003.979961,114.855485,133.998066,-9360.722011
1003.980589,76.570323,114.855485,-9437.292334
1003.981216,95.712904,133.998066,-9360.722011
1003.981844,38.285162,114.855485,-9418.149754
1003.982471,76.570323,172.283227,-9418.149754
1003.983099,76.570323,114.855485,-9418.149754
1003.983726,76.570323,172.283227,-9418.149754
1003.984354,95.712904,229.710970,-9399.007173
1003.984981,76.570323,114.855485,-9418.149754
1003.985609,133.998066,133.998066,-9399.007173
1003.986236,76.570323,114.855485,-9418.149754
1003.986864,133.998066,210.568389,-9418.149754
1003.987491,114.855485,95.712904,-9399.007173
1003.988119,133.998066,114.855485,-9418.149754
1003.988746,133.998066,114.855485,-9418.149754
1003.989374,114.855485,95.712904,-9399.007173
1003.990001,133.998066,114.855485,-9437.292334
1003.990629,133.998066,114.855485,-9475.577496
1003.991256,76.570323,114.855485,-9418.149754
1003.991884,95.712904,133.998066,-9360.722011
1003.992511,76.570323,114.855485,-9418.149754
1003.993139,133.998066,172.283227,-9418.149754
1003.993766,153.140646,133.998066,-9399.007173
1003.994394,76.570323,210.568389,-9418.149754
1003.995021,38.285162,114.855485,-9360.722011
1003.995648,76.570323,153.140646,-9418.149754
1003.996276,57.427742,133.998066,-9360.722011
1003.996903,133.998066,114.855485,-9418.149754
1003.997531,76.570323,114.855485,-9418.149754
1003.998158,133.998066,153.140646,-9379.864592
1003.998786,76.570323,114.855485,-9418.149754
1003.999413,38.285162,153.140646,-9418.149754
1004.000041,57.427742,114.855485,-9418.149754
1004.000668,95.712904,114.855485,-9418.149754
1004.001296,76.570323,114.855485,-9418.149754
1004.001923,133.998066,114.855485,-9418.149754
1004.002551,76.570323,172.283227,-9418.149754
1004.003178,76.570323,114.855485,-9418.149754
1004.003806,76.570323,114.855485,-9418.149754
1004.004433,95.712904,95.712904,-9399.007173
1004.005061,133.998066,114.855485,-9418.149754
1004.005688,114.855485,153.140646,-9360.722011
1004.006316,76.570323,153.140646,-9418.149754
1004.006943,95.712904,114.855485,-9418.149754
1004.007571,76.570323,153.140646,-9418.149754
1004.008198,133.998066,114.855485,-9418.149754
1004.008826,153.140646,133.998066,-9399.007173
1004.009453,95.712904,95.712904,-9379.864592
1004.010081,95.712904,95.712904,-9399.007173
1004.010708,76.570323,153.140646,-9418.149754
1004.011335,76.570323,153.140646,-9418.149754
1004.011963,133.998066,114.855485,-9418.149754
1004.012590,38.285162,172.283227,-9437.292334
1004.013218,153.140646,153.140646,-9399.007173
1004.013845,76.570323,114.855485,-9418.149754
1004.014473,95.712904,114.855485,-9418.149754
1004.015100,76.570323,114.855485,-9418.149754
1004.015728,153.140646,153.140646,-9456.434915
1004.016355,153.140646,153.140646,-9418.149754
1004.016983,153.140646,153.140646,-9399.007173
1004.017610,133.998066,114.855485,-9418.149754
1004.018238,95.712904,95.712904,-9399.007173
1004.018865,57.427742,133.998066,-9418.149754
1004.019493,133.998066,133.998066,-9399.007173
1004.020120,133.998066,172.283227,-9418.149754
1004.020748,95.712904,133.998066,-9360.722011
1004.021375,76.570323,172.283227,-9418.149754
1004.022003,133.998066,114.855485,-9418.149754
1004.022630,133.998066,114.855485,-9418.149754
1004.023258,133.998066,114.855485,-9418.149754
1004.023885,38.285162,172.283227,-9418.149754
1004.024513,38.285162,114.855485,-9418.149754
1004.025140,172.283227,114.855485,-9379.864592
1004.025768,76.570323,114.855485,-9418.149754
1004.026395,133.998066,133.998066,-9399.007173
1004.027023,76.570323,153.140646,-9456.434915
1004.027650,133.998066,172.283227,-9418.149754
1004.028277,114.855485,210.568389,-9437.292334
1004.028905,57.427742,133.998066,-9360.722011
1004.029532,76.570323,114.855485,-9418.149754
1004.030159,76.570323,114.855485,-9418.149754
1004.030786,76.570323,172.283227,-9437.292334
1004.031414,133.998066,114.855485,-9418.149754
1004.032041,133.998066,172.283227,-9456.434915
1004.032668,38.285162,114.855485,-9418.149754
1004.033295,38.285162,114.855485,-9418.149754
1004.033923,76.570323,114.855485,-9418.149754
1004.034550,95.712904,114.855485,-9399.007173
1004.035177,133.998066,210.568389,-9418.149754
1004.035804,76.570323,153.140646,-9418.149754
1004.036432,133.998066,133.998066,-9399.007173
1004.037059,133.998066,114.855485,-9418.149754
1004.037686,95.712904,210.568389,-9437.292334
1004.038313,95.712904,133.998066,-9360.722011
1004.038941,133.998066,114.855485,-9418.149754
1004.039568,133.998066,114.855485,-9418.149754
1004.040195,95.712904,153.140646,-9322.436850
1004.040822,38.285162,114.855485,-9418.149754
1004.041450,76.570323,114.855485,-9418.149754
1004.042077,76.570323,114.855485,-9418.149754
1004.042704,76.570323,95.712904,-9418.149754
1004.043331,76.570323,114.855485,-9418.149754
1004.043959,76.570323,153.140646,-9360.722011
1004.044586,76.570323,210.568389,-9418.149754
1004.045213,95.712904,172.283227,-9360.722011
1004.045840,57.427742,114.855485,-9437.292334
1004.046468,76.570323,114.855485,-9437.292334
1004.047095,133.998066,114.855485,-9437.292334
1004.047722,38.285162,114.855485,-9418.149754
1004.048349,76.570323,114.855485,-9418.149754
1004.048977,114.855485,95.712904,-9399.007173
1004.049604,76.570323,114.855485,-9418.149754
1004.050231,133.998066,114.855485,-9418.149754
1004.050858,76.570323,191.425808,-9437.292334
1004.051486,76.570323,210.568389,-9418.149754
1004.052113,76.570323,114.855485,-9437.292334
1004.052740,133.998066,114.855485,-9475.577496
1004.053367,76.570323,114.855485,-9475.577496
1004.053995,153.140646,133.998066,-9418.149754
1004.054622,114.855485,191.425808,-9360.722011
1004.055249,57.427742,114.855485,-9418.149754
1004.055876,114.855485,133.998066,-9360.722011
1004.056504,57.427742,133.998066,-9360.722011
1004.057131,38.285162,114.855485,-9418.149754
1004.057758,114.855485,172.283227,-9360.722011
1004.058385,76.570323,172.283227,-9418.149754
1004.059013,57.427742,114.855485,-9418.149754
1004.059640,76.570323,114.855485,-9418.149754
1004.060267,76.570323,172.283227,-9437.292334
1004.060894,76.570323,114.855485,-9418.149754
1004.061522,38.285162,172.283227,-9418.149754
1004.062149,133.998066,133.998066,-9456.434915
1004.062776,76.570323,114.855485,-9456.434915
1004.063403,76.570323,95.712904,-9399.007173
1004.064031,114.855485,133.998066,-9418.149754
1004.064658,76.570323,114.855485,-9418.149754
1004.065285,133.998066,114.855485,-9418.149754
1004.065912,133.998066,114.855485,-9456.434915
1004.066540,76.570323,172.283227,-9418.149754
1004.067167,133.998066,172.283227,-9418.149754
1004.067794,76.570323,114.855485,-9437.292334
1004.068421,76.570323,114.855485,-9418.149754
1004.069049,38.285162,114.855485,-9456.434915
1004.069676,38.285162,114.855485,-9418.149754
1004.070303,38.285162,172.283227,-9418.149754
1004.070930,76.570323,133.998066,-9341.579430
1004.071558,133.998066,76.570323,-9379.864592
1004.072185,38.285162,114.855485,-9437.292334
1004.072812,76.570323,153.140646,-9437.292334
1004.073439,76.570323,153.140646,-9418.149754
1004.074067,114.855485,133.998066,-9360.722011
1004.074694,76.570323,172.283227,-9418.149754
1004.075321,133.998066,114.855485,-9360.722011
1004.075948,76.570323,172.283227,-9418.149754
1004.076576,114.855485,172.283227,-9360.722011
1004.077203,95.712904,172.283227,-9360.722011
1004.077830,76.570323,114.855485,-9418.149754
1004.078457,114.855485,114.855485,-9494.720077
1004.079085,133.998066,191.425808,-9437.292334
1004.079712,133.998066,114.855485,-9418.149754
1004.080339,76.570323,172.283227,-9418.149754
1004.080966,76.570323,114.855485,-9418.149754
1004.081594,76.570323,172.283227,-9360.722011
1004.082221,76.570323,114.855485,-9437.292334
1004.082848,114.855485,153.140646,-9360.722011
1004.083475,114.855485,133.998066,-9360.722011
1004.084103,114.855485,191.425808,-9360.722011
1004.084730,133.998066,114.855485,-9418.149754
1004.085357,133.998066,114.855485,-9456.434915
1004.085984,76.570323,210.568389,-9418.149754
1004.086612,133.998066,133.998066,-9379.864592
1004.087239,76.570323,210.568389,-9418.149754
1004.087866,133.998066,153.140646,-9418.149754
1004.088493,95.712904,114.855485,-9418.149754
1004.089121,38.285162,114.855485,-9437.292334
1004.089748,38.285162,114.855485,-9418.149754
1004.090375,133.998066,172.283227,-9418.149754
1004.091003,153.140646,133.998066,-9399.007173
1004.091630,76.570323,133.998066,-9360.722011
1004.092257,95.712904,114.855485,-9399.007173
1004.092884,57.427742,114.855485,-9418.149754
1004.093512,133.998066,114.855485,-9456.434915
1004.094139,133.998066,114.855485,-9418.149754
1004.094766,76.570323,114.855485,-9494.720077
1004.095393,133.998066,114.855485,-9418.149754
1004.096021,133.998066,114.855485,-9418.149754
1004.096648,133.998066,153.140646,-9418.149754
1004.097275,133.998066,153.140646,-9418.149754
1004.097902,133.998066,114.855485,-9418.149754
1004.098530,133.998066,114.855485,-9418.149754
1004.099157,95.712904,133.998066,-9341.579430
1004.099784,95.712904,153.140646,-9360.722011
1004.100411,133.998066,114.855485,-9418.149754
1004.101039,133.998066,114.855485,-9418.149754
1004.101666,76.570323,114.855485,-9418.149754
1004.102293,57.427742,172.283227,-9360.722011
1004.102920,133.998066,114.855485,-9456.434915
1004.103548,76.570323,114.855485,-9418.149754
1004.104175,38.285162,153.140646,-9418.149754
1004.104802,76.570323,153.140646,-9418.149754
1004.105429,76.570323,114.855485,-9418.149754
1004.106057,114.855485,133.998066,-9360.722011
1004.106684,95.712904,95.712904,-9399.007173
1004.107311,114.855485,133.998066,-9360.722011
1004.107938,114.855485,133.998066,-9360.722011
1004.108566,114.855485,229.710970,-9379.864592
1004.109193,133.998066,172.283227,-9418.149754
1004.109820,133.998066,114.855485,-9418.149754
1004.110447,76.570323,114.855485,-9418.149754
1004.111075,172.283227,114.855485,-9379.864592
1004.111702,114.855485,133.998066,-9360.722011
1004.112329,114.855485,95.712904,-9399.007173
1004.112956,153.140646,153.140646,-9513.862658
1004.113584,38.285162,172.283227,-9475.577496
1004.114211,38.285162,114.855485,-9418.149754
1004.114838,95.712904,191.425808,-9360.722011
1004.115465,95.712904,172.283227,-9418.149754
1004.116093,95.712904,114.855485,-9418.149754
1004.116720,95.712904,133.998066,-9360.722011
1004.117347,95.712904,114.855485,-9456.434915
1004.117974,76.570323,114.855485,-9418.149754
1004.118602,153.140646,95.712904,-9360.722011
1004.119229,133.998066,114.855485,-9418.149754
1004.119856,172.283227,76.570323,-9418.149754
1004.120483,133.998066,114.855485,-9418.149754
1004.121111,76.570323,172.283227,-9418.149754
1004.121738,153.140646,191.425808,-9456.434915
1004.122365,133.998066,153.140646,-9533.005238
1004.122992,76.570323,172.283227,-9456.434915
1004.123620,76.570323,114.855485,-9437.292334
1004.124247,38.285162,114.855485,-9418.149754
1004.124874,153.140646,133.998066,-9399.007173
1004.125501,133.998066,210.568389,-9456.434915
1004.126129,133.998066,95.712904,-9360.722011
1004.126756,76.570323,114.855485,-9418.149754
1004.127383,76.570323,153.140646,-9418.149754
1004.128010,76.570323,153.140646,-9418.149754
1004.128638,95.712904,153.140646,-9360.722011
1004.129265,76.570323,114.855485,-9418.149754
1004.129892,95.712904,153.140646,-9360.722011
1004.130520,153.140646,172.283227,-9399.007173
1004.131147,133.998066,229.710970,-9418.149754
1004.131774,133.998066,172.283227,-9399.007173
1004.132401,133.998066,114.855485,-9418.149754
1004.133029,133.998066,153.140646,-9418.149754
1004.133656,114.855485,114.855485,-9379.864592
1004.134283,153.140646,153.140646,-9456.434915
1004.134910,95.712904,95.712904,-9399.007173
1004.135538,95.712904,95.712904,-9399.007173
1004.136165,153.140646,133.998066,-9399.007173
1004.136792,133.998066,191.425808,-9418.149754
1004.137420,133.998066,76.570323,-9379.864592
1004.138047,133.998066,114.855485,-9475.577496
1004.138674,133.998066,114.855485,-9475.577496
1004.139301,38.285162,153.140646,-9379.864592
1004.139929,38.285162,153.140646,-9418.149754
1004.140556,76.570323,114.855485,-9437.292334
1004.141183,133.998066,114.855485,-9360.722011
1004.141810,76.570323,114.855485,-9456.434915
1004.142438,38.285162,114.855485,-9418.149754
1004.143065,76.570323,114.855485,-9456.434915
1004.143692,114.855485,133.998066,-9360.722011
1004.144320,95.712904,95.712904,-9399.007173
1004.144947,38.285162,153.140646,-9418.149754
1004.145574,76.570323,114.855485,-9418.149754
1004.146201,133.998066,153.140646,-9418.149754
1004.146829,76.570323,114.855485,-9418.149754
1004.147456,95.712904,172.283227,-9284.151688
1004.148083,76.570323,172.283227,-9418.149754
1004.148711,114.855485,114.855485,-9341.579430
1004.149338,153.140646,133.998066,-9437.292334
1004.149965,76.570323,153.140646,-9418.149754
1004.150592,76.570323,114.855485,-9418.149754
1004.151220,38.285162,114.855485,-9456.434915
1004.151847,133.998066,172.283227,-9399.007173
1004.152474,38.285162,114.855485,-9418.149754
1004.153101,133.998066,210.568389,-9437.292334
1004.153729,133.998066,210.568389,-9418.149754
1004.154356,76.570323,153.140646,-9418.149754
1004.154983,38.285162,114.855485,-9475.577496
1004.155611,76.570323,172.283227,-9418.149754
1004.156238,133.998066,229.710970,-9418.149754
1004.156865,95.712904,153.140646,-9360.722011
1004.157492,172.283227,172.283227,-9379.864592
1004.158120,114.855485,153.140646,-9360.722011
1004.158747,133.998066,210.568389,-9418.149754
1004.159374,76.570323,114.855485,-9418.149754
1004.160002,153.140646,133.998066,-9456.434915
1004.160629,76.570323,114.855485,-9418.149754
1004.161256,76.570323,114.855485,-9437.292334
1004.161883,133.998066,114.855485,-9437.292334
1004.162511,133.998066,133.998066,-9437.292334
1004.163138,133.998066,114.855485,-9418.149754
1004.163765,133.998066,114.855485,-9418.149754
1004.164392,114.855485,133.998066,-9360.722011
1004.165020,38.285162,114.855485,-9418.149754
1004.165647,95.712904,114.855485,-9475.577496
1004.166274,95.712904,114.855485,-9437.292334
1004.166902,133.998066,114.855485,-9418.149754
1004.167529,133.998066,114.855485,-9418.149754
1004.168156,133.998066,172.283227,-9418.149754
1004.168783,133.998066,153.140646,-9418.149754
1004.169411,95.712904,153.140646,-9418.149754
1004.170038,76.570323,114.855485,-9418.149754
1004.170665,133.998066,172.283227,-9418.149754
1004.171292,76.570323,114.855485,-9418.149754
1004.171920,95.712904,114.855485,-9418.149754
1004.172547,76.570323,95.712904,-9399.007173
1004.173174,114.855485,153.140646,-9360.722011
1004.173802,95.712904,114.855485,-9399.007173
1004.174429,76.570323,114.855485,-9437.292334
1004.175056,114.855485,114.855485,-9379.864592
1004.175683,133.998066,114.855485,-9418.149754
1004.176311,114.855485,95.712904,-9399.007173
1004.176938,76.570323,114.855485,-9418.149754
1004.177565,57.427742,114.855485,-9379.864592
1004.178193,57.427742,153.140646,-9360.722011
1004.178820,76.570323,114.855485,-9418.149754
1004.179447,133.998066,114.855485,-9360.722011
1004.180074,153.140646,95.712904,-9360.722011
1004.180702,133.998066,172.283227,-9418.149754
1004.181329,133.998066,172.283227,-9399.007173
1004.181956,114.855485,133.998066,-9360.722011
1004.182583,76.570323,114.855485,-9418.149754
1004.183211,38.285162,172.283227,-9418.149754
1004.183838,57.427742,95.712904,-9399.007173
1004.184465,76.570323,114.855485,-9418.149754
1004.185093,172.283227,172.283227,-9399.007173
1004.185720,76.570323,172.283227,-9418.149754
1004.186347,76.570323,114.855485,-9418.149754
1004.186974,95.712904,153.140646,-9418.149754
1004.187602,76.570323,114.855485,-9418.149754
1004.188229,57.427742,133.998066,-9341.579430
1004.188856,38.285162,114.855485,-9418.149754
1004.189484,76.570323,133.998066,-9360.722011
1004.190111,133.998066,114.855485,-9360.722011
1004.190738,95.712904,95.712904,-9399.007173
1004.191365,95.712904,114.855485,-9399.007173
1004.191993,76.570323,114.855485,-9437.292334
1004.192620,133.998066,114.855485,-9418.149754
1004.193247,76.570323,153.140646,-9360.722011
1004.193874,76.570323,114.855485,-9418.149754
1004.194502,133.998066,114.855485,-9418.149754
1004.195129,133.998066,114.855485,-9418.149754
1004.195756,76.570323,172.283227,-9437.292334
1004.196384,133.998066,172.283227,-9456.434915
1004.197011,38.285162,114.855485,-9456.434915
1004.197638,38.285162,114.855485,-9456.434915
1004.198265,76.570323,172.283227,-9418.149754
1004.198893,114.855485,133.998066,-9341.579430
1004.199520,38.285162,114.855485,-9418.149754
1004.200147,76.570323,114.855485,-9418.149754
1004.200774,114.855485,95.712904,-9399.007173
1004.201402,76.570323,114.855485,-9418.149754
1004.202029,76.570323,210.568389,-9418.149754
1004.202656,76.570323,172.283227,-9418.149754
1004.203284,38.285162,114.855485,-9418.149754
1004.203911,38.285162,114.855485,-9418.149754
1004.204538,76.570323,133.998066,-9379.864592
1004.205165,133.998066,114.855485,-9418.149754
1004.205793,76.570323,153.140646,-9418.149754
1004.206420,114.855485,172.283227,-9360.722011
1004.207047,114.855485,133.998066,-9360.722011
1004.207675,76.570323,114.855485,-9418.149754
1004.208302,114.855485,95.712904,-9399.007173
1004.208929,76.570323,114.855485,-9418.149754
1004.209556,76.570323,114.855485,-9418.149754
1004.210184,76.570323,114.855485,-9418.149754
1004.210811,133.998066,114.855485,-9418.149754
1004.211438,133.998066,133.998066,-9399.007173
1004.212065,95.712904,172.283227,-9360.722011
1004.212693,76.570323,114.855485,-9456.434915
1004.213320,76.570323,172.283227,-9418.149754
1004.213947,76.570323,114.855485,-9418.149754
1004.214575,76.570323,172.283227,-9418.149754
1004.215202,133.998066,210.568389,-9418.149754
1004.215829,114.855485,153.140646,-9418.149754
1004.216456,95.712904,133.998066,-9379.864592
1004.217084,114.855485,133.998066,-9418.149754
1004.217711,76.570323,114.855485,-9437.292334
1004.218338,76.570323,114.855485,-9418.149754
1004.218966,95.712904,133.998066,-9360.722011
1004.219593,95.712904,229.710970,-9418.149754
1004.220220,95.712904,229.710970,-9418.149754
1004.220847,114.855485,133.998066,-9360.722011
1004.221475,57.427742,191.425808,-9360.722011
1004.222102,76.570323,133.998066,-9360.722011
1004.222729,76.570323,114.855485,-9437.292334
1004.223356,133.998066,114.855485,-9418.149754
1004.223984,76.570323,114.855485,-9418.149754
1004.224611,76.570323,172.283227,-9418.149754
1004.225238,133.998066,114.855485,-9418.149754
1004.225866,76.570323,114.855485,-9418.149754
1004.226493,38.285162,153.140646,-9418.149754
1004.227120,76.570323,210.568389,-9418.149754
1004.227747,153.140646,133.998066,-9456.434915
1004.228375,133.998066,114.855485,-9456.434915
1004.229002,133.998066,153.140646,-9418.149754
1004.229630,95.712904,133.998066,-9322.436850
1004.230257,57.427742,95.712904,-9399.007173
1004.230885,114.855485,95.712904,-9399.007173
1004.231512,114.855485,133.998066,-9360.722011
1004.232139,114.855485,210.568389,-9379.864592
1004.232767,19.142581,210.568389,-9475.577496
1004.233394,38.285162,114.855485,-9456.434915
1004.234022,57.427742,95.712904,-9399.007173
1004.234649,76.570323,114.855485,-9418.149754
1004.235277,133.998066,191.425808,-9379.864592
1004.235904,133.998066,114.855485,-9418.149754
1004.236532,76.570323,114.855485,-9418.149754
1004.237159,76.570323,153.140646,-9360.722011
1004.237787,133.998066,172.283227,-9418.149754
1004.238414,95.712904,153.140646,-9360.722011
1004.239041,95.712904,210.568389,-9437.292334
1004.239669,76.570323,114.855485,-9418.149754
1004.240296,133.998066,172.283227,-9418.149754
1004.240924,133.998066,114.855485,-9418.149754
1004.241551,153.140646,172.283227,-9418.149754
1004.242179,133.998066,210.568389,-9418.149754
1004.242806,76.570323,210.568389,-9418.149754
1004.243434,76.570323,172.283227,-9456.434915
1004.244061,38.285162,95.712904,-9399.007173
1004.244689,114.855485,133.998066,-9418.149754
1004.245316,38.285162,114.855485,-9418.149754
1004.245944,133.998066,114.855485,-9418.149754
1004.246571,133.998066,114.855485,-9456.434915
1004.247198,76.570323,114.855485,-9437.292334
1004.247826,95.712904,114.855485,-9399.007173
1004.248453,38.285162,114.855485,-9418.149754
1004.249081,76.570323,133.998066,-9379.864592
1004.249708,133.998066,114.855485,-9418.149754
1004.250336,153.140646,133.998066,-9399.007173
1004.250963,172.283227,172.283227,-9399.007173
1004.251591,133.998066,172.283227,-9418.149754
1004.252218,95.712904,153.140646,-9360.722011
1004.252846,133.998066,114.855485,-9418.149754
1004.253473,114.855485,114.855485,-9379.864592
1004.254100,133.998066,153.140646,-9360.722011
1004.254728,133.998066,133.998066,-9399.007173
1004.255355,76.570323,172.283227,-9418.149754
1004.255983,76.570323,114.855485,-9418.149754
1004.256610,76.570323,133.998066,-9360.722011
1004.257238,114.855485,95.712904,-9399.007173
1004.257865,38.285162,114.855485,-9418.149754
1004.258493,133.998066,114.855485,-9418.149754
1004.259120,76.570323,114.855485,-9437.292334
1004.259748,95.712904,172.283227,-9456.434915
1004.260375,133.998066,133.998066,-9399.007173
1004.261003,172.283227,76.570323,-9418.149754
1004.261630,95.712904,114.855485,-9418.149754
1004.262257,114.855485,133.998066,-9360.722011
1004.262885,133.998066,191.425808,-9379.864592
1004.263512,172.283227,153.140646,-9379.864592
1004.264140,133.998066,191.425808,-9379.864592
1004.264767,133.998066,153.140646,-9418.149754
1004.265395,76.570323,114.855485,-9418.149754
1004.266022,76.570323,114.855485,-9437.292334
1004.266650,133.998066,191.425808,-9399.007173
1004.267277,95.712904,191.425808,-9360.722011
1004.267905,38.285162,210.568389,-9418.149754
1004.268532,133.998066,172.283227,-9418.149754
1004.269160,76.570323,153.140646,-9418.149754
1004.269787,114.855485,133.998066,-9360.722011
1004.270414,114.855485,76.570323,-9418.149754
1004.271042,95.712904,95.712904,-9399.007173
1004.271669,133.998066,114.855485,-9418.149754
1004.272297,57.427742,133.998066,-9360.722011
1004.272924,133.998066,133.998066,-9456.434915
1004.273552,76.570323,114.855485,-9456.434915
1004.274179,76.570323,172.283227,-9418.149754
1004.274807,95.712904,133.998066,-9360.722011
1004.275434,76.570323,114.855485,-9418.149754
1004.276062,95.712904,133.998066,-9360.722011
1004.276689,133.998066,114.855485,-9418.149754
1004.277316,153.140646,210.568389,-9418.149754
1004.277944,133.998066,114.855485,-9437.292334
1004.278571,76.570323,153.140646,-9418.149754
1004.279199,133.998066,133.998066,-9399.007173
1004.279826,76.570323,114.855485,-9418.149754
1004.280454,38.285162,114.855485,-9418.149754
1004.281081,76.570323,114.855485,-9418.149754
1004.281709,153.140646,114.855485,-9437.292334
1004.282336,38.285162,114.855485,-9418.149754
1004.282964,38.285162,114.855485,-9418.149754
1004.283591,172.283227,133.998066,-9418.149754
1004.284219,133.998066,172.283227,-9437.292334
1004.284846,76.570323,114.855485,-9360.722011
1004.285473,76.570323,210.568389,-9437.292334
1004.286101,133.998066,114.855485,-9418.149754
1004.286728,38.285162,172.283227,-9418.149754
1004.287356,133.998066,172.283227,-9418.149754
1004.287983,76.570323,114.855485,-9418.149754
1004.288611,114.855485,172.283227,-9418.149754
1004.289238,153.140646,172.283227,-9418.149754
1004.289866,133.998066,133.998066,-9494.720077
1004.290493,153.140646,133.998066,-9399.007173
1004.291121,210.568389,133.998066,-9399.007173
1004.291748,95.712904,114.855485,-9399.007173
1004.292375,76.570323,172.283227,-9418.149754
1004.293003,133.998066,153.140646,-9418.149754
1004.293630,76.570323,172.283227,-9360.722011
1004.294258,38.285162,114.855485,-9418.149754
1004.294885,76.570323,172.283227,-9418.149754
1004.295513,133.998066,172.283227,-9456.434915
1004.296140,76.570323,153.140646,-9418.149754
1004.296768,95.712904,114.855485,-9418.149754
1004.297395,95.712904,133.998066,-9360.722011
1004.298023,76.570323,114.855485,-9418.149754
1004.298650,133.998066,114.855485,-9418.149754
1004.299278,114.855485,95.712904,-9399.007173
1004.299905,57.427742,172.283227,-9418.149754
1004.300532,76.570323,172.283227,-9418.149754
1004.301160,38.285162,114.855485,-9418.149754
1004.301787,133.998066,114.855485,-9437.292334
1004.302415,133.998066,114.855485,-9418.149754
1004.303042,76.570323,114.855485,-9418.149754
1004.303670,76.570323,153.140646,-9418.149754
1004.304297,38.285162,114.855485,-9418.149754
1004.304925,114.855485,133.998066,-9360.722011
1004.305552,95.712904,114.855485,-9418.149754
1004.306180,133.998066,114.855485,-9418.149754
1004.306807,133.998066,114.855485,-9418.149754
1004.307434,133.998066,133.998066,-9399.007173
1004.308062,76.570323,114.855485,-9418.149754
1004.308689,133.998066,114.855485,-9418.149754
1004.309317,76.570323,114.855485,-9418.149754
1004.309944,133.998066,172.283227,-9456.434915
1004.310572,38.285162,191.425808,-9418.149754
1004.311199,76.570323,210.568389,-9418.149754
1004.311827,95.712904,133.998066,-9360.722011
1004.312454,76.570323,114.855485,-9360.722011
1004.313082,38.285162,172.283227,-9418.149754
1004.313709,133.998066,114.855485,-9418.149754
1004.314337,76.570323,153.140646,-9418.149754
1004.314964,172.283227,133.998066,-9418.149754
1004.315591,133.998066,114.855485,-9418.149754
1004.316219,133.998066,76.570323,-9379.864592
1004.316846,114.855485,133.998066,-9360.722011
1004.317474,76.570323,153.140646,-9418.149754
1004.318101,114.855485,133.998066,-9360.722011
1004.318729,133.998066,229.710970,-9418.149754
1004.319356,76.570323,114.855485,-9418.149754
1004.319984,133.998066,114.855485,-9418.149754
1004.320611,133.998066,114.855485,-9437.292334
1004.321239,114.855485,95.712904,-9399.007173
1004.321866,153.140646,191.425808,-9399.007173
1004.322494,114.855485,153.140646,-9360.722011
1004.323121,95.712904,133.998066,-9360.722011
1004.323748,95.712904,153.140646,-9360.722011
1004.324376,95.712904,133.998066,-9360.722011
1004.325003,95.712904,114.855485,-9418.149754
1004.325631,133.998066,210.568389,-9418.149754
1004.326258,172.283227,95.712904,-9399.007173
1004.326886,133.998066,114.855485,-9456.434915
1004.327513,133.998066,114.855485,-9418.149754
1004.328141,133.998066,114.855485,-9418.149754
1004.328768,114.855485,38.285162,-9399.007173
1004.329396,76.570323,95.712904,-9399.007173
1004.330024,133.998066,114.855485,-9418.149754
1004.330652,133.998066,133.998066,-9456.434915
1004.331279,76.570323,114.855485,-9418.149754
1004.331907,76.570323,114.855485,-9437.292334
1004.332535,76.570323,172.283227,-9418.149754
1004.333163,153.140646,153.140646,-9456.434915
1004.333791,133.998066,114.855485,-9418.149754
1004.334418,95.712904,95.712904,-9379.864592
1004.335046,76.570323,114.855485,-9418.149754
1004.335674,153.140646,133.998066,-9456.434915
1004.336302,133.998066,114.855485,-9437.292334
1004.336930,133.998066,114.855485,-9418.149754
1004.337558,57.427742,153.140646,-9341.579430
1004.338185,76.570323,153.140646,-9418.149754
1004.338813,133.998066,114.855485,-9418.149754
1004.339441,76.570323,133.998066,-9418.149754
1004.340069,95.712904,114.855485,-9418.149754
1004.340697,133.998066,133.998066,-9494.720077
1004.341324,76.570323,114.855485,-9418.149754
1004.341952,133.998066,114.855485,-9418.149754
1004.342580,38.285162,114.855485,-9360.722011
1004.343208,38.285162,172.283227,-9360.722011
1004.343836,76.570323,172.283227,-9360.722011
1004.344463,76.570323,114.855485,-9418.149754
1004.345091,76.570323,114.855485,-9475.577496
1004.345719,38.285162,172.283227,-9418.149754
1004.346347,133.998066,191.425808,-9418.149754
1004.346975,95.712904,172.283227,-9418.149754
1004.347603,76.570323,114.855485,-9418.149754
1004.348230,76.570323,191.425808,-9418.149754
1004.348858,0.000000,95.712904,-9399.007173
1004.349486,57.427742,95.712904,-9399.007173
1004.350114,95.712904,172.283227,-9418.149754
1004.350742,76.570323,114.855485,-9418.149754
1004.351369,133.998066,114.855485,-9360.722011
1004.351997,76.570323,133.998066,-9360.722011
1004.352625,133.998066,114.855485,-9418.149754
1004.353253,133.998066,133.998066,-9399.007173
1004.353881,153.140646,153.140646,-9399.007173
1004.354509,38.285162,114.855485,-9418.149754
1004.355136,57.427742,133.998066,-9418.149754
1004.355764,38.285162,114.855485,-9437.292334
1004.356392,76.570323,114.855485,-9418.149754
1004.357020,76.570323,153.140646,-9418.149754
1004.357648,133.998066,133.998066,-9399.007173
1004.358275,133.998066,153.140646,-9399.007173
1004.358903,38.285162,114.855485,-9418.149754
1004.359531,38.285162,114.855485,-9418.149754
1004.360159,133.998066,153.140646,-9456.434915
1004.360787,133.998066,114.855485,-9418.149754
1004.361415,76.570323,114.855485,-9418.149754
1004.362042,38.285162,114.855485,-9418.149754
1004.362670,133.998066,114.855485,-9418.149754
1004.363298,133.998066,114.855485,-9418.149754
1004.363926,133.998066,153.140646,-9437.292334
1004.364554,133.998066,114.855485,-9418.149754
1004.365181,76.570323,114.855485,-9475.577496
1004.365809,133.998066,114.855485,-9418.149754
1004.366437,133.998066,210.568389,-9360.722011
1004.367065,95.712904,133.998066,-9360.722011
1004.367693,76.570323,114.855485,-9418.149754
1004.368321,95.712904,114.855485,-9418.149754
1004.368948,76.570323,114.855485,-9437.292334
1004.369576,114.855485,153.140646,-9341.579430
1004.370204,76.570323,210.568389,-9418.149754
1004.370832,57.427742,172.283227,-9418.149754
1004.371460,19.142581,133.998066,-9494.720077
1004.372087,76.570323,172.283227,-9456.434915
1004.372715,133.998066,172.283227,-9437.292334
1004.373343,76.570323,114.855485,-9418.149754
1004.373971,57.427742,95.712904,-9456.434915
1004.374599,95.712904,114.855485,-9437.292334
1004.375226,114.855485,153.140646,-9360.722011
1004.375854,76.570323,172.283227,-9418.149754
1004.376482,76.570323,114.855485,-9456.434915
1004.377110,95.712904,172.283227,-9360.722011
1004.377738,95.712904,114.855485,-9437.292334
1004.378366,133.998066,153.140646,-9418.149754
1004.378993,95.712904,95.712904,-9399.007173
1004.379621,38.285162,114.855485,-9418.149754
1004.380249,57.427742,133.998066,-9360.722011
1004.380877,133.998066,172.283227,-9418.149754
1004.381505,133.998066,114.855485,-9418.149754
1004.382132,76.570323,114.855485,-9437.292334
1004.382760,133.998066,114.855485,-9360.722011
1004.383388,76.570323,114.855485,-9418.149754
1004.384016,133.998066,210.568389,-9360.722011
1004.384644,133.998066,153.140646,-9379.864592
1004.385272,153.140646,133.998066,-9399.007173
1004.385899,76.570323,191.425808,-9456.434915
1004.386527,114.855485,133.998066,-9360.722011
1004.387155,133.998066,114.855485,-9418.149754
1004.387783,133.998066,114.855485,-9418.149754
1004.388411,153.140646,133.998066,-9399.007173
1004.389038,76.570323,114.855485,-9418.149754
1004.389666,133.998066,114.855485,-9418.149754
1004.390294,153.140646,172.283227,-9399.007173
1004.390922,133.998066,114.855485,-9418.149754
1004.391550,153.140646,133.998066,-9379.864592
1004.392178,133.998066,153.140646,-9437.292334
1004.392805,114.855485,95.712904,-9399.007173
1004.393433,95.712904,95.712904,-9399.007173
1004.394061,133.998066,114.855485,-9418.149754
1004.394689,95.712904,95.712904,-9399.007173
1004.395317,76.570323,114.855485,-9418.149754
1004.395944,95.712904,172.283227,-9360.722011
1004.396572,114.855485,95.712904,-9399.007173
1004.397200,172.283227,95.712904,-9399.007173
1004.397828,76.570323,114.855485,-9418.149754
1004.398456,38.285162,114.855485,-9418.149754
1004.399084,133.998066,114.855485,-9418.149754
1004.399711,133.998066,76.570323,-9379.864592
1004.400339,76.570323,114.855485,-9437.292334
1004.400967,133.998066,172.283227,-9418.149754
1004.401595,76.570323,191.425808,-9418.149754
1004.402223,133.998066,114.855485,-9418.149754
1004.402850,76.570323,153.140646,-9437.292334
1004.403478,133.998066,114.855485,-9418.149754
1004.404106,95.712904,191.425808,-9418.149754
1004.404734,133.998066,172.283227,-9418.149754
1004.405362,95.712904,172.283227,-9360.722011
1004.405989,95.712904,133.998066,-9360.722011
1004.406617,153.140646,133.998066,-9399.007173
1004.407245,133.998066,114.855485,-9456.434915
1004.407873,133.998066,172.283227,-9418.149754
1004.408501,38.285162,172.283227,-9418.149754
1004.409129,153.140646,133.998066,-9399.007173
1004.409756,114.855485,133.998066,-9360.722011
1004.410384,76.570323,172.283227,-9418.149754
1004.411012,38.285162,114.855485,-9418.149754
1004.411640,57.427742,133.998066,-9360.722011
1004.412268,133.998066,114.855485,-9418.149754
1004.412895,76.570323,172.283227,-9418.149754
1004.413523,38.285162,172.283227,-9437.292334
1004.414151,133.998066,153.140646,-9456.434915
1004.414779,114.855485,153.140646,-9360.722011
1004.415407,76.570323,114.855485,-9418.149754
1004.416035,114.855485,114.855485,-9399.007173
1004.416662,38.285162,114.855485,-9418.149754
1004.417290,57.427742,133.998066,-9360.722011
1004.417918,76.570323,210.568389,-9418.149754
1004.418546,76.570323,210.568389,-9418.149754
1004.419174,95.712904,114.855485,-9418.149754
1004.419801,114.855485,172.283227,-9360.722011
1004.420429,76.570323,153.140646,-9437.292334
1004.421057,95.712904,172.283227,-9418.149754
1004.421685,38.285162,114.855485,-9418.149754
1004.422313,114.855485,133.998066,-9360.722011
1004.422941,76.570323,114.855485,-9418.149754
1004.423568,95.712904,153.140646,-9360.722011
1004.424196,76.570323,210.568389,-9418.149754
1004.424824,133.998066,172.283227,-9418.149754
1004.425452,114.855485,133.998066,-9360.722011
1004.426080,172.283227,133.998066,-9418.149754
1004.426707,95.712904,133.998066,-9360.722011
1004.427335,76.570323,172.283227,-9437.292334
1004.427963,114.855485,95.712904,-9399.007173
1004.428591,76.570323,114.855485,-9418.149754
1004.429219,95.712904,95.712904,-9399.007173
1004.429846,57.427742,95.712904,-9399.007173
1004.430474,95.712904,172.283227,-9360.722011
1004.431101,76.570323,153.140646,-9418.149754
1004.431729,114.855485,153.140646,-9360.722011
1004.432356,133.998066,114.855485,-9360.722011
1004.432984,133.998066,172.283227,-9456.434915
1004.433611,114.855485,133.998066,-9360.722011
1004.434239,133.998066,114.855485,-9475.577496
1004.434866,95.712904,133.998066,-9418.149754
1004.435494,114.855485,95.712904,-9437.292334
1004.436121,76.570323,153.140646,-9418.149754
1004.436749,153.140646,172.283227,-9379.864592
1004.437376,153.140646,114.855485,-9437.292334
1004.438004,172.283227,133.998066,-9360.722011
1004.438631,153.140646,133.998066,-9399.007173
1004.439259,133.998066,114.855485,-9418.149754
1004.439886,38.285162,172.283227,-9437.292334
1004.440514,210.568389,133.998066,-9399.007173
1004.441141,95.712904,133.998066,-9360.722011
1004.441769,95.712904,172.283227,-9360.722011
1004.442396,76.570323,114.855485,-9418.149754
1004.443024,76.570323,114.855485,-9418.149754
1004.443651,133.998066,133.998066,-9399.007173
1004.444279,95.712904,172.283227,-9418.149754
1004.444906,153.140646,133.998066,-9399.007173
1004.445534,133.998066,114.855485,-9418.149754
1004.446161,76.570323,114.855485,-9437.292334
1004.446789,133.998066,172.283227,-9418.149754
1004.447416,76.570323,153.140646,-9475.577496
1004.448044,133.998066,172.283227,-9418.149754
1004.448671,133.998066,114.855485,-9360.722011
1004.449299,76.570323,114.855485,-9475.577496
1004.449926,114.855485,133.998066,-9360.722011
1004.450554,133.998066,95.712904,-9399.007173
1004.451181,114.855485,172.283227,-9360.722011
1004.451809,133.998066,114.855485,-9437.292334
1004.452436,133.998066,172.283227,-9399.007173
1004.453064,133.998066,153.140646,-9437.292334
1004.453691,133.998066,153.140646,-9418.149754
1004.454319,133.998066,114.855485,-9418.149754
1004.454946,153.140646,133.998066,-9399.007173
1004.455574,153.140646,153.140646,-9399.007173
1004.456201,133.998066,114.855485,-9418.149754
1004.456829,133.998066,191.425808,-9418.149754
1004.457456,76.570323,172.283227,-9418.149754
1004.458084,76.570323,153.140646,-9456.434915
1004.458711,114.855485,248.853550,-9418.149754
1004.459339,133.998066,114.855485,-9418.149754
1004.459966,76.570323,114.855485,-9418.149754
1004.460594,57.427742,191.425808,-9360.722011
1004.461221,95.712904,95.712904,-9399.007173
1004.461849,76.570323,153.140646,-9360.722011
1004.462476,76.570323,114.855485,-9418.149754
1004.463104,38.285162,210.568389,-9418.149754
1004.463731,76.570323,114.855485,-9475.577496
1004.464359,133.998066,114.855485,-9418.149754
1004.464986,76.570323,114.855485,-9418.149754
1004.465614,172.283227,114.855485,-9379.864592
1004.466241,95.712904,172.283227,-9456.434915
1004.466869,133.998066,153.140646,-9418.149754
1004.467496,133.998066,210.568389,-9418.149754
1004.468124,153.140646,133.998066,-9456.434915
1004.468751,95.712904,191.425808,-9360.722011
1004.469379,76.570323,114.855485,-9418.149754
1004.470006,76.570323,114.855485,-9437.292334
1004.470634,38.285162,114.855485,-9418.149754
1004.471261,38.285162,114.855485,-9418.149754
1004.471889,38.285162,172.283227,-9475.577496
1004.472516,76.570323,153.140646,-9437.292334
1004.473144,38.285162,114.855485,-9456.434915
1004.473771,57.427742,133.998066,-9360.722011
1004.474399,153.140646,133.998066,-9399.007173
1004.475026,133.998066,210.568389,-9418.149754
1004.475654,133.998066,172.283227,-9418.149754
1004.476281,57.427742,210.568389,-9418.149754
1004.476909,133.998066,114.855485,-9437.292334
1004.477536,153.140646,133.998066,-9399.007173
1004.478164,76.570323,210.568389,-9418.149754
1004.478791,95.712904,133.998066,-9360.722011
1004.479419,133.998066,191.425808,-9399.007173
1004.480046,76.570323,114.855485,-9418.149754
1004.480674,114.855485,133.998066,-9360.722011
1004.481301,76.570323,114.855485,-9418.149754
1004.481929,133.998066,114.855485,-9437.292334
1004.482557,95.712904,133.998066,-9360.722011
1004.483184,76.570323,114.855485,-9418.149754
1004.483812,114.855485,95.712904,-9437.292334
1004.484439,95.712904,95.712904,-9399.007173
1004.485067,95.712904,95.712904,-9399.007173
1004.485694,133.998066,153.140646,-9399.007173
1004.486322,76.570323,210.568389,-9418.149754
1004.486949,133.998066,153.140646,-9418.149754
1004.487577,133.998066,114.855485,-9418.149754
1004.488204,76.570323,114.855485,-9418.149754
1004.488832,76.570323,114.855485,-9418.149754
1004.489459,38.285162,153.140646,-9418.149754
1004.490087,57.427742,133.998066,-9360.722011
1004.490714,114.855485,114.855485,-9379.864592
1004.491342,57.427742,153.140646,-9418.149754
1004.491969,76.570323,172.283227,-9418.149754
1004.492597,76.570323,153.140646,-9437.292334
1004.493224,95.712904,95.712904,-9399.007173
1004.493852,76.570323,114.855485,-9418.149754
1004.494479,114.855485,114.855485,-9360.722011
1004.495107,57.427742,172.283227,-9360.722011
1004.495734,38.285162,172.283227,-9418.149754
1004.496362,133.998066,114.855485,-9418.149754
1004.496989,114.855485,133.998066,-9360.722011
1004.497617,38.285162,114.855485,-9418.149754
1004.498244,172.283227,114.855485,-9379.864592
1004.498872,133.998066,114.855485,-9418.149754
1004.499499,133.998066,153.140646,-9418.149754
1004.500127,133.998066,114.855485,-9418.149754
1004.500754,153.140646,133.998066,-9456.434915
1004.501382,76.570323,114.855485,-9418.149754
1004.502009,153.140646,133.998066,-9399.007173
1004.502637,95.712904,153.140646,-9418.149754
1004.503264,133.998066,210.568389,-9418.149754
1004.503892,76.570323,114.855485,-9418.149754
1004.504519,153.140646,191.425808,-9399.007173
1004.505147,76.570323,229.710970,-9418.149754
1004.505774,76.570323,114.855485,-9418.149754
1004.506402,38.285162,114.855485,-9418.149754
1004.507029,114.855485,133.998066,-9360.722011
1004.507657,133.998066,172.283227,-9418.149754
1004.508284,38.285162,172.283227,-9360.722011
1004.508912,76.570323,114.855485,-9418.149754
1004.509539,38.285162,114.855485,-9437.292334
1004.510167,38.285162,172.283227,-9437.292334
1004.510794,57.427742,114.855485,-9456.434915
1004.511422,95.712904,114.855485,-9418.149754
1004.512049,114.855485,172.283227,-9360.722011
1004.512677,76.570323,114.855485,-9418.149754
1004.513304,95.712904,114.855485,-9418.149754
1004.513932,76.570323,210.568389,-9418.149754
1004.514559,38.285162,114.855485,-9418.149754
1004.515187,38.285162,114.855485,-9418.149754
1004.515814,114.855485,172.283227,-9360.722011
1004.516442,76.570323,153.140646,-9456.434915
1004.517069,76.570323,210.568389,-9437.292334
1004.517697,133.998066,153.140646,-9418.149754
1004.518324,76.570323,153.140646,-9418.149754
1004.518952,133.998066,210.568389,-9456.434915
1004.519579,153.140646,153.140646,-9437.292334
1004.520207,95.712904,153.140646,-9360.722011
1004.520834,133.998066,172.283227,-9399.007173
1004.521462,133.998066,133.998066,-9399.007173
1004.522089,57.427742,95.712904,-9399.007173
1004.522717,57.427742,133.998066,-9360.722011
1004.523344,38.285162,114.855485,-9418.149754
1004.523972,76.570323,114.855485,-9418.149754
1004.524599,95.712904,76.570323,-9379.864592
1004.525227,57.427742,95.712904,-9399.007173
1004.525854,76.570323,114.855485,-9418.149754
1004.526482,38.285162,153.140646,-9418.149754
1004.527109,114.855485,133.998066,-9360.722011
1004.527737,133.998066,114.855485,-9437.292334
1004.528364,76.570323,114.855485,-9418.149754
1004.528992,95.712904,133.998066,-9360.722011
1004.529619,114.855485,114.855485,-9456.434915
1004.530247,114.855485,153.140646,-9418.149754
1004.530875,76.570323,114.855485,-9418.149754
1004.531502,76.570323,114.855485,-9494.720077
1004.532130,153.140646,172.283227,-9399.007173
1004.532758,76.570323,114.855485,-9399.007173
1004.533386,95.712904,172.283227,-9418.149754
1004.534013,76.570323,153.140646,-9418.149754
1004.534641,76.570323,114.855485,-9437.292334
1004.535269,133.998066,114.855485,-9494.720077
1004.535896,38.285162,114.855485,-9475.577496
1004.536524,133.998066,114.855485,-9418.149754
1004.537152,76.570323,114.855485,-9418.149754
1004.537779,133.998066,114.855485,-9418.149754
1004.538407,114.855485,133.998066,-9360.722011
1004.539035,114.855485,133.998066,-9418.149754
1004.539663,76.570323,114.855485,-9418.149754
1004.540290,76.570323,153.140646,-9418.149754
1004.540918,133.998066,153.140646,-9399.007173
1004.541546,133.998066,153.140646,-9418.149754
1004.542173,38.285162,114.855485,-9418.149754
1004.542801,38.285162,210.568389,-9360.722011
1004.543429,38.285162,172.283227,-9418.149754
1004.544057,95.712904,210.568389,-9418.149754
1004.544684,133.998066,114.855485,-9456.434915
1004.545312,76.570323,114.855485,-9418.149754
1004.545940,38.285162,114.855485,-9418.149754
1004.546567,133.998066,133.998066,-9399.007173
1004.547195,114.855485,95.712904,-9399.007173
1004.547823,76.570323,114.855485,-9418.149754
1004.548450,133.998066,114.855485,-9418.149754
1004.549078,76.570323,153.140646,-9418.149754
1004.549706,95.712904,172.283227,-9360.722011
1004.550334,38.285162,114.855485,-9418.149754
1004.550961,76.570323,114.855485,-9418.149754
1004.551589,38.285162,114.855485,-9418.149754
1004.552217,76.570323,114.855485,-9418.149754
1004.552844,38.285162,114.855485,-9418.149754
1004.553472,153.140646,172.283227,-9399.007173
1004.554100,133.998066,210.568389,-9399.007173
1004.554728,114.855485,133.998066,-9360.722011
1004.555355,95.712904,95.712904,-9399.007173
1004.555983,114.855485,133.998066,-9360.722011
1004.556611,95.712904,172.283227,-9418.149754
1004.557238,0.000000,133.998066,-9360.722011
1004.557866,76.570323,114.855485,-9418.149754
1004.558494,76.570323,153.140646,-9360.722011
1004.559121,76.570323,153.140646,-9456.434915
1004.559749,57.427742,114.855485,-9475.577496
1004.560377,76.570323,76.570323,-9379.864592
1004.561005,76.570323,114.855485,-9418.149754
1004.561632,133.998066,114.855485,-9418.149754
1004.562260,153.140646,133.998066,-9379.864592
1004.562888,114.855485,191.425808,-9360.722011
1004.563515,133.998066,210.568389,-9418.149754
1004.564143,76.570323,114.855485,-9418.149754
1004.564771,133.998066,114.855485,-9418.149754
1004.565399,76.570323,114.855485,-9418.149754
1004.566026,133.998066,210.568389,-9418.149754
1004.566654,133.998066,114.855485,-9418.149754
1004.567282,76.570323,172.283227,-9437.292334
1004.567909,19.142581,229.710970,-9437.292334
1004.568537,38.285162,114.855485,-9437.292334
1004.569165,133.998066,114.855485,-9418.149754
1004.569792,95.712904,95.712904,-9437.292334
1004.570420,114.855485,133.998066,-9360.722011
1004.571048,38.285162,114.855485,-9437.292334
1004.571676,133.998066,114.855485,-9418.149754
1004.572303,153.140646,133.998066,-9379.864592
1004.572931,76.570323,76.570323,-9379.864592
1004.573559,172.283227,153.140646,-9379.864592
1004.574186,95.712904,133.998066,-9360.722011
1004.574814,76.570323,114.855485,-9418.149754
1004.575442,95.712904,210.568389,-9418.149754
1004.576070,153.140646,172.283227,-9418.149754
1004.576697,172.283227,153.140646,-9322.436850
1004.577325,76.570323,172.283227,-9418.149754
1004.577953,38.285162,172.283227,-9418.149754
1004.578580,76.570323,114.855485,-9418.149754
1004.579208,38.285162,172.283227,-9360.722011
1004.579836,76.570323,153.140646,-9418.149754
1004.580463,76.570323,114.855485,-9418.149754
1004.581091,76.570323,114.855485,-9418.149754
1004.581719,133.998066,114.855485,-9456.434915
1004.582347,76.570323,114.855485,-9494.720077
1004.582974,95.712904,114.855485,-9399.007173
1004.583602,76.570323,114.855485,-9418.149754
1004.584230,133.998066,172.283227,-9418.149754
1004.584857,95.712904,114.855485,-9399.007173
1004.585485,95.712904,114.855485,-9418.149754
1004.586113,76.570323,114.855485,-9418.149754
1004.586741,76.570323,114.855485,-9418.149754
1004.587368,153.140646,133.998066,-9399.007173
1004.587996,95.712904,133.998066,-9341.579430
1004.588624,114.855485,191.425808,-9360.722011
1004.589251,38.285162,172.283227,-9360.722011
1004.589879,76.570323,172.283227,-9418.149754
1004.590507,133.998066,210.568389,-9418.149754
1004.591134,76.570323,114.855485,-9456.434915
1004.591762,57.427742,114.855485,-9418.149754
1004.592390,133.998066,133.998066,-9399.007173
1004.593018,133.998066,76.570323,-9379.864592
1004.593645,133.998066,172.283227,-9437.292334
1004.594273,133.998066,133.998066,-9399.007173
1004.594901,153.140646,172.283227,-9399.007173
1004.595528,76.570323,172.283227,-9418.149754
1004.596156,133.998066,153.140646,-9437.292334
1004.596784,133.998066,114.855485,-9418.149754
1004.597412,38.285162,172.283227,-9418.149754
1004.598039,95.712904,114.855485,-9418.149754
1004.598667,133.998066,210.568389,-9456.434915
1004.599295,153.140646,191.425808,-9360.722011
1004.599922,76.570323,210.568389,-9418.149754
1004.600550,38.285162,114.855485,-9418.149754
1004.601178,76.570323,114.855485,-9418.149754
1004.601805,38.285162,210.568389,-9456.434915
1004.602433,133.998066,114.855485,-9475.577496
1004.603061,133.998066,153.140646,-9399.007173
1004.603689,133.998066,114.855485,-9418.149754
1004.604316,95.712904,133.998066,-9360.722011
1004.604944,133.998066,114.855485,-9456.434915
1004.605572,95.712904,95.712904,-9399.007173
1004.606199,76.570323,114.855485,-9418.149754
1004.606827,133.998066,114.855485,-9418.149754
1004.607455,76.570323,114.855485,-9437.292334
1004.608083,76.570323,114.855485,-9437.292334
1004.608710,133.998066,114.855485,-9418.149754
1004.609338,38.285162,153.140646,-9418.149754
1004.609966,76.570323,172.283227,-9418.149754
1004.610593,95.712904,191.425808,-9360.722011
1004.611221,76.570323,153.140646,-9418.149754
1004.611849,153.140646,172.283227,-9399.007173
1004.612476,114.855485,133.998066,-9360.722011
1004.613104,133.998066,114.855485,-9360.722011
1004.613732,133.998066,114.855485,-9418.149754
1004.614360,76.570323,114.855485,-9437.292334
1004.614987,76.570323,172.283227,-9456.434915
1004.615615,153.140646,133.998066,-9399.007173
1004.616243,76.570323,114.855485,-9418.149754
1004.616870,133.998066,114.855485,-9360.722011
1004.617498,76.570323,114.855485,-9418.149754
1004.618126,95.712904,114.855485,-9418.149754
1004.618754,133.998066,172.283227,-9418.149754
1004.619381,133.998066,114.855485,-9418.149754
1004.620009,76.570323,172.283227,-9418.149754
1004.620637,153.140646,133.998066,-9456.434915
1004.621264,76.570323,114.855485,-9418.149754
1004.621892,133.998066,153.140646,-9456.434915
1004.622520,153.140646,133.998066,-9456.434915
1004.623147,95.712904,114.855485,-9456.434915
1004.623775,95.712904,114.855485,-9418.149754
1004.624403,133.998066,153.140646,-9437.292334
1004.625031,76.570323,172.283227,-9418.149754
1004.625658,95.712904,210.568389,-9456.434915
1004.626286,76.570323,114.855485,-9418.149754
1004.626914,76.570323,114.855485,-9418.149754
1004.627541,76.570323,114.855485,-9437.292334
1004.628169,133.998066,210.568389,-9418.149754
1004.628797,133.998066,210.568389,-9418.149754
1004.629425,76.570323,210.568389,-9418.149754
1004.630052,76.570323,114.855485,-9418.149754
1004.630680,38.285162,114.855485,-9437.292334
1004.631307,153.140646,114.855485,-9418.149754
1004.631935,133.998066,114.855485,-9418.149754
1004.632562,76.570323,114.855485,-9437.292334
1004.633190,76.570323,114.855485,-9418.149754
1004.633817,133.998066,172.283227,-9399.007173
1004.634445,114.855485,133.998066,-9360.722011
1004.635072,153.140646,133.998066,-9399.007173
1004.635700,133.998066,114.855485,-9475.577496
1004.636327,76.570323,210.568389,-9456.434915
1004.636955,76.570323,114.855485,-9418.149754
1004.637582,95.712904,153.140646,-9418.149754
1004.638210,95.712904,95.712904,-9399.007173
1004.638837,133.998066,153.140646,-9418.149754
1004.639465,76.570323,153.140646,-9418.149754
1004.640092,76.570323,172.283227,-9418.149754
1004.640720,76.570323,172.283227,-9418.149754
1004.641347,76.570323,153.140646,-9418.149754
1004.641975,133.998066,114.855485,-9418.149754
1004.642602,133.998066,114.855485,-9437.292334
1004.643230,76.570323,114.855485,-9437.292334
1004.643857,133.998066,133.998066,-9379.864592
1004.644485,133.998066,133.998066,-9456.434915
1004.645113,133.998066,133.998066,-9399.007173
1004.645740,153.140646,133.998066,-9494.720077
1004.646368,57.427742,114.855485,-9418.149754
1004.646995,95.712904,95.712904,-9399.007173
1004.647623,133.998066,114.855485,-9456.434915
1004.648250,76.570323,114.855485,-9437.292334
1004.648878,133.998066,114.855485,-9418.149754
1004.649505,95.712904,153.140646,-9418.149754
1004.650133,76.570323,172.283227,-9418.149754
1004.650760,38.285162,114.855485,-9437.292334
1004.651388,76.570323,114.855485,-9456.434915
1004.652015,38.285162,153.140646,-9475.577496
1004.652643,57.427742,95.712904,-9437.292334
1004.653270,95.712904,114.855485,-9437.292334
1004.653898,76.570323,114.855485,-9418.149754
1004.654525,95.712904,95.712904,-9399.007173
1004.655153,114.855485,95.712904,-9456.434915
1004.655780,133.998066,114.855485,-9418.149754
1004.656408,76.570323,114.855485,-9418.149754
1004.657035,133.998066,172.283227,-9418.149754
1004.657663,38.285162,114.855485,-9418.149754
1004.658290,76.570323,76.570323,-9379.864592
1004.658918,76.570323,153.140646,-9418.149754
1004.659545,95.712904,95.712904,-9399.007173
1004.660173,95.712904,210.568389,-9418.149754
1004.660800,76.570323,114.855485,-9418.149754
1004.661428,95.712904,114.855485,-9418.149754
1004.662055,76.570323,172.283227,-9418.149754
1004.662683,153.140646,133.998066,-9399.007173
1004.663310,38.285162,191.425808,-9379.864592
1004.663938,76.570323,114.855485,-9418.149754
1004.664565,76.570323,114.855485,-9418.149754
1004.665193,133.998066,114.855485,-9437.292334
1004.665820,76.570323,191.425808,-9418.149754
1004.666448,38.285162,114.855485,-9418.149754
1004.667075,19.142581,114.855485,-9418.149754
1004.667703,95.712904,95.712904,-9456.434915
1004.668330,153.140646,114.855485,-9418.149754
1004.668958,153.140646,172.283227,-9399.007173
1004.669586,172.283227,76.570323,-9475.577496
1004.670213,153.140646,133.998066,-9379.864592
1004.670841,133.998066,114.855485,-9418.149754
1004.671468,153.140646,133.998066,-9399.007173
1004.672096,76.570323,114.855485,-9456.434915
1004.672723,95.712904,172.283227,-9418.149754
1004.673351,153.140646,172.283227,-9399.007173
1004.673978,76.570323,114.855485,-9418.149754
1004.674606,57.427742,114.855485,-9418.149754
1004.675233,153.140646,133.998066,-9399.007173
1004.675861,153.140646,133.998066,-9456.434915
1004.676488,133.998066,210.568389,-9418.149754
1004.677116,76.570323,172.283227,-9418.149754
1004.677743,133.998066,114.855485,-9418.149754
1004.678371,57.427742,95.712904,-9399.007173
1004.678998,76.570323,114.855485,-9418.149754
1004.679626,133.998066,114.855485,-9418.149754
1004.680253,95.712904,95.712904,-9399.007173
1004.680881,133.998066,114.855485,-9437.292334
1004.681508,133.998066,114.855485,-9418.149754
1004.682136,76.570323,153.140646,-9418.149754
1004.682763,95.712904,95.712904,-9456.434915
1004.683391,76.570323,153.140646,-9437.292334
1004.684018,76.570323,153.140646,-9418.149754
1004.684646,133.998066,114.855485,-9418.149754
1004.685273,38.285162,153.140646,-9418.149754
1004.685901,95.712904,114.855485,-9456.434915
1004.686528,133.998066,114.855485,-9437.292334
1004.687156,114.855485,114.855485,-9399.007173
1004.687783,76.570323,114.855485,-9494.720077
1004.688411,38.285162,133.998066,-9360.722011
1004.689038,38.285162,153.140646,-9418.149754
1004.689666,38.285162,153.140646,-9418.149754
1004.690293,153.140646,153.140646,-9399.007173
1004.690921,57.427742,133.998066,-9418.149754
1004.691548,95.712904,133.998066,-9360.722011
1004.692176,95.712904,153.140646,-9360.722011
1004.692804,19.142581,172.283227,-9418.149754
1004.693431,133.998066,114.855485,-9418.149754
1004.694059,133.998066,76.570323,-9379.864592
1004.694686,153.140646,133.998066,-9399.007173
1004.695314,133.998066,210.568389,-9418.149754
1004.695941,133.998066,114.855485,-9418.149754
1004.696569,133.998066,191.425808,-9399.007173
1004.697196,76.570323,210.568389,-9418.149754
1004.697824,133.998066,114.855485,-9456.434915
1004.698451,95.712904,133.998066,-9360.722011
1004.699079,57.427742,114.855485,-9418.149754
1004.699706,95.712904,114.855485,-9437.292334
1004.700334,95.712904,210.568389,-9418.149754
1004.700961,153.140646,133.998066,-9379.864592
1004.701589,133.998066,114.855485,-9437.292334
1004.702216,133.998066,114.855485,-9418.149754
1004.702844,76.570323,114.855485,-9456.434915
1004.703471,133.998066,114.855485,-9456.434915
1004.704099,153.140646,172.283227,-9399.007173
1004.704726,133.998066,114.855485,-9418.149754
1004.705354,210.568389,248.853550,-9456.434915
1004.705981,95.712904,114.855485,-9418.149754
1004.706609,95.712904,114.855485,-9418.149754
1004.707236,133.998066,114.855485,-9418.149754
1004.707864,95.712904,114.855485,-9418.149754
1004.708491,133.998066,114.855485,-9418.149754
1004.709119,133.998066,114.855485,-9437.292334
1004.709746,133.998066,114.855485,-9456.434915
1004.710374,76.570323,114.855485,-9418.149754
1004.711001,95.712904,248.853550,-9360.722011
1004.711629,95.712904,133.998066,-9341.579430
1004.712256,76.570323,114.855485,-9418.149754
1004.712884,133.998066,210.568389,-9418.149754
1004.713511,133.998066,153.140646,-9418.149754
1004.714139,76.570323,153.140646,-9418.149754
1004.714766,95.712904,153.140646,-9360.722011
1004.715394,76.570323,114.855485,-9437.292334
1004.716021,38.285162,153.140646,-9418.149754
1004.716649,133.998066,114.855485,-9418.149754
1004.717277,76.570323,114.855485,-9418.149754
1004.717904,57.427742,133.998066,-9360.722011
1004.718532,76.570323,76.570323,-9341.579430
1004.719159,114.855485,114.855485,-9379.864592
1004.719787,133.998066,133.998066,-9379.864592
1004.720414,114.855485,133.998066,-9360.722011
1004.721042,76.570323,114.855485,-9418.149754
1004.721669,38.285162,172.283227,-9360.722011
1004.722297,172.283227,76.570323,-9418.149754
1004.722924,76.570323,76.570323,-9379.864592
1004.723552,95.712904,153.140646,-9360.722011
1004.724179,38.285162,153.140646,-9418.149754
1004.724807,133.998066,76.570323,-9379.864592
1004.725434,133.998066,133.998066,-9399.007173
1004.726062,133.998066,172.283227,-9456.434915
1004.726689,76.570323,114.855485,-9437.292334
1004.727317,95.712904,114.855485,-9475.577496
1004.727944,95.712904,248.853550,-9360.722011
1004.728572,133.998066,114.855485,-9360.722011
1004.729199,133.998066,114.855485,-9418.149754
1004.729827,133.998066,153.140646,-9418.149754
1004.730454,95.712904,114.855485,-9360.722011
1004.731082,95.712904,95.712904,-9437.292334
1004.731709,133.998066,114.855485,-9456.434915
1004.732337,114.855485,95.712904,-9399.007173
1004.732964,133.998066,172.283227,-9437.292334
1004.733591,114.855485,133.998066,-9360.722011
1004.734219,210.568389,114.855485,-9399.007173
1004.734846,76.570323,95.712904,-9399.007173
1004.735474,114.855485,172.283227,-9360.722011
1004.736101,38.285162,114.855485,-9437.292334
1004.736729,95.712904,114.855485,-9456.434915
1004.737356,133.998066,133.998066,-9437.292334
1004.737983,114.855485,133.998066,-9360.722011
1004.738611,76.570323,114.855485,-9418.149754
1004.739238,133.998066,172.283227,-9418.149754
1004.739866,76.570323,153.140646,-9418.149754
1004.740493,38.285162,114.855485,-9418.149754
1004.741121,95.712904,153.140646,-9418.149754
1004.741748,133.998066,153.140646,-9418.149754
1004.742375,133.998066,114.855485,-9456.434915
1004.743003,38.285162,114.855485,-9360.722011
1004.743630,57.427742,133.998066,-9360.722011
1004.744258,38.285162,114.855485,-9418.149754
1004.744885,57.427742,133.998066,-9360.722011
1004.745513,153.140646,133.998066,-9399.007173
1004.746140,95.712904,114.855485,-9418.149754
1004.746767,38.285162,114.855485,-9418.149754
1004.747395,76.570323,172.283227,-9437.292334
1004.748022,133.998066,114.855485,-9418.149754
1004.748650,133.998066,114.855485,-9437.292334
1004.749277,76.570323,153.140646,-9418.149754
1004.749905,114.855485,76.570323,-9418.149754
1004.750532,95.712904,133.998066,-9360.722011
1004.751159,95.712904,95.712904,-9494.720077
1004.751787,38.285162,114.855485,-9418.149754
1004.752414,76.570323,210.568389,-9418.149754
1004.753042,38.285162,114.855485,-9418.149754
1004.753669,95.712904,95.712904,-9399.007173
1004.754296,133.998066,114.855485,-9418.149754
1004.754924,-19.142581,114.855485,-9341.579430
1004.755551,57.427742,95.712904,-9399.007173
1004.756179,57.427742,114.855485,-9399.007173
1004.756806,133.998066,153.140646,-9418.149754
1004.757434,114.855485,133.998066,-9360.722011
1004.758061,133.998066,114.855485,-9418.149754
1004.758688,133.998066,114.855485,-9418.149754
1004.759316,133.998066,133.998066,-9399.007173
1004.759943,133.998066,191.425808,-9418.149754
1004.760571,95.712904,172.283227,-9418.149754
1004.761198,95.712904,153.140646,-9360.722011
1004.761826,76.570323,133.998066,-9418.149754
1004.762453,38.285162,210.568389,-9418.149754
1004.763080,76.570323,172.283227,-9360.722011
1004.763708,133.998066,114.855485,-9418.149754
1004.764335,133.998066,153.140646,-9418.149754
1004.764963,95.712904,172.283227,-9360.722011
1004.765590,76.570323,114.855485,-9437.292334
1004.766218,133.998066,114.855485,-9418.149754
1004.766845,133.998066,133.998066,-9437.292334
1004.767472,133.998066,133.998066,-9399.007173
1004.768100,114.855485,133.998066,-9360.722011
1004.768727,38.285162,153.140646,-9418.149754
1004.769355,38.285162,114.855485,-9418.149754
1004.769982,133.998066,114.855485,-9437.292334
1004.770610,76.570323,114.855485,-9418.149754
1004.771237,153.140646,133.998066,-9399.007173
1004.771864,76.570323,114.855485,-9360.722011
1004.772492,95.712904,133.998066,-9322.436850
1004.773119,76.570323,114.855485,-9418.149754
1004.773747,76.570323,114.855485,-9418.149754
1004.774374,76.570323,153.140646,-9418.149754
1004.775002,76.570323,114.855485,-9418.149754
1004.775629,76.570323,229.710970,-9418.149754
1004.776256,133.998066,153.140646,-9418.149754
1004.776884,133.998066,210.568389,-9379.864592
1004.777511,133.998066,114.855485,-9418.149754
1004.778139,76.570323,114.855485,-9418.149754
1004.778766,95.712904,95.712904,-9399.007173
1004.779394,114.855485,95.712904,-9399.007173
1004.780021,76.570323,172.283227,-9456.434915
1004.780648,133.998066,210.568389,-9418.149754
1004.781276,76.570323,172.283227,-9418.149754
1004.781903,76.570323,114.855485,-9418.149754
1004.782531,114.855485,95.712904,-9437.292334
1004.783158,133.998066,114.855485,-9418.149754
1004.783786,76.570323,114.855485,-9418.149754
1004.784413,153.140646,210.568389,-9399.007173
1004.785040,38.285162,114.855485,-9418.149754
1004.785668,133.998066,153.140646,-9399.007173
1004.786295,153.140646,133.998066,-9399.007173
1004.786923,153.140646,172.283227,-9399.007173
1004.787550,95.712904,114.855485,-9418.149754
1004.788178,133.998066,210.568389,-9456.434915
1004.788805,133.998066,172.283227,-9418.149754
1004.789432,57.427742,114.855485,-9418.149754
1004.790060,38.285162,172.283227,-9418.149754
1004.790687,38.285162,114.855485,-9418.149754
1004.791315,38.285162,114.855485,-9418.149754
1004.791942,76.570323,114.855485,-9418.149754
1004.792570,76.570323,114.855485,-9418.149754
1004.793197,38.285162,114.855485,-9418.149754
1004.793824,153.140646,153.140646,-9399.007173
1004.794452,153.140646,133.998066,-9399.007173
1004.795079,114.855485,114.855485,-9379.864592
1004.795707,38.285162,172.283227,-9418.149754
1004.796334,114.855485,95.712904,-9399.007173
1004.796962,76.570323,114.855485,-9418.149754
1004.797589,133.998066,133.998066,-9494.720077
1004.798216,76.570323,114.855485,-9418.149754
1004.798844,153.140646,133.998066,-9399.007173
1004.799471,76.570323,114.855485,-9418.149754
1004.800099,38.285162,114.855485,-9418.149754
1004.800726,76.570323,133.998066,-9360.722011
1004.801354,95.712904,133.998066,-9360.722011
1004.801981,133.998066,114.855485,-9418.149754
1004.802608,76.570323,114.855485,-9418.149754
1004.803236,133.998066,114.855485,-9418.149754
1004.803863,153.140646,153.140646,-9399.007173
1004.804491,76.570323,114.855485,-9437.292334
1004.805118,76.570323,114.855485,-9418.149754
1004.805746,114.855485,95.712904,-9399.007173
1004.806373,133.998066,114.855485,-9418.149754
1004.807000,76.570323,114.855485,-9418.149754
1004.807628,76.570323,191.425808,-9418.149754
1004.808255,133.998066,210.568389,-9418.149754
1004.808883,57.427742,133.998066,-9360.722011
1004.809510,133.998066,114.855485,-9418.149754
1004.810138,95.712904,153.140646,-9360.722011
1004.810765,57.427742,133.998066,-9360.722011
1004.811392,76.570323,114.855485,-9418.149754
1004.812020,76.570323,210.568389,-9437.292334
1004.812647,76.570323,114.855485,-9418.149754
1004.813275,133.998066,172.283227,-9418.149754
1004.813902,133.998066,172.283227,-9418.149754
1004.814529,114.855485,95.712904,-9456.434915
1004.815157,172.283227,153.140646,-9379.864592
1004.815784,133.998066,114.855485,-9418.149754
1004.816412,133.998066,172.283227,-9418.149754
1004.817039,76.570323,153.140646,-9418.149754
1004.817667,38.285162,114.855485,-9418.149754
1004.818294,76.570323,114.855485,-9418.149754
1004.818921,114.855485,153.140646,-9379.864592
1004.819549,95.712904,172.283227,-9360.722011
1004.820176,95.712904,114.855485,-9418.149754
1004.820804,133.998066,172.283227,-9418.149754
1004.821431,76.570323,153.140646,-9456.434915
1004.822059,133.998066,114.855485,-9418.149754
1004.822686,133.998066,114.855485,-9418.149754
1004.823313,133.998066,114.855485,-9437.292334
1004.823941,76.570323,191.425808,-9418.149754
1004.824568,76.570323,210.568389,-9418.149754
1004.825196,38.285162,210.568389,-9418.149754
1004.825823,133.998066,114.855485,-9418.149754
1004.826451,133.998066,114.855485,-9418.149754
1004.827078,76.570323,153.140646,-9418.149754
1004.827705,95.712904,114.855485,-9437.292334
1004.828333,76.570323,210.568389,-9437.292334
1004.828960,133.998066,133.998066,-9456.434915
1004.829588,76.570323,114.855485,-9418.149754
1004.830215,76.570323,153.140646,-9418.149754
1004.830843,133.998066,210.568389,-9437.292334
1004.831470,133.998066,153.140646,-9360.722011
1004.832098,133.998066,210.568389,-9418.149754
1004.832725,95.712904,95.712904,-9399.007173
1004.833353,76.570323,114.855485,-9418.149754
1004.833980,76.570323,114.855485,-9418.149754
1004.834608,76.570323,114.855485,-9418.149754
1004.835235,76.570323,114.855485,-9437.292334
1004.835863,114.855485,95.712904,-9399.007173
1004.836491,153.140646,172.283227,-9399.007173
1004.837118,153.140646,133.998066,-9399.007173
1004.837746,114.855485,95.712904,-9456.434915
1004.838373,172.283227,76.570323,-9437.292334
1004.839001,76.570323,114.855485,-9418.149754
1004.839628,76.570323,114.855485,-9418.149754
1004.840256,114.855485,95.712904,-9399.007173
1004.840884,76.570323,153.140646,-9418.149754
1004.841511,114.855485,172.283227,-9360.722011
1004.842139,133.998066,114.855485,-9418.149754
1004.842766,76.570323,76.570323,-9379.864592
1004.843394,133.998066,114.855485,-9418.149754
1004.844021,133.998066,153.140646,-9418.149754
1004.844649,114.855485,114.855485,-9379.864592
1004.845276,172.283227,114.855485,-9379.864592
1004.845904,76.570323,114.855485,-9418.149754
1004.846532,76.570323,114.855485,-9418.149754
1004.847159,76.570323,114.855485,-9418.149754
1004.847787,76.570323,210.568389,-9418.149754
1004.848414,114.855485,153.140646,-9303.294269
1004.849042,95.712904,153.140646,-9418.149754
1004.849669,133.998066,114.855485,-9418.149754
1004.850297,153.140646,172.283227,-9399.007173
1004.850924,133.998066,114.855485,-9418.149754
1004.851552,95.712904,133.998066,-9360.722011
1004.852180,114.855485,210.568389,-9360.722011
1004.852807,95.712904,172.283227,-9360.722011
1004.853435,76.570323,114.855485,-9418.149754
1004.854062,76.570323,114.855485,-9418.149754
1004.854690,76.570323,191.425808,-9360.722011
1004.855317,76.570323,114.855485,-9360.722011
1004.855945,133.998066,172.283227,-9418.149754
1004.856572,133.998066,114.855485,-9437.292334
1004.857200,76.570323,153.140646,-9360.722011
1004.857828,38.285162,114.855485,-9437.292334
1004.858455,95.712904,210.568389,-9379.864592
1004.859083,76.570323,172.283227,-9418.149754
1004.859710,172.283227,210.568389,-9341.579430
1004.860338,95.712904,172.283227,-9360.722011
1004.860965,76.570323,114.855485,-9456.434915
1004.861593,133.998066,153.140646,-9418.149754
1004.862220,133.998066,114.855485,-9418.149754
1004.862848,76.570323,114.855485,-9418.149754
1004.863476,38.285162,153.140646,-9418.149754
1004.864103,133.998066,114.855485,-9418.149754
1004.864731,133.998066,133.998066,-9399.007173
1004.865358,133.998066,153.140646,-9418.149754
1004.865986,172.283227,114.855485,-9379.864592
1004.866613,76.570323,210.568389,-9418.149754
1004.867241,133.998066,153.140646,-9399.007173
1004.867869,95.712904,153.140646,-9418.149754
1004.868496,76.570323,153.140646,-9360.722011
1004.869124,19.142581,114.855485,-9418.149754
1004.869751,114.855485,172.283227,-9360.722011
1004.870379,133.998066,172.283227,-9418.149754
1004.871006,76.570323,153.140646,-9418.149754
1004.871634,38.285162,114.855485,-9418.149754
1004.872261,133.998066,114.855485,-9437.292334
1004.872889,76.570323,114.855485,-9418.149754
1004.873517,76.570323,114.855485,-9418.149754
1004.874144,57.427742,191.425808,-9360.722011
1004.874772,38.285162,210.568389,-9418.149754
1004.875399,38.285162,210.568389,-9418.149754
1004.876027,38.285162,172.283227,-9437.292334
1004.876654,76.570323,114.855485,-9418.149754
1004.877282,38.285162,210.568389,-9418.149754
1004.877909,133.998066,114.855485,-9456.434915
1004.878537,95.712904,191.425808,-9360.722011
1004.879165,95.712904,210.568389,-9418.149754
1004.879792,95.712904,210.568389,-9418.149754
1004.880420,38.285162,114.855485,-9456.434915
1004.881047,38.285162,153.140646,-9360.722011
1004.881675,95.712904,95.712904,-9399.007173
1004.882302,76.570323,210.568389,-9418.149754
1004.882930,76.570323,210.568389,-9456.434915
1004.883557,76.570323,114.855485,-9418.149754
1004.884185,76.570323,210.568389,-9418.149754
1004.884813,133.998066,133.998066,-9399.007173
1004.885440,76.570323,114.855485,-9456.434915
1004.886068,76.570323,153.140646,-9418.149754
1004.886695,95.712904,153.140646,-9437.292334
1004.887323,95.712904,114.855485,-9399.007173
1004.887950,133.998066,114.855485,-9456.434915
1004.888578,76.570323,114.855485,-9418.149754
1004.889205,114.855485,133.998066,-9360.722011
1004.889833,133.998066,114.855485,-9437.292334
1004.890461,133.998066,76.570323,-9399.007173
1004.891088,76.570323,172.283227,-9437.292334
1004.891716,133.998066,114.855485,-9418.149754
1004.892343,133.998066,114.855485,-9456.434915
1004.892971,76.570323,114.855485,-9418.149754
1004.893598,95.712904,210.568389,-9418.149754
1004.894226,114.855485,133.998066,-9418.149754
1004.894853,57.427742,133.998066,-9360.722011
1004.895481,133.998066,114.855485,-9418.149754
1004.896109,114.855485,114.855485,-9379.864592
1004.896736,95.712904,95.712904,-9494.720077
1004.897364,114.855485,114.855485,-9379.864592
1004.897991,38.285162,114.855485,-9418.149754
1004.898619,114.855485,172.283227,-9418.149754
1004.899246,76.570323,114.855485,-9475.577496
1004.899874,153.140646,133.998066,-9456.434915
1004.900502,76.570323,153.140646,-9418.149754
1004.901129,133.998066,114.855485,-9418.149754
1004.901757,38.285162,76.570323,-9379.864592
1004.902384,133.998066,114.855485,-9418.149754
1004.903012,153.140646,210.568389,-9418.149754
1004.903639,95.712904,210.568389,-9360.722011
1004.904267,76.570323,114.855485,-9418.149754
1004.904894,76.570323,210.568389,-9418.149754
1004.905522,76.570323,114.855485,-9418.149754
1004.906150,76.570323,153.140646,-9418.149754
1004.906777,76.570323,114.855485,-9418.149754
1004.907405,76.570323,210.568389,-9418.149754
1004.908032,133.998066,114.855485,-9418.149754
1004.908660,76.570323,172.283227,-9437.292334
1004.909287,133.998066,210.568389,-9418.149754
1004.909915,57.427742,172.283227,-9360.722011
1004.910542,153.140646,172.283227,-9437.292334
1004.911170,153.140646,114.855485,-9418.149754
1004.911798,133.998066,114.855485,-9418.149754
1004.912425,76.570323,95.712904,-9437.292334
1004.913053,153.140646,172.283227,-9399.007173
1004.913680,153.140646,210.568389,-9418.149754
1004.914308,114.855485,95.712904,-9456.434915
1004.914935,133.998066,114.855485,-9418.149754
1004.915563,133.998066,210.568389,-9418.149754
1004.916190,76.570323,114.855485,-9475.577496
1004.916818,38.285162,172.283227,-9418.149754
1004.917446,133.998066,172.283227,-9418.149754
1004.918073,114.855485,95.712904,-9399.007173
1004.918701,172.283227,114.855485,-9379.864592
1004.919328,114.855485,172.283227,-9360.722011
1004.919956,153.140646,172.283227,-9437.292334
1004.920583,153.140646,153.140646,-9475.577496
1004.921211,133.998066,172.283227,-9418.149754
1004.921838,76.570323,172.283227,-9360.722011
1004.922466,172.283227,76.570323,-9418.149754
1004.923094,133.998066,114.855485,-9418.149754
1004.923721,172.283227,133.998066,-9418.149754
1004.924349,95.712904,153.140646,-9360.722011
1004.924976,114.855485,114.855485,-9456.434915
1004.925604,76.570323,172.283227,-9437.292334
1004.926231,76.570323,95.712904,-9418.149754
1004.926859,114.855485,133.998066,-9360.722011
1004.927487,95.712904,287.138712,-9399.007173
1004.928114,95.712904,191.425808,-9360.722011
1004.928742,133.998066,114.855485,-9437.292334
1004.929369,76.570323,114.855485,-9456.434915
1004.929997,38.285162,114.855485,-9456.434915
1004.930624,133.998066,114.855485,-9418.149754
1004.931252,133.998066,114.855485,-9418.149754
1004.931879,95.712904,133.998066,-9418.149754
1004.932507,153.140646,114.855485,-9418.149754
1004.933135,153.140646,133.998066,-9399.007173
1004.933762,153.140646,153.140646,-9399.007173
1004.934390,133.998066,114.855485,-9418.149754
1004.935017,133.998066,114.855485,-9418.149754
1004.935645,114.855485,95.712904,-9399.007173
1004.936272,76.570323,114.855485,-9418.149754
1004.936900,153.140646,153.140646,-9418.149754
1004.937527,172.283227,172.283227,-9379.864592
1004.938155,133.998066,172.283227,-9437.292334
1004.938783,76.570323,172.283227,-9418.149754
1004.939410,114.855485,172.283227,-9360.722011
1004.940038,133.998066,172.283227,-9418.149754
1004.940665,38.285162,210.568389,-9418.149754
1004.941293,76.570323,172.283227,-9418.149754
1004.941920,133.998066,114.855485,-9418.149754
1004.942548,76.570323,153.140646,-9418.149754
1004.943175,76.570323,114.855485,-9418.149754
1004.943803,133.998066,133.998066,-9399.007173
1004.944431,76.570323,114.855485,-9418.149754
1004.945058,38.285162,267.996131,-9399.007173
1004.945686,38.285162,153.140646,-9418.149754
1004.946313,76.570323,172.283227,-9418.149754
1004.946941,76.570323,153.140646,-9418.149754
1004.947568,114.855485,133.998066,-9360.722011
1004.948196,76.570323,114.855485,-9418.149754
1004.948823,76.570323,114.855485,-9418.149754
1004.949451,76.570323,114.855485,-9456.434915
1004.950079,153.140646,133.998066,-9456.434915
1004.950706,133.998066,114.855485,-9418.149754
1004.951334,76.570323,114.855485,-9418.149754
1004.951961,76.570323,114.855485,-9418.149754
1004.952589,76.570323,172.283227,-9418.149754
1004.953216,76.570323,114.855485,-9418.149754
1004.953844,95.712904,114.855485,-9418.149754
1004.954471,114.855485,76.570323,-9437.292334
1004.955099,76.570323,191.425808,-9437.292334
1004.955727,133.998066,172.283227,-9437.292334
1004.956354,133.998066,114.855485,-9418.149754
1004.956982,76.570323,114.855485,-9418.149754
1004.957609,95.712904,95.712904,-9399.007173
1004.958237,95.712904,114.855485,-9418.149754
1004.958864,133.998066,191.425808,-9399.007173
1004.959492,76.570323,114.855485,-9418.149754
1004.960119,76.570323,114.855485,-9418.149754
1004.960747,95.712904,114.855485,-9456.434915
1004.961375,95.712904,210.568389,-9418.149754
1004.962002,38.285162,114.855485,-9418.149754
1004.962630,95.712904,114.855485,-9418.149754
1004.963257,76.570323,153.140646,-9418.149754
1004.963885,133.998066,114.855485,-9418.149754
1004.964512,76.570323,172.283227,-9418.149754
1004.965140,114.855485,172.283227,-9360.722011
1004.965767,133.998066,114.855485,-9437.292334
1004.966395,95.712904,133.998066,-9418.149754
1004.967023,38.285162,114.855485,-9418.149754
1004.967650,38.285162,114.855485,-9437.292334
1004.968278,133.998066,114.855485,-9418.149754
1004.968905,76.570323,114.855485,-9437.292334
1004.969533,133.998066,114.855485,-9418.149754
1004.970160,133.998066,133.998066,-9399.007173
1004.970788,133.998066,114.855485,-9437.292334
1004.971415,133.998066,114.855485,-9418.149754
1004.972043,114.855485,95.712904,-9399.007173
1004.972671,76.570323,114.855485,-9418.149754
1004.973298,38.285162,153.140646,-9418.149754
1004.973926,133.998066,114.855485,-9418.149754
1004.974553,57.427742,133.998066,-9360.722011
1004.975181,76.570323,114.855485,-9418.149754
1004.975808,133.998066,153.140646,-9437.292334
1004.976436,76.570323,114.855485,-9437.292334
1004.977063,133.998066,172.283227,-9418.149754
1004.977691,133.998066,114.855485,-9437.292334
1004.978319,133.998066,153.140646,-9418.149754
1004.978946,133.998066,153.140646,-9399.007173
1004.979574,133.998066,114.855485,-9418.149754
1004.980201,133.998066,114.855485,-9456.434915
1004.980829,95.712904,153.140646,-9360.722011
1004.981456,76.570323,114.855485,-9418.149754
1004.982084,95.712904,95.712904,-9456.434915
1004.982711,38.285162,114.855485,-9418.149754
1004.983339,76.570323,153.140646,-9437.292334
1004.983967,133.998066,114.855485,-9494.720077
1004.984594,76.570323,114.855485,-9418.149754
1004.985222,133.998066,172.283227,-9456.434915
1004.985849,76.570323,210.568389,-9418.149754
1004.986477,133.998066,114.855485,-9418.149754
1004.987104,172.283227,76.570323,-9456.434915
1004.987732,38.285162,95.712904,-9399.007173
1004.988359,38.285162,153.140646,-9418.149754
1004.988987,76.570323,153.140646,-9418.149754
1004.989615,133.998066,114.855485,-9418.149754
1004.990242,38.285162,172.283227,-9418.149754
1004.990870,133.998066,153.140646,-9418.149754
1004.991497,76.570323,114.855485,-9418.149754
1004.992125,95.712904,114.855485,-9418.149754
1004.992752,133.998066,114.855485,-9418.149754
1004.993380,133.998066,153.140646,-9418.149754
1004.994007,76.570323,114.855485,-9418.149754
1004.994635,114.855485,133.998066,-9360.722011
1004.995263,76.570323,114.855485,-9437.292334
1004.995890,76.570323,114.855485,-9437.292334
1004.996518,76.570323,114.855485,-9418.149754
1004.997145,133.998066,114.855485,-9418.149754
1004.997773,172.283227,76.570323,-9418.149754
1004.998400,76.570323,172.283227,-9418.149754
1004.999028,133.998066,153.140646,-9399.007173
1004.999655,133.998066,172.283227,-9456.434915
1005.000283,76.570323,114.855485,-9418.149754
1005.000911,76.570323,172.283227,-9418.149754
1005.001538,95.712904,172.283227,-9418.149754
1005.002166,38.285162,210.568389,-9418.149754
1005.002793,76.570323,172.283227,-9437.292334
1005.003421,114.855485,133.998066,-9360.722011
1005.004048,133.998066,133.998066,-9399.007173
1005.004676,76.570323,76.570323,-9322.436850
1005.005303,76.570323,114.855485,-9418.149754
1005.005931,133.998066,172.283227,-9418.149754
1005.006559,76.570323,114.855485,-9418.149754
1005.007186,76.570323,114.855485,-9437.292334
1005.007814,76.570323,210.568389,-9456.434915
1005.008441,95.712904,95.712904,-9437.292334
1005.009069,76.570323,229.710970,-9418.149754
1005.009696,133.998066,153.140646,-9418.149754
1005.010324,76.570323,114.855485,-9418.149754
1005.010951,95.712904,172.283227,-9418.149754
1005.011579,76.570323,114.855485,-9418.149754
1005.012207,38.285162,114.855485,-9418.149754
1005.012834,95.712904,114.855485,-9456.434915
1005.013462,76.570323,114.855485,-9418.149754
1005.014089,76.570323,114.855485,-9418.149754
1005.014717,172.283227,133.998066,-9418.149754
1005.015344,153.140646,133.998066,-9399.007173
1005.015972,133.998066,153.140646,-9418.149754
1005.016599,95.712904,153.140646,-9360.722011
1005.017227,76.570323,172.283227,-9418.149754
1005.017855,76.570323,191.425808,-9418.149754
1005.018482,76.570323,172.283227,-9494.720077
1005.019110,38.285162,114.855485,-9437.292334
1005.019737,76.570323,114.855485,-9533.005238
1005.020365,153.140646,153.140646,-9399.007173
1005.020992,76.570323,114.855485,-9360.722011
1005.021620,172.283227,114.855485,-9379.864592
1005.022247,172.283227,95.712904,-9399.007173
1005.022875,153.140646,76.570323,-9399.007173
1005.023503,133.998066,114.855485,-9418.149754
1005.024130,133.998066,114.855485,-9418.149754
1005.024758,133.998066,114.855485,-9418.149754
1005.025385,76.570323,114.855485,-9418.149754
1005.026013,133.998066,172.283227,-9418.149754
1005.026640,57.427742,153.140646,-9360.722011
1005.027268,76.570323,172.283227,-9437.292334
1005.027895,76.570323,114.855485,-9437.292334
1005.028523,76.570323,114.855485,-9418.149754
1005.029151,95.712904,210.568389,-9437.292334
1005.029778,133.998066,153.140646,-9360.722011
1005.030406,76.570323,210.568389,-9418.149754
1005.031033,76.570323,114.855485,-9418.149754
1005.031661,38.285162,114.855485,-9418.149754
1005.032288,57.427742,95.712904,-9399.007173
1005.032916,76.570323,114.855485,-9418.149754
1005.033544,38.285162,114.855485,-9418.149754
1005.034172,95.712904,95.712904,-9399.007173
1005.034799,114.855485,95.712904,-9379.864592
1005.035427,114.855485,133.998066,-9360.722011
1005.036055,172.283227,76.570323,-9418.149754
1005.036682,133.998066,153.140646,-9456.434915
1005.037310,76.570323,172.283227,-9418.149754
1005.037938,76.570323,114.855485,-9418.149754
1005.038565,95.712904,153.140646,-9418.149754
1005.039193,38.285162,172.283227,-9418.149754
1005.039821,114.855485,133.998066,-9418.149754
1005.040448,76.570323,114.855485,-9418.149754
1005.041076,76.570323,172.283227,-9418.149754
1005.041704,133.998066,153.140646,-9437.292334
1005.042331,133.998066,133.998066,-9399.007173
1005.042959,133.998066,114.855485,-9418.149754
1005.043587,76.570323,153.140646,-9418.149754
1005.044214,153.140646,172.283227,-9399.007173
1005.044842,133.998066,114.855485,-9418.149754
1005.045470,76.570323,114.855485,-9418.149754
1005.046098,76.570323,114.855485,-9418.149754
1005.046725,76.570323,114.855485,-9418.149754
1005.047353,172.283227,133.998066,-9418.149754
1005.047981,76.570323,172.283227,-9418.149754
1005.048608,133.998066,114.855485,-9418.149754
1005.049236,114.855485,172.283227,-9399.007173
1005.049864,114.855485,95.712904,-9399.007173
1005.050491,19.142581,153.140646,-9418.149754
1005.051119,76.570323,191.425808,-9360.722011
1005.051747,133.998066,153.140646,-9418.149754
1005.052374,76.570323,114.855485,-9360.722011
1005.053002,95.712904,133.998066,-9360.722011
1005.053630,172.283227,133.998066,-9360.722011
1005.054257,133.998066,133.998066,-9399.007173
1005.054885,76.570323,114.855485,-9418.149754
1005.055513,38.285162,172.283227,-9456.434915
1005.056140,76.570323,210.568389,-9418.149754
1005.056768,38.285162,153.140646,-9418.149754
1005.057396,38.285162,114.855485,-9456.434915
1005.058024,57.427742,153.140646,-9360.722011
1005.058651,38.285162,114.855485,-9418.149754
1005.059279,57.427742,133.998066,-9360.722011
1005.059907,57.427742,210.568389,-9456.434915
1005.060534,76.570323,153.140646,-9418.149754
1005.061162,133.998066,76.570323,-9379.864592
1005.061790,133.998066,172.283227,-9418.149754
1005.062417,95.712904,133.998066,-9360.722011
1005.063045,76.570323,114.855485,-9418.149754
1005.063673,76.570323,114.855485,-9418.149754
1005.064300,95.712904,172.283227,-9418.149754
1005.064928,76.570323,153.140646,-9418.149754
1005.065556,133.998066,153.140646,-9456.434915
1005.066183,76.570323,95.712904,-9494.720077
1005.066811,76.570323,114.855485,-9418.149754
1005.067439,38.285162,114.855485,-9418.149754
1005.068067,114.855485,133.998066,-9360.722011
1005.068694,76.570323,114.855485,-9418.149754
1005.069322,153.140646,172.283227,-9437.292334
1005.069950,76.570323,114.855485,-9418.149754
1005.070577,133.998066,114.855485,-9418.149754
1005.071205,133.998066,114.855485,-9418.149754
1005.071833,133.998066,76.570323,-9379.864592
1005.072460,95.712904,210.568389,-9418.149754
1005.073088,133.998066,114.855485,-9418.149754
1005.073716,76.570323,172.283227,-9418.149754
1005.074343,133.998066,210.568389,-9418.149754
1005.074971,57.427742,114.855485,-9418.149754
1005.075599,133.998066,133.998066,-9399.007173
1005.076226,133.998066,153.140646,-9399.007173
1005.076854,57.427742,95.712904,-9399.007173
1005.077482,38.285162,153.140646,-9418.149754
1005.078109,95.712904,95.712904,-9399.007173
1005.078737,76.570323,114.855485,-9437.292334
1005.079365,76.570323,114.855485,-9418.149754
1005.079993,57.427742,95.712904,-9494.720077
1005.080620,95.712904,133.998066,-9360.722011
1005.081248,38.285162,114.855485,-9437.292334
1005.081876,76.570323,114.855485,-9418.149754
1005.082503,95.712904,133.998066,-9360.722011
1005.083131,76.570323,114.855485,-9418.149754
1005.083759,76.570323,114.855485,-9418.149754
1005.084386,38.285162,114.855485,-9418.149754
1005.085014,133.998066,210.568389,-9418.149754
1005.085642,133.998066,172.283227,-9456.434915
1005.086269,76.570323,172.283227,-9418.149754
1005.086897,95.712904,210.568389,-9418.149754
1005.087525,172.283227,76.570323,-9418.149754
1005.088152,133.998066,153.140646,-9418.149754
1005.088780,76.570323,114.855485,-9437.292334
1005.089408,133.998066,153.140646,-9456.434915
1005.090036,76.570323,114.855485,-9418.149754
1005.090663,95.712904,95.712904,-9494.720077
1005.091291,172.283227,76.570323,-9418.149754
1005.091919,38.285162,153.140646,-9418.149754
1005.092546,153.140646,210.568389,-9494.720077
1005.093174,114.855485,153.140646,-9360.722011
1005.093802,133.998066,172.283227,-9418.149754
1005.094429,76.570323,133.998066,-9399.007173
1005.095057,76.570323,114.855485,-9418.149754
1005.095685,76.570323,114.855485,-9418.149754
1005.096312,153.140646,172.283227,-9399.007173
1005.096940,133.998066,114.855485,-9418.149754
1005.097568,114.855485,95.712904,-9399.007173
1005.098195,76.570323,114.855485,-9418.149754
1005.098823,76.570323,114.855485,-9418.149754
1005.099451,133.998066,172.283227,-9418.149754
1005.100078,153.140646,172.283227,-9456.434915
1005.100706,76.570323,114.855485,-9437.292334
1005.101334,76.570323,153.140646,-9418.149754
1005.101962,38.285162,114.855485,-9418.149754
1005.102589,114.855485,95.712904,-9379.864592
1005.103217,57.427742,248.853550,-9360.722011
1005.103845,133.998066,172.283227,-9418.149754
1005.104472,153.140646,153.140646,-9399.007173
1005.105100,133.998066,210.568389,-9437.292334
1005.105728,38.285162,153.140646,-9418.149754
1005.106355,133.998066,114.855485,-9494.720077
1005.106983,76.570323,114.855485,-9418.149754
1005.107611,76.570323,153.140646,-9418.149754
1005.108238,76.570323,153.140646,-9418.149754
1005.108866,76.570323,153.140646,-9418.149754
1005.109494,38.285162,114.855485,-9418.149754
1005.110121,133.998066,172.283227,-9418.149754
1005.110749,95.712904,114.855485,-9418.149754
1005.111377,95.712904,191.425808,-9360.722011
1005.112004,76.570323,114.855485,-9418.149754
1005.112632,57.427742,95.712904,-9399.007173
1005.113260,133.998066,153.140646,-9418.149754
1005.113888,76.570323,191.425808,-9418.149754
1005.114515,95.712904,172.283227,-9360.722011
1005.115143,76.570323,153.140646,-9418.149754
1005.115771,133.998066,114.855485,-9418.149754
1005.116398,76.570323,76.570323,-9379.864592
1005.117026,95.712904,153.140646,-9418.149754
1005.117654,76.570323,114.855485,-9418.149754
1005.118281,133.998066,133.998066,-9399.007173
1005.118909,76.570323,114.855485,-9418.149754
1005.119537,133.998066,153.140646,-9418.149754
1005.120164,95.712904,133.998066,-9360.722011
1005.120792,95.712904,133.998066,-9360.722011
1005.121420,114.855485,114.855485,-9399.007173
1005.122047,133.998066,114.855485,-9418.149754
1005.122675,76.570323,95.712904,-9399.007173
1005.123303,133.998066,114.855485,-9418.149754
1005.123931,38.285162,114.855485,-9418.149754
1005.124558,95.712904,114.855485,-9399.007173
1005.125186,57.427742,114.855485,-9418.149754
1005.125814,76.570323,153.140646,-9418.149754
1005.126441,133.998066,248.853550,-9437.292334
1005.127069,133.998066,153.140646,-9418.149754
1005.127697,57.427742,172.283227,-9418.149754
1005.128324,76.570323,114.855485,-9418.149754
1005.128952,95.712904,133.998066,-9360.722011
1005.129580,133.998066,172.283227,-9418.149754
1005.130207,95.712904,133.998066,-9341.579430
1005.130835,57.427742,153.140646,-9418.149754
1005.131463,76.570323,76.570323,-9379.864592
1005.132090,95.712904,153.140646,-9437.292334
1005.132718,133.998066,153.140646,-9475.577496
1005.133346,76.570323,114.855485,-9399.007173
1005.133973,38.285162,191.425808,-9360.722011
1005.134601,133.998066,114.855485,-9418.149754
1005.135229,76.570323,114.855485,-9437.292334
1005.135856,133.998066,114.855485,-9418.149754
1005.136484,172.283227,95.712904,-9399.007173
1005.137111,153.140646,133.998066,-9399.007173
1005.137739,133.998066,172.283227,-9418.149754
1005.138367,76.570323,153.140646,-9418.149754
1005.138994,133.998066,133.998066,-9399.007173
1005.139622,95.712904,95.712904,-9456.434915
1005.140250,76.570323,172.283227,-9418.149754
1005.140877,133.998066,153.140646,-9418.149754
1005.141505,114.855485,95.712904,-9399.007173
1005.142132,133.998066,172.283227,-9418.149754
1005.142760,133.998066,114.855485,-9456.434915
1005.143388,76.570323,114.855485,-9418.149754
1005.144015,76.570323,153.140646,-9418.149754
1005.144643,133.998066,153.140646,-9360.722011
1005.145271,76.570323,210.568389,-9437.292334
1005.145898,95.712904,191.425808,-9360.722011
1005.146526,76.570323,153.140646,-9437.292334
1005.147154,38.285162,114.855485,-9418.149754
1005.147781,76.570323,114.855485,-9418.149754
1005.148409,95.712904,114.855485,-9418.149754
1005.149036,133.998066,153.140646,-9456.434915
1005.149664,153.140646,133.998066,-9456.434915
1005.150292,114.855485,133.998066,-9360.722011
1005.150919,76.570323,210.568389,-9437.292334
1005.151547,76.570323,114.855485,-9418.149754
1005.152175,95.712904,95.712904,-9399.007173
1005.152802,38.285162,172.283227,-9418.149754
1005.153430,76.570323,153.140646,-9418.149754
1005.154057,57.427742,133.998066,-9360.722011
1005.154685,76.570323,95.712904,-9399.007173
1005.155313,133.998066,133.998066,-9437.292334
1005.155940,76.570323,114.855485,-9418.149754
1005.156568,95.712904,172.283227,-9418.149754
1005.157196,76.570323,114.855485,-9418.149754
1005.157823,172.283227,114.855485,-9379.864592
1005.158451,95.712904,153.140646,-9418.149754
1005.159079,76.570323,76.570323,-9379.864592
1005.159706,133.998066,114.855485,-9437.292334
1005.160334,76.570323,153.140646,-9418.149754
1005.160961,57.427742,153.140646,-9418.149754
1005.161589,38.285162,172.283227,-9418.149754
1005.162217,95.712904,133.998066,-9360.722011
1005.162844,76.570323,114.855485,-9418.149754
1005.163472,38.285162,114.855485,-9418.149754
1005.164100,76.570323,114.855485,-9437.292334
1005.164727,38.285162,114.855485,-9418.149754
1005.165355,95.712904,210.568389,-9437.292334
1005.165982,38.285162,114.855485,-9418.149754
1005.166610,38.285162,114.855485,-9418.149754
1005.167238,76.570323,114.855485,-9418.149754
1005.167865,95.712904,114.855485,-9360.722011
1005.168493,133.998066,114.855485,-9418.149754
1005.169121,153.140646,133.998066,-9399.007173
1005.169748,38.285162,114.855485,-9418.149754
1005.170376,95.712904,95.712904,-9437.292334
1005.171004,76.570323,153.140646,-9418.149754
1005.171631,114.855485,133.998066,-9360.722011
1005.172259,95.712904,95.712904,-9399.007173
1005.172886,76.570323,114.855485,-9494.720077
1005.173514,76.570323,153.140646,-9456.434915
1005.174142,95.712904,133.998066,-9418.149754
1005.174769,95.712904,114.855485,-9475.577496
1005.175397,95.712904,210.568389,-9456.434915
1005.176025,133.998066,114.855485,-9456.434915
1005.176652,76.570323,114.855485,-9437.292334
1005.177280,76.570323,76.570323,-9379.864592
1005.177907,76.570323,114.855485,-9475.577496
1005.178535,95.712904,153.140646,-9360.722011
