#time,accel_x,accel_y,accel_z
987.741874,38.285162,172.283227,-9418.149754
987.742502,38.285162,114.855485,-9418.149754
987.743130,38.285162,114.855485,-9437.292334
987.743758,38.285162,114.855485,-9418.149754
987.744386,38.285162,172.283227,-9418.149754
987.745014,133.998066,172.283227,-9456.434915
987.745642,133.998066,114.855485,-9494.720077
987.746270,114.855485,76.570323,-9418.149754
987.746898,95.712904,114.855485,-9399.007173
987.747526,76.570323,114.855485,-9418.149754
987.748154,38.285162,114.855485,-9418.149754
987.748782,133.998066,114.855485,-9418.149754
987.749410,95.712904,95.712904,-9399.007173
987.750038,133.998066,114.855485,-9418.149754
987.750666,76.570323,114.855485,-9418.149754
987.751294,76.570323,114.855485,-9360.722011
987.751922,76.570323,76.570323,-9379.864592
987.752550,172.283227,114.855485,-9379.864592
987.753179,114.855485,95.712904,-9399.007173
987.753807,95.712904,95.712904,-9399.007173
987.754435,57.427742,95.712904,-9475.577496
987.755063,38.285162,210.568389,-9418.149754
987.755691,133.998066,172.283227,-9418.149754
987.756319,76.570323,114.855485,-9418.149754
987.756947,0.000000,133.998066,-9360.722011
987.757575,133.998066,114.855485,-9418.149754
987.758203,76.570323,133.998066,-9360.722011
987.758831,76.570323,191.425808,-9418.149754
987.759459,76.570323,172.283227,-9418.149754
987.760087,133.998066,172.283227,-9418.149754
987.760715,95.712904,133.998066,-9360.722011
987.761343,57.427742,133.998066,-9360.722011
987.761971,95.712904,133.998066,-9418.149754
987.762599,95.712904,95.712904,-9399.007173
987.763227,114.855485,95.712904,-9399.007173
987.763855,76.570323,114.855485,-9418.149754
987.764483,95.712904,172.283227,-9360.722011
987.765111,114.855485,133.998066,-9360.722011
987.765739,114.855485,153.140646,-9360.722011
987.766367,153.140646,133.998066,-9399.007173
987.766995,133.998066,114.855485,-9418.149754
987.767623,133.998066,114.855485,-9418.149754
987.768251,19.142581,114.855485,-9418.149754
987.768879,38.285162,153.140646,-9418.149754
987.769507,-38.285162,133.998066,-9399.007173
987.770135,38.285162,114.855485,-9418.149754
987.770763,38.285162,114.855485,-9418.149754
987.771391,38.285162,114.855485,-9437.292334
987.772019,95.712904,57.427742,-9399.007173
987.772647,153.140646,133.998066,-9379.864592
987.773275,95.712904,153.140646,-9360.722011
987.773903,133.998066,114.855485,-9418.149754
987.774531,76.570323,172.283227,-9456.434915
987.775159,172.283227,76.570323,-9418.149754
987.775788,76.570323,114.855485,-9418.149754
987.776416,133.998066,153.140646,-9418.149754
987.777044,133.998066,114.855485,-9418.149754
987.777672,95.712904,114.855485,-9418.149754
987.778300,95.712904,95.712904,-9399.007173
987.778928,95.712904,133.998066,-9418.149754
987.779556,76.570323,153.140646,-9533.005238
987.780184,133.998066,172.283227,-9456.434915
987.780812,57.427742,248.853550,-9418.149754
987.781440,153.140646,172.283227,-9437.292334
987.782068,76.570323,172.283227,-9418.149754
987.782696,76.570323,172.283227,-9418.149754
987.783324,76.570323,114.855485,-9418.149754
987.783952,76.570323,172.283227,-9418.149754
987.784580,95.712904,153.140646,-9418.149754
987.785208,38.285162,114.855485,-9418.149754
987.785836,114.855485,76.570323,-9360.722011
987.786464,76.570323,114.855485,-9418.149754
987.787092,95.712904,114.855485,-9418.149754
987.787720,76.570323,114.855485,-9418.149754
987.788348,76.570323,172.283227,-9418.149754
987.788976,76.570323,114.855485,-9418.149754
987.789604,133.998066,114.855485,-9418.149754
987.790232,133.998066,153.140646,-9399.007173
987.790860,133.998066,114.855485,-9437.292334
987.791488,133.998066,114.855485,-9360.722011
987.792116,133.998066,153.140646,-9418.149754
987.792744,133.998066,114.855485,-9418.149754
987.793372,133.998066,76.570323,-9399.007173
987.794000,133.998066,114.855485,-9456.434915
987.794628,133.998066,114.855485,-9418.149754
987.795255,133.998066,114.855485,-9418.149754
987.795883,38.285162,114.855485,-9437.292334
987.796510,76.570323,114.855485,-9418.149754
987.797137,57.427742,95.712904,-9399.007173
987.797764,114.855485,172.283227,-9360.722011
987.798391,76.570323,114.855485,-9418.149754
987.799018,76.570323,114.855485,-9418.149754
987.799645,76.570323,76.570323,-9379.864592
987.800272,76.570323,114.855485,-9418.149754
987.800899,114.855485,95.712904,-9399.007173
987.801526,38.285162,210.568389,-9418.149754
987.802154,38.285162,114.855485,-9418.149754
987.802781,172.283227,114.855485,-9379.864592
987.803408,76.570323,172.283227,-9456.434915
987.804035,153.140646,133.998066,-9456.434915
987.804662,76.570323,114.855485,-9456.434915
987.805289,76.570323,172.283227,-9418.149754
987.805916,76.570323,133.998066,-9475.577496
987.806543,153.140646,153.140646,-9399.007173
987.807170,133.998066,114.855485,-9418.149754
987.807797,133.998066,114.855485,-9360.722011
987.808425,95.712904,95.712904,-9399.007173
987.809052,133.998066,114.855485,-9418.149754
987.809679,38.285162,114.855485,-9399.007173
987.810306,57.427742,153.140646,-9360.722011
987.810933,76.570323,153.140646,-9418.149754
987.811560,76.570323,114.855485,-9418.149754
987.812187,38.285162,153.140646,-9418.149754
987.812814,153.140646,114.855485,-9456.434915
987.813441,114.855485,95.712904,-9399.007173
987.814069,133.998066,114.855485,-9437.292334
987.814696,76.570323,114.855485,-9418.149754
987.815323,76.570323,114.855485,-9418.149754
987.815950,76.570323,114.855485,-9418.149754
987.816577,38.285162,172.283227,-9418.149754
987.817204,114.855485,172.283227,-9456.434915
987.817831,133.998066,133.998066,-9399.007173
987.818458,76.570323,114.855485,-9418.149754
987.819085,95.712904,114.855485,-9418.149754
987.819712,114.855485,95.712904,-9399.007173
987.820340,114.855485,95.712904,-9399.007173
987.820967,76.570323,76.570323,-9379.864592
987.821594,76.570323,114.855485,-9418.149754
987.822221,114.855485,95.712904,-9399.007173
987.822848,133.998066,114.855485,-9418.149754
987.823475,153.140646,114.855485,-9418.149754
987.824102,133.998066,210.568389,-9418.149754
987.824729,133.998066,114.855485,-9456.434915
987.825356,114.855485,133.998066,-9341.579430
987.825983,114.855485,95.712904,-9399.007173
987.826611,38.285162,114.855485,-9418.149754
987.827238,76.570323,210.568389,-9418.149754
987.827865,76.570323,153.140646,-9418.149754
987.828492,76.570323,153.140646,-9418.149754
987.829119,76.570323,210.568389,-9437.292334
987.829746,133.998066,153.140646,-9437.292334
987.830373,133.998066,172.283227,-9456.434915
987.831000,133.998066,153.140646,-9456.434915
987.831627,38.285162,114.855485,-9418.149754
987.832254,133.998066,114.855485,-9418.149754
987.832882,95.712904,153.140646,-9418.149754
987.833509,76.570323,172.283227,-9437.292334
987.834136,76.570323,114.855485,-9418.149754
987.834763,95.712904,114.855485,-9418.149754
987.835390,57.427742,114.855485,-9418.149754
987.836017,133.998066,114.855485,-9418.149754
987.836644,76.570323,114.855485,-9418.149754
987.837271,172.283227,76.570323,-9418.149754
987.837898,133.998066,114.855485,-9418.149754
987.838526,153.140646,210.568389,-9418.149754
987.839153,76.570323,172.283227,-9494.720077
987.839780,76.570323,114.855485,-9418.149754
987.840407,95.712904,114.855485,-9456.434915
987.841034,57.427742,95.712904,-9399.007173
987.841661,133.998066,172.283227,-9418.149754
987.842288,133.998066,114.855485,-9418.149754
987.842915,95.712904,133.998066,-9360.722011
987.843542,76.570323,172.283227,-9418.149754
987.844169,38.285162,210.568389,-9418.149754
987.844797,133.998066,172.283227,-9418.149754
987.845424,76.570323,114.855485,-9475.577496
987.846051,76.570323,172.283227,-9475.577496
987.846678,76.570323,210.568389,-9418.149754
987.847305,76.570323,114.855485,-9418.149754
987.847932,95.712904,153.140646,-9360.722011
987.848559,133.998066,114.855485,-9418.149754
987.849186,76.570323,153.140646,-9437.292334
987.849813,95.712904,133.998066,-9360.722011
987.850440,133.998066,114.855485,-9418.149754
987.851068,114.855485,133.998066,-9360.722011
987.851695,76.570323,153.140646,-9456.434915
987.852322,95.712904,114.855485,-9418.149754
987.852949,133.998066,114.855485,-9418.149754
987.853576,76.570323,114.855485,-9418.149754
987.854203,95.712904,133.998066,-9418.149754
987.854830,38.285162,114.855485,-9418.149754
987.855457,133.998066,191.425808,-9418.149754
987.856084,95.712904,114.855485,-9456.434915
987.856711,38.285162,114.855485,-9418.149754
987.857339,114.855485,133.998066,-9360.722011
987.857966,114.855485,133.998066,-9360.722011
987.858593,76.570323,172.283227,-9475.577496
987.859220,133.998066,172.283227,-9418.149754
987.859847,114.855485,153.140646,-9360.722011
987.860474,76.570323,153.140646,-9418.149754
987.861101,76.570323,114.855485,-9418.149754
987.861728,76.570323,114.855485,-9418.149754
987.862355,133.998066,114.855485,-9437.292334
987.862983,76.570323,172.283227,-9418.149754
987.863610,76.570323,172.283227,-9418.149754
987.864237,57.427742,133.998066,-9360.722011
987.864864,133.998066,114.855485,-9418.149754
987.865491,57.427742,95.712904,-9399.007173
987.866118,76.570323,153.140646,-9437.292334
987.866745,76.570323,114.855485,-9418.149754
987.867372,76.570323,114.855485,-9418.149754
987.867999,38.285162,114.855485,-9418.149754
987.868626,95.712904,95.712904,-9399.007173
987.869254,95.712904,191.425808,-9341.579430
987.869881,76.570323,210.568389,-9418.149754
987.870508,38.285162,210.568389,-9418.149754
987.871135,133.998066,114.855485,-9418.149754
987.871762,153.140646,153.140646,-9399.007173
987.872389,76.570323,153.140646,-9418.149754
987.873016,95.712904,153.140646,-9360.722011
987.873643,76.570323,114.855485,-9456.434915
987.874270,133.998066,133.998066,-9399.007173
987.874897,133.998066,114.855485,-9418.149754
987.875525,57.427742,172.283227,-9360.722011
987.876152,114.855485,95.712904,-9399.007173
987.876779,133.998066,114.855485,-9418.149754
987.877406,76.570323,114.855485,-9418.149754
987.878033,114.855485,172.283227,-9360.722011
987.878660,38.285162,114.855485,-9418.149754
987.879287,95.712904,114.855485,-9418.149754
987.879914,133.998066,114.855485,-9437.292334
987.880541,133.998066,191.425808,-9418.149754
987.881168,133.998066,153.140646,-9399.007173
987.881796,95.712904,172.283227,-9360.722011
987.882423,95.712904,172.283227,-9360.722011
987.883050,95.712904,114.855485,-9418.149754
987.883677,133.998066,172.283227,-9418.149754
987.884304,76.570323,114.855485,-9360.722011
987.884931,114.855485,133.998066,-9360.722011
987.885558,95.712904,133.998066,-9360.722011
987.886185,114.855485,95.712904,-9399.007173
987.886812,38.285162,114.855485,-9418.149754
987.887440,76.570323,133.998066,-9379.864592
987.888067,95.712904,172.283227,-9418.149754
987.888694,38.285162,114.855485,-9418.149754
987.889321,38.285162,153.140646,-9418.149754
987.889948,76.570323,153.140646,-9418.149754
987.890575,133.998066,114.855485,-9437.292334
987.891202,76.570323,114.855485,-9475.577496
987.891829,133.998066,114.855485,-9456.434915
987.892456,133.998066,114.855485,-9418.149754
987.893083,114.855485,95.712904,-9475.577496
987.893711,133.998066,114.855485,-9475.577496
987.894338,133.998066,172.283227,-9418.149754
987.894965,133.998066,114.855485,-9418.149754
987.895592,76.570323,114.855485,-9360.722011
987.896219,76.570323,114.855485,-9418.149754
987.896846,95.712904,114.855485,-9418.149754
987.897473,133.998066,153.140646,-9418.149754
987.898100,95.712904,172.283227,-9418.149754
987.898727,38.285162,153.140646,-9418.149754
987.899354,76.570323,210.568389,-9418.149754
987.899982,76.570323,114.855485,-9418.149754
987.900609,133.998066,114.855485,-9418.149754
987.901237,133.998066,153.140646,-9475.577496
987.901864,57.427742,95.712904,-9399.007173
987.902492,38.285162,114.855485,-9437.292334
987.903120,95.712904,191.425808,-9456.434915
987.903747,95.712904,133.998066,-9360.722011
987.904375,133.998066,114.855485,-9418.149754
987.905003,133.998066,210.568389,-9418.149754
987.905630,76.570323,114.855485,-9456.434915
987.906258,133.998066,172.283227,-9418.149754
987.906885,76.570323,114.855485,-9418.149754
987.907513,133.998066,153.140646,-9418.149754
987.908141,76.570323,114.855485,-9437.292334
987.908768,76.570323,114.855485,-9418.149754
987.909396,95.712904,114.855485,-9418.149754
987.910023,133.998066,133.998066,-9399.007173
987.910651,95.712904,210.568389,-9418.149754
987.911279,76.570323,229.710970,-9418.149754
987.911906,76.570323,172.283227,-9360.722011
987.912534,57.427742,133.998066,-9360.722011
987.913162,114.855485,153.140646,-9379.864592
987.913789,114.855485,153.140646,-9341.579430
987.914417,133.998066,210.568389,-9418.149754
987.915044,76.570323,210.568389,-9418.149754
987.915672,38.285162,172.283227,-9418.149754
987.916300,133.998066,133.998066,-9399.007173
987.916927,133.998066,210.568389,-9360.722011
987.917555,95.712904,95.712904,-9399.007173
987.918183,95.712904,114.855485,-9418.149754
987.918810,76.570323,114.855485,-9418.149754
987.919438,114.855485,114.855485,-9379.864592
987.920065,95.712904,95.712904,-9437.292334
987.920693,95.712904,133.998066,-9360.722011
987.921321,133.998066,210.568389,-9418.149754
987.921948,76.570323,114.855485,-9418.149754
987.922576,153.140646,153.140646,-9399.007173
987.923203,95.712904,153.140646,-9360.722011
987.923831,114.855485,114.855485,-9379.864592
987.924459,95.712904,133.998066,-9418.149754
987.925086,95.712904,95.712904,-9399.007173
987.925714,95.712904,95.712904,-9399.007173
987.926342,57.427742,95.712904,-9399.007173
987.926969,133.998066,172.283227,-9418.149754
987.927597,76.570323,114.855485,-9456.434915
987.928224,76.570323,114.855485,-9418.149754
987.928852,76.570323,114.855485,-9418.149754
987.929480,76.570323,76.570323,-9379.864592
987.930107,133.998066,114.855485,-9418.149754
987.930735,76.570323,172.283227,-9475.577496
987.931362,95.712904,210.568389,-9418.149754
987.931990,57.427742,114.855485,-9418.149754
987.932618,114.855485,133.998066,-9360.722011
987.933245,95.712904,133.998066,-9360.722011
987.933873,114.855485,95.712904,-9379.864592
987.934501,95.712904,172.283227,-9360.722011
987.935128,76.570323,114.855485,-9418.149754
987.935756,133.998066,210.568389,-9456.434915
987.936383,95.712904,172.283227,-9456.434915
987.937011,133.998066,153.140646,-9456.434915
987.937639,133.998066,248.853550,-9399.007173
987.938266,133.998066,153.140646,-9418.149754
987.938894,133.998066,133.998066,-9399.007173
987.939522,133.998066,114.855485,-9418.149754
987.940149,76.570323,114.855485,-9418.149754
987.940777,153.140646,133.998066,-9456.434915
987.941404,76.570323,114.855485,-9456.434915
987.942032,76.570323,114.855485,-9418.149754
987.942660,133.998066,114.855485,-9418.149754
987.943287,38.285162,172.283227,-9418.149754
987.943915,76.570323,114.855485,-9418.149754
987.944542,95.712904,114.855485,-9418.149754
987.945170,133.998066,114.855485,-9418.149754
987.945798,76.570323,153.140646,-9418.149754
987.946425,133.998066,153.140646,-9418.149754
987.947053,133.998066,191.425808,-9418.149754
987.947681,19.142581,153.140646,-9418.149754
987.948308,95.712904,153.140646,-9418.149754
987.948936,133.998066,114.855485,-9418.149754
987.949563,95.712904,114.855485,-9418.149754
987.950191,133.998066,153.140646,-9418.149754
987.950819,114.855485,172.283227,-9360.722011
987.951446,76.570323,114.855485,-9418.149754
987.952074,76.570323,114.855485,-9456.434915
987.952702,114.855485,172.283227,-9418.149754
987.953329,133.998066,114.855485,-9418.149754
987.953957,38.285162,114.855485,-9418.149754
987.954584,76.570323,153.140646,-9494.720077
987.955212,76.570323,76.570323,-9379.864592
987.955840,133.998066,153.140646,-9494.720077
987.956467,95.712904,133.998066,-9360.722011
987.957095,76.570323,114.855485,-9418.149754
987.957722,133.998066,114.855485,-9418.149754
987.958350,76.570323,210.568389,-9418.149754
987.958978,57.427742,114.855485,-9399.007173
987.959605,95.712904,133.998066,-9360.722011
987.960233,114.855485,153.140646,-9360.722011
987.960861,76.570323,114.855485,-9456.434915
987.961488,38.285162,172.283227,-9418.149754
987.962116,76.570323,133.998066,-9360.722011
987.962743,114.855485,95.712904,-9399.007173
987.963371,38.285162,133.998066,-9379.864592
987.963999,95.712904,172.283227,-9360.722011
987.964626,76.570323,114.855485,-9418.149754
987.965254,76.570323,153.140646,-9418.149754
987.965882,133.998066,153.140646,-9418.149754
987.966509,133.998066,210.568389,-9418.149754
987.967137,76.570323,76.570323,-9379.864592
987.967764,76.570323,172.283227,-9418.149754
987.968392,76.570323,114.855485,-9418.149754
987.969020,38.285162,114.855485,-9418.149754
987.969647,76.570323,114.855485,-9418.149754
987.970275,133.998066,133.998066,-9399.007173
987.970902,133.998066,114.855485,-9418.149754
987.971530,76.570323,114.855485,-9418.149754
987.972158,38.285162,172.283227,-9418.149754
987.972785,133.998066,172.283227,-9418.149754
987.973413,38.285162,114.855485,-9418.149754
987.974041,95.712904,114.855485,-9399.007173
987.974668,38.285162,114.855485,-9418.149754
987.975296,76.570323,133.998066,-9360.722011
987.975923,57.427742,95.712904,-9399.007173
987.976551,133.998066,114.855485,-9418.149754
987.977179,133.998066,114.855485,-9360.722011
987.977806,133.998066,114.855485,-9418.149754
987.978434,153.140646,133.998066,-9399.007173
987.979062,76.570323,114.855485,-9418.149754
987.979689,76.570323,114.855485,-9418.149754
987.980317,95.712904,133.998066,-9360.722011
987.980944,114.855485,95.712904,-9399.007173
987.981572,133.998066,114.855485,-9418.149754
987.982200,76.570323,114.855485,-9456.434915
987.982827,76.570323,114.855485,-9418.149754
987.983455,95.712904,153.140646,-9360.722011
987.984082,133.998066,114.855485,-9418.149754
987.984710,76.570323,114.855485,-9456.434915
987.985338,76.570323,114.855485,-9418.149754
987.985965,76.570323,114.855485,-9418.149754
987.986593,95.712904,153.140646,-9360.722011
987.987221,133.998066,172.283227,-9418.149754
987.987848,76.570323,114.855485,-9418.149754
987.988476,153.140646,153.140646,-9399.007173
987.989103,95.712904,172.283227,-9418.149754
987.989731,95.712904,114.855485,-9418.149754
987.990359,95.712904,114.855485,-9418.149754
987.990986,95.712904,133.998066,-9360.722011
987.991614,133.998066,114.855485,-9418.149754
987.992241,95.712904,95.712904,-9399.007173
987.992869,57.427742,95.712904,-9399.007173
987.993497,76.570323,114.855485,-9418.149754
987.994124,76.570323,114.855485,-9418.149754
987.994752,153.140646,133.998066,-9399.007173
987.995380,76.570323,114.855485,-9418.149754
987.996007,19.142581,114.855485,-9418.149754
987.996635,76.570323,114.855485,-9418.149754
987.997262,95.712904,133.998066,-9360.722011
987.997890,133.998066,114.855485,-9418.149754
987.998518,76.570323,153.140646,-9360.722011
987.999145,76.570323,191.425808,-9418.149754
987.999773,76.570323,153.140646,-9418.149754
988.000401,38.285162,153.140646,-9418.149754
988.001028,76.570323,114.855485,-9437.292334
988.001655,133.998066,210.568389,-9456.434915
988.002282,76.570323,114.855485,-9418.149754
988.002910,153.140646,133.998066,-9399.007173
988.003537,76.570323,114.855485,-9418.149754
988.004164,133.998066,210.568389,-9418.149754
988.004791,133.998066,153.140646,-9399.007173
988.005419,133.998066,133.998066,-9379.864592
988.006046,76.570323,95.712904,-9399.007173
988.006673,95.712904,114.855485,-9437.292334
988.007300,114.855485,133.998066,-9341.579430
988.007928,38.285162,153.140646,-9418.149754
988.008555,133.998066,153.140646,-9418.149754
988.009182,133.998066,172.283227,-9418.149754
988.009809,76.570323,114.855485,-9418.149754
988.010437,153.140646,153.140646,-9456.434915
988.011064,114.855485,114.855485,-9379.864592
988.011691,76.570323,114.855485,-9475.577496
988.012318,114.855485,153.140646,-9360.722011
988.012946,172.283227,76.570323,-9437.292334
988.013573,95.712904,172.283227,-9456.434915
988.014200,38.285162,210.568389,-9418.149754
988.014827,76.570323,114.855485,-9418.149754
988.015455,133.998066,114.855485,-9418.149754
988.016082,191.425808,153.140646,-9399.007173
988.016709,133.998066,133.998066,-9399.007173
988.017336,76.570323,114.855485,-9418.149754
988.017964,76.570323,114.855485,-9418.149754
988.018591,95.712904,153.140646,-9418.149754
988.019218,57.427742,191.425808,-9360.722011
988.019845,133.998066,76.570323,-9379.864592
988.020473,133.998066,153.140646,-9418.149754
988.021100,153.140646,153.140646,-9399.007173
988.021727,114.855485,133.998066,-9360.722011
988.022354,114.855485,172.283227,-9360.722011
988.022982,133.998066,114.855485,-9360.722011
988.023609,114.855485,133.998066,-9360.722011
988.024236,133.998066,210.568389,-9437.292334
988.024863,133.998066,114.855485,-9437.292334
988.025491,76.570323,114.855485,-9418.149754
988.026118,76.570323,114.855485,-9418.149754
988.026745,114.855485,191.425808,-9360.722011
988.027372,95.712904,114.855485,-9399.007173
988.028000,38.285162,114.855485,-9456.434915
988.028627,153.140646,133.998066,-9399.007173
988.029254,76.570323,114.855485,-9418.149754
988.029882,76.570323,153.140646,-9418.149754
988.030509,76.570323,172.283227,-9418.149754
988.031136,38.285162,114.855485,-9418.149754
988.031763,95.712904,114.855485,-9456.434915
988.032391,57.427742,153.140646,-9360.722011
988.033018,57.427742,95.712904,-9399.007173
988.033645,38.285162,114.855485,-9437.292334
988.034272,95.712904,172.283227,-9418.149754
988.034900,95.712904,133.998066,-9360.722011
988.035527,114.855485,153.140646,-9341.579430
988.036154,76.570323,114.855485,-9360.722011
988.036781,172.283227,153.140646,-9379.864592
988.037409,114.855485,95.712904,-9399.007173
988.038036,133.998066,133.998066,-9399.007173
988.038663,76.570323,114.855485,-9418.149754
988.039290,133.998066,172.283227,-9418.149754
988.039918,172.283227,114.855485,-9379.864592
988.040545,38.285162,114.855485,-9418.149754
988.041172,133.998066,172.283227,-9456.434915
988.041799,76.570323,172.283227,-9418.149754
988.042427,76.570323,172.283227,-9418.149754
988.043054,133.998066,114.855485,-9418.149754
988.043681,57.427742,172.283227,-9322.436850
988.044308,95.712904,95.712904,-9399.007173
988.044936,133.998066,114.855485,-9418.149754
988.045563,38.285162,133.998066,-9360.722011
988.046190,114.855485,133.998066,-9360.722011
988.046817,38.285162,172.283227,-9418.149754
988.047445,76.570323,114.855485,-9418.149754
988.048072,114.855485,133.998066,-9360.722011
988.048699,133.998066,153.140646,-9418.149754
988.049326,114.855485,133.998066,-9360.722011
988.049954,76.570323,114.855485,-9418.149754
988.050581,95.712904,114.855485,-9456.434915
988.051208,76.570323,114.855485,-9456.434915
988.051835,76.570323,210.568389,-9437.292334
988.052463,133.998066,153.140646,-9418.149754
988.053090,114.855485,172.283227,-9418.149754
988.053717,172.283227,114.855485,-9379.864592
988.054344,153.140646,133.998066,-9399.007173
988.054972,133.998066,114.855485,-9418.149754
988.055599,76.570323,114.855485,-9418.149754
988.056226,133.998066,172.283227,-9418.149754
988.056853,76.570323,95.712904,-9418.149754
988.057481,19.142581,114.855485,-9418.149754
988.058108,76.570323,114.855485,-9418.149754
988.058735,38.285162,114.855485,-9418.149754
988.059363,114.855485,95.712904,-9399.007173
988.059990,153.140646,153.140646,-9399.007173
988.060617,133.998066,114.855485,-9418.149754
988.061244,95.712904,95.712904,-9437.292334
988.061872,133.998066,172.283227,-9418.149754
988.062499,133.998066,172.283227,-9360.722011
988.063126,76.570323,114.855485,-9418.149754
988.063753,76.570323,114.855485,-9418.149754
988.064381,76.570323,114.855485,-9418.149754
988.065008,76.570323,76.570323,-9379.864592
988.065635,76.570323,133.998066,-9360.722011
988.066262,114.855485,172.283227,-9379.864592
988.066890,133.998066,114.855485,-9418.149754
988.067517,114.855485,95.712904,-9399.007173
988.068144,133.998066,114.855485,-9475.577496
988.068771,76.570323,172.283227,-9418.149754
988.069399,114.855485,172.283227,-9360.722011
988.070026,76.570323,114.855485,-9360.722011
988.070653,38.285162,114.855485,-9418.149754
988.071280,95.712904,133.998066,-9360.722011
988.071908,76.570323,172.283227,-9418.149754
988.072535,76.570323,153.140646,-9418.149754
988.073162,95.712904,133.998066,-9360.722011
988.073789,95.712904,133.998066,-9360.722011
988.074417,38.285162,114.855485,-9418.149754
988.075044,153.140646,133.998066,-9399.007173
988.075671,76.570323,114.855485,-9418.149754
988.076298,95.712904,95.712904,-9399.007173
988.076926,95.712904,172.283227,-9360.722011
988.077553,95.712904,114.855485,-9418.149754
988.078180,76.570323,114.855485,-9418.149754
988.078807,76.570323,153.140646,-9418.149754
988.079435,153.140646,133.998066,-9437.292334
988.080062,38.285162,114.855485,-9418.149754
988.080689,133.998066,114.855485,-9418.149754
988.081316,76.570323,153.140646,-9360.722011
988.081944,57.427742,153.140646,-9360.722011
988.082571,133.998066,210.568389,-9418.149754
988.083198,191.425808,153.140646,-9379.864592
988.083825,133.998066,153.140646,-9418.149754
988.084453,76.570323,114.855485,-9418.149754
988.085080,95.712904,114.855485,-9418.149754
988.085707,133.998066,114.855485,-9418.149754
988.086334,133.998066,210.568389,-9418.149754
988.086962,153.140646,172.283227,-9399.007173
988.087589,76.570323,114.855485,-9475.577496
988.088216,76.570323,114.855485,-9456.434915
988.088844,153.140646,172.283227,-9399.007173
988.089471,133.998066,114.855485,-9418.149754
988.090098,19.142581,114.855485,-9418.149754
988.090725,114.855485,172.283227,-9360.722011
988.091353,133.998066,133.998066,-9379.864592
988.091980,76.570323,153.140646,-9418.149754
988.092607,133.998066,114.855485,-9418.149754
988.093234,76.570323,114.855485,-9437.292334
988.093862,38.285162,153.140646,-9437.292334
988.094489,38.285162,114.855485,-9456.434915
988.095116,38.285162,114.855485,-9456.434915
988.095743,76.570323,172.283227,-9418.149754
988.096371,38.285162,114.855485,-9418.149754
988.096998,38.285162,114.855485,-9418.149754
988.097625,133.998066,172.283227,-9418.149754
988.098252,153.140646,133.998066,-9399.007173
988.098880,133.998066,114.855485,-9418.149754
988.099507,76.570323,172.283227,-9418.149754
988.100134,38.285162,114.855485,-9418.149754
988.100761,38.285162,191.425808,-9418.149754
988.101389,133.998066,191.425808,-9399.007173
988.102016,57.427742,133.998066,-9341.579430
988.102643,38.285162,114.855485,-9418.149754
988.103270,38.285162,114.855485,-9418.149754
988.103898,133.998066,172.283227,-9399.007173
988.104525,114.855485,133.998066,-9360.722011
988.105152,133.998066,114.855485,-9418.149754
988.105779,133.998066,153.140646,-9399.007173
988.106407,76.570323,114.855485,-9418.149754
988.107034,114.855485,191.425808,-9360.722011
988.107661,76.570323,114.855485,-9418.149754
988.108288,133.998066,172.283227,-9418.149754
988.108916,76.570323,114.855485,-9418.149754
988.109543,133.998066,114.855485,-9437.292334
988.110170,57.427742,95.712904,-9399.007173
988.110797,95.712904,114.855485,-9494.720077
988.111425,133.998066,153.140646,-9418.149754
988.112052,76.570323,76.570323,-9379.864592
988.112679,114.855485,133.998066,-9360.722011
988.113306,133.998066,172.283227,-9418.149754
988.113934,95.712904,153.140646,-9360.722011
988.114561,114.855485,133.998066,-9360.722011
988.115188,95.712904,114.855485,-9418.149754
988.115815,76.570323,172.283227,-9418.149754
988.116443,76.570323,172.283227,-9418.149754
988.117070,95.712904,114.855485,-9418.149754
988.117697,95.712904,133.998066,-9360.722011
988.118324,76.570323,114.855485,-9456.434915
988.118952,133.998066,114.855485,-9360.722011
988.119579,76.570323,114.855485,-9418.149754
988.120206,76.570323,114.855485,-9418.149754
988.120833,133.998066,172.283227,-9418.149754
988.121461,76.570323,153.140646,-9418.149754
988.122088,57.427742,210.568389,-9418.149754
988.122715,172.283227,114.855485,-9379.864592
988.123342,133.998066,153.140646,-9418.149754
988.123970,153.140646,133.998066,-9379.864592
988.124597,133.998066,114.855485,-9418.149754
988.125224,153.140646,133.998066,-9399.007173
988.125851,114.855485,76.570323,-9437.292334
988.126479,76.570323,114.855485,-9437.292334
988.127106,76.570323,114.855485,-9418.149754
988.127733,95.712904,153.140646,-9418.149754
988.128360,133.998066,114.855485,-9418.149754
988.128988,133.998066,114.855485,-9437.292334
988.129615,57.427742,114.855485,-9360.722011
988.130242,76.570323,133.998066,-9360.722011
988.130869,133.998066,114.855485,-9418.149754
988.131497,38.285162,153.140646,-9418.149754
988.132124,76.570323,133.998066,-9379.864592
988.132751,133.998066,153.140646,-9456.434915
988.133378,133.998066,114.855485,-9418.149754
988.134006,76.570323,153.140646,-9360.722011
988.134633,133.998066,153.140646,-9418.149754
988.135260,114.855485,114.855485,-9399.007173
988.135887,114.855485,95.712904,-9399.007173
988.136515,76.570323,114.855485,-9418.149754
988.137142,19.142581,172.283227,-9399.007173
988.137769,38.285162,153.140646,-9418.149754
988.138396,76.570323,114.855485,-9533.005238
988.139024,133.998066,114.855485,-9418.149754
988.139651,133.998066,114.855485,-9437.292334
988.140278,38.285162,153.140646,-9437.292334
988.140905,153.140646,210.568389,-9399.007173
988.141533,76.570323,153.140646,-9437.292334
988.142160,133.998066,172.283227,-9456.434915
988.142787,114.855485,133.998066,-9341.579430
988.143414,95.712904,172.283227,-9360.722011
988.144042,95.712904,153.140646,-9418.149754
988.144669,38.285162,153.140646,-9418.149754
988.145296,133.998066,114.855485,-9456.434915
988.145923,76.570323,114.855485,-9418.149754
988.146551,57.427742,95.712904,-9399.007173
988.147178,95.712904,133.998066,-9360.722011
988.147805,153.140646,172.283227,-9399.007173
988.148432,114.855485,95.712904,-9399.007173
988.149060,76.570323,114.855485,-9418.149754
988.149687,76.570323,114.855485,-9418.149754
988.150314,38.285162,114.855485,-9437.292334
988.150941,38.285162,114.855485,-9418.149754
988.151569,76.570323,114.855485,-9418.149754
988.152196,114.855485,133.998066,-9360.722011
988.152823,76.570323,210.568389,-9437.292334
988.153450,95.712904,172.283227,-9418.149754
988.154078,133.998066,114.855485,-9418.149754
988.154705,76.570323,153.140646,-9418.149754
988.155332,133.998066,153.140646,-9437.292334
988.155959,76.570323,114.855485,-9437.292334
988.156587,76.570323,114.855485,-9418.149754
988.157214,76.570323,114.855485,-9456.434915
988.157841,95.712904,114.855485,-9418.149754
988.158468,38.285162,172.283227,-9418.149754
988.159096,38.285162,172.283227,-9418.149754
988.159723,57.427742,133.998066,-9341.579430
988.160350,76.570323,114.855485,-9418.149754
988.160978,153.140646,153.140646,-9399.007173
988.161605,153.140646,133.998066,-9399.007173
988.162232,114.855485,114.855485,-9379.864592
988.162859,76.570323,153.140646,-9437.292334
988.163487,153.140646,133.998066,-9456.434915
988.164114,76.570323,229.710970,-9418.149754
988.164741,76.570323,114.855485,-9418.149754
988.165368,133.998066,153.140646,-9418.149754
988.165996,57.427742,95.712904,-9399.007173
988.166623,95.712904,114.855485,-9399.007173
988.167250,76.570323,114.855485,-9418.149754
988.167877,95.712904,95.712904,-9437.292334
988.168505,76.570323,114.855485,-9418.149754
988.169132,57.427742,133.998066,-9360.722011
988.169759,76.570323,114.855485,-9418.149754
988.170386,95.712904,172.283227,-9418.149754
988.171014,76.570323,114.855485,-9437.292334
988.171641,76.570323,114.855485,-9418.149754
988.172268,95.712904,172.283227,-9418.149754
988.172895,133.998066,114.855485,-9418.149754
988.173523,95.712904,133.998066,-9360.722011
988.174150,133.998066,172.283227,-9418.149754
988.174777,57.427742,133.998066,-9341.579430
988.175404,76.570323,114.855485,-9437.292334
988.176032,76.570323,153.140646,-9418.149754
988.176659,76.570323,210.568389,-9418.149754
988.177286,76.570323,172.283227,-9360.722011
988.177913,114.855485,153.140646,-9360.722011
988.178541,38.285162,114.855485,-9418.149754
988.179168,76.570323,114.855485,-9418.149754
988.179795,95.712904,114.855485,-9418.149754
988.180422,38.285162,114.855485,-9418.149754
988.181050,114.855485,172.283227,-9360.722011
988.181677,133.998066,133.998066,-9399.007173
988.182304,133.998066,114.855485,-9418.149754
988.182931,114.855485,133.998066,-9360.722011
988.183559,76.570323,95.712904,-9399.007173
988.184186,172.283227,76.570323,-9418.149754
988.184813,76.570323,114.855485,-9418.149754
988.185440,38.285162,133.998066,-9418.149754
988.186068,172.283227,172.283227,-9379.864592
988.186695,172.283227,114.855485,-9379.864592
988.187322,133.998066,114.855485,-9418.149754
988.187949,172.283227,76.570323,-9418.149754
988.188577,76.570323,114.855485,-9418.149754
988.189204,38.285162,191.425808,-9418.149754
988.189831,57.427742,153.140646,-9360.722011
988.190458,133.998066,114.855485,-9418.149754
988.191086,76.570323,114.855485,-9418.149754
988.191713,76.570323,172.283227,-9418.149754
988.192340,76.570323,114.855485,-9456.434915
988.192967,133.998066,114.855485,-9418.149754
988.193595,38.285162,153.140646,-9418.149754
988.194222,133.998066,172.283227,-9360.722011
988.194849,153.140646,133.998066,-9456.434915
988.195476,76.570323,114.855485,-9418.149754
988.196104,133.998066,114.855485,-9418.149754
988.196731,76.570323,114.855485,-9418.149754
988.197358,76.570323,210.568389,-9418.149754
988.197985,133.998066,153.140646,-9399.007173
988.198613,38.285162,114.855485,-9418.149754
988.199240,133.998066,114.855485,-9418.149754
988.199867,95.712904,172.283227,-9418.149754
988.200494,38.285162,114.855485,-9456.434915
988.201122,133.998066,114.855485,-9418.149754
988.201749,76.570323,153.140646,-9418.149754
988.202376,38.285162,76.570323,-9322.436850
988.203004,57.427742,95.712904,-9399.007173
988.203631,95.712904,95.712904,-9399.007173
988.204258,95.712904,133.998066,-9360.722011
988.204886,76.570323,210.568389,-9418.149754
988.205513,38.285162,153.140646,-9437.292334
988.206140,95.712904,95.712904,-9399.007173
988.206768,114.855485,114.855485,-9399.007173
988.207395,76.570323,114.855485,-9418.149754
988.208022,76.570323,114.855485,-9418.149754
988.208650,133.998066,210.568389,-9418.149754
988.209277,38.285162,114.855485,-9418.149754
988.209904,76.570323,114.855485,-9418.149754
988.210532,95.712904,114.855485,-9418.149754
988.211159,114.855485,133.998066,-9360.722011
988.211787,76.570323,133.998066,-9360.722011
988.212414,76.570323,114.855485,-9418.149754
988.213041,114.855485,114.855485,-9379.864592
988.213669,76.570323,114.855485,-9418.149754
988.214296,210.568389,172.283227,-9399.007173
988.214923,95.712904,95.712904,-9399.007173
988.215551,76.570323,114.855485,-9418.149754
988.216178,76.570323,76.570323,-9379.864592
988.216805,76.570323,172.283227,-9418.149754
988.217433,133.998066,172.283227,-9456.434915
988.218060,114.855485,153.140646,-9360.722011
988.218687,133.998066,114.855485,-9418.149754
988.219315,133.998066,114.855485,-9456.434915
988.219942,153.140646,133.998066,-9399.007173
988.220569,133.998066,114.855485,-9418.149754
988.221197,133.998066,114.855485,-9418.149754
988.221824,76.570323,172.283227,-9418.149754
988.222451,76.570323,153.140646,-9418.149754
988.223079,133.998066,76.570323,-9379.864592
988.223706,57.427742,133.998066,-9360.722011
988.224333,76.570323,114.855485,-9399.007173
988.224961,95.712904,95.712904,-9399.007173
988.225588,76.570323,114.855485,-9418.149754
988.226216,95.712904,153.140646,-9456.434915
988.226843,76.570323,114.855485,-9418.149754
988.227470,95.712904,153.140646,-9341.579430
988.228098,76.570323,191.425808,-9379.864592
988.228725,76.570323,172.283227,-9418.149754
988.229352,95.712904,153.140646,-9360.722011
988.229980,38.285162,114.855485,-9418.149754
988.230607,95.712904,95.712904,-9399.007173
988.231234,95.712904,172.283227,-9418.149754
988.231862,76.570323,191.425808,-9418.149754
988.232489,76.570323,172.283227,-9418.149754
988.233116,133.998066,153.140646,-9418.149754
988.233744,76.570323,172.283227,-9418.149754
988.234371,95.712904,172.283227,-9418.149754
988.234998,133.998066,153.140646,-9418.149754
988.235626,133.998066,153.140646,-9418.149754
988.236253,76.570323,114.855485,-9418.149754
988.236880,133.998066,114.855485,-9418.149754
988.237508,95.712904,133.998066,-9360.722011
988.238135,133.998066,114.855485,-9418.149754
988.238762,153.140646,114.855485,-9418.149754
988.239390,114.855485,133.998066,-9418.149754
988.240017,38.285162,172.283227,-9418.149754
988.240644,57.427742,133.998066,-9360.722011
988.241272,57.427742,153.140646,-9360.722011
988.241899,76.570323,153.140646,-9437.292334
988.242527,38.285162,191.425808,-9418.149754
988.243154,76.570323,229.710970,-9418.149754
988.243781,114.855485,133.998066,-9360.722011
988.244409,133.998066,210.568389,-9418.149754
988.245036,95.712904,114.855485,-9418.149754
988.245663,76.570323,114.855485,-9418.149754
988.246291,76.570323,114.855485,-9418.149754
988.246918,38.285162,153.140646,-9418.149754
988.247545,76.570323,76.570323,-9379.864592
988.248173,38.285162,114.855485,-9418.149754
988.248800,95.712904,133.998066,-9360.722011
988.249427,114.855485,133.998066,-9418.149754
988.250055,133.998066,114.855485,-9418.149754
988.250682,114.855485,114.855485,-9399.007173
988.251309,38.285162,114.855485,-9418.149754
988.251937,133.998066,114.855485,-9456.434915
988.252564,95.712904,114.855485,-9418.149754
988.253191,95.712904,133.998066,-9360.722011
988.253819,133.998066,172.283227,-9418.149754
988.254446,153.140646,133.998066,-9456.434915
988.255073,76.570323,153.140646,-9418.149754
988.255701,76.570323,114.855485,-9418.149754
988.256328,57.427742,114.855485,-9418.149754
988.256956,133.998066,114.855485,-9475.577496
988.257583,95.712904,114.855485,-9456.434915
988.258210,95.712904,133.998066,-9341.579430
988.258838,133.998066,114.855485,-9418.149754
988.259465,38.285162,114.855485,-9418.149754
988.260092,76.570323,114.855485,-9360.722011
988.260720,95.712904,191.425808,-9418.149754
988.261347,76.570323,95.712904,-9418.149754
988.261974,38.285162,191.425808,-9456.434915
988.262602,133.998066,114.855485,-9437.292334
988.263229,76.570323,114.855485,-9418.149754
988.263856,76.570323,153.140646,-9456.434915
988.264484,38.285162,114.855485,-9456.434915
988.265111,133.998066,114.855485,-9360.722011
988.265738,114.855485,95.712904,-9456.434915
988.266366,38.285162,172.283227,-9418.149754
988.266993,133.998066,114.855485,-9418.149754
988.267620,114.855485,133.998066,-9341.579430
988.268248,76.570323,210.568389,-9418.149754
988.268875,57.427742,95.712904,-9399.007173
988.269502,38.285162,172.283227,-9418.149754
988.270130,57.427742,133.998066,-9360.722011
988.270757,133.998066,114.855485,-9418.149754
988.271385,133.998066,133.998066,-9399.007173
988.272012,133.998066,153.140646,-9418.149754
988.272639,76.570323,153.140646,-9360.722011
988.273267,76.570323,114.855485,-9418.149754
988.273894,76.570323,114.855485,-9418.149754
988.274521,133.998066,210.568389,-9418.149754
988.275149,153.140646,210.568389,-9399.007173
988.275776,153.140646,133.998066,-9399.007173
988.276403,95.712904,114.855485,-9418.149754
988.277031,38.285162,114.855485,-9418.149754
988.277658,76.570323,172.283227,-9418.149754
988.278285,133.998066,153.140646,-9418.149754
988.278913,95.712904,114.855485,-9418.149754
988.279540,133.998066,114.855485,-9418.149754
988.280167,133.998066,114.855485,-9437.292334
988.280795,133.998066,114.855485,-9418.149754
988.281422,133.998066,114.855485,-9418.149754
988.282049,210.568389,133.998066,-9399.007173
988.282677,133.998066,133.998066,-9399.007173
988.283304,133.998066,133.998066,-9399.007173
988.283931,95.712904,95.712904,-9437.292334
988.284559,76.570323,114.855485,-9418.149754
988.285186,76.570323,114.855485,-9418.149754
988.285814,95.712904,172.283227,-9360.722011
988.286441,76.570323,114.855485,-9418.149754
988.287068,133.998066,114.855485,-9418.149754
988.287696,153.140646,133.998066,-9399.007173
988.288323,172.283227,76.570323,-9437.292334
988.288950,76.570323,114.855485,-9418.149754
988.289578,114.855485,133.998066,-9360.722011
988.290205,133.998066,114.855485,-9437.292334
988.290832,133.998066,114.855485,-9456.434915
988.291460,114.855485,153.140646,-9341.579430
988.292087,133.998066,133.998066,-9399.007173
988.292714,114.855485,153.140646,-9360.722011
988.293342,57.427742,133.998066,-9360.722011
988.293969,133.998066,114.855485,-9418.149754
988.294596,114.855485,133.998066,-9360.722011
988.295224,76.570323,114.855485,-9418.149754
988.295851,133.998066,114.855485,-9418.149754
988.296478,172.283227,114.855485,-9399.007173
988.297106,95.712904,172.283227,-9418.149754
988.297733,153.140646,133.998066,-9437.292334
988.298360,133.998066,153.140646,-9418.149754
988.298988,114.855485,172.283227,-9360.722011
988.299615,76.570323,114.855485,-9418.149754
988.300243,76.570323,114.855485,-9418.149754
988.300870,133.998066,172.283227,-9418.149754
988.301497,133.998066,114.855485,-9418.149754
988.302125,153.140646,133.998066,-9399.007173
988.302752,133.998066,172.283227,-9418.149754
988.303380,133.998066,114.855485,-9418.149754
988.304007,133.998066,172.283227,-9418.149754
988.304635,38.285162,114.855485,-9418.149754
988.305262,76.570323,153.140646,-9360.722011
988.305889,19.142581,114.855485,-9418.149754
988.306517,95.712904,133.998066,-9418.149754
988.307144,95.712904,133.998066,-9360.722011
988.307772,114.855485,95.712904,-9399.007173
988.308399,76.570323,114.855485,-9418.149754
988.309027,76.570323,114.855485,-9418.149754
988.309654,133.998066,114.855485,-9437.292334
988.310282,76.570323,114.855485,-9418.149754
988.310909,133.998066,172.283227,-9418.149754
988.311537,76.570323,114.855485,-9418.149754
988.312164,38.285162,153.140646,-9418.149754
988.312792,114.855485,153.140646,-9418.149754
988.313419,76.570323,114.855485,-9418.149754
988.314046,114.855485,210.568389,-9360.722011
988.314674,133.998066,114.855485,-9475.577496
988.315301,76.570323,172.283227,-9456.434915
988.315929,95.712904,114.855485,-9418.149754
988.316556,76.570323,153.140646,-9437.292334
988.317184,76.570323,114.855485,-9456.434915
988.317811,133.998066,153.140646,-9418.149754
988.318439,114.855485,153.140646,-9360.722011
988.319066,76.570323,172.283227,-9418.149754
988.319694,38.285162,210.568389,-9418.149754
988.320321,133.998066,172.283227,-9418.149754
988.320949,114.855485,95.712904,-9399.007173
988.321576,114.855485,133.998066,-9418.149754
988.322203,76.570323,229.710970,-9475.577496
988.322831,76.570323,114.855485,-9456.434915
988.323458,95.712904,114.855485,-9418.149754
988.324086,133.998066,153.140646,-9418.149754
988.324713,76.570323,114.855485,-9437.292334
988.325341,133.998066,114.855485,-9418.149754
988.325968,133.998066,133.998066,-9399.007173
988.326596,38.285162,153.140646,-9418.149754
988.327223,95.712904,133.998066,-9360.722011
988.327851,57.427742,133.998066,-9360.722011
988.328478,76.570323,133.998066,-9360.722011
988.329106,114.855485,114.855485,-9418.149754
988.329733,153.140646,153.140646,-9456.434915
988.330361,76.570323,114.855485,-9418.149754
988.330988,76.570323,114.855485,-9418.149754
988.331615,133.998066,114.855485,-9418.149754
988.332243,153.140646,133.998066,-9399.007173
988.332870,57.427742,133.998066,-9360.722011
988.333498,76.570323,153.140646,-9418.149754
988.334125,76.570323,133.998066,-9360.722011
988.334753,76.570323,114.855485,-9418.149754
988.335380,76.570323,210.568389,-9418.149754
988.336008,76.570323,172.283227,-9418.149754
988.336635,76.570323,210.568389,-9418.149754
988.337263,95.712904,114.855485,-9418.149754
988.337890,153.140646,191.425808,-9437.292334
988.338518,76.570323,153.140646,-9418.149754
988.339145,38.285162,172.283227,-9418.149754
988.339772,38.285162,76.570323,-9379.864592
988.340400,133.998066,114.855485,-9418.149754
988.341027,95.712904,172.283227,-9418.149754
988.341655,133.998066,114.855485,-9418.149754
988.342282,133.998066,114.855485,-9418.149754
988.342910,133.998066,114.855485,-9418.149754
988.343537,38.285162,172.283227,-9360.722011
988.344165,95.712904,114.855485,-9399.007173
988.344792,133.998066,229.710970,-9418.149754
988.345420,38.285162,153.140646,-9418.149754
988.346047,133.998066,114.855485,-9418.149754
988.346675,133.998066,114.855485,-9418.149754
988.347302,114.855485,95.712904,-9399.007173
988.347929,114.855485,172.283227,-9360.722011
988.348557,95.712904,95.712904,-9399.007173
988.349184,76.570323,191.425808,-9360.722011
988.349812,133.998066,153.140646,-9418.149754
988.350439,95.712904,133.998066,-9360.722011
988.351067,38.285162,172.283227,-9418.149754
988.351694,95.712904,133.998066,-9360.722011
988.352322,114.855485,95.712904,-9399.007173
988.352949,133.998066,114.855485,-9418.149754
988.353577,76.570323,210.568389,-9418.149754
988.354204,38.285162,114.855485,-9456.434915
988.354832,133.998066,114.855485,-9418.149754
988.355459,133.998066,153.140646,-9418.149754
988.356086,57.427742,172.283227,-9360.722011
988.356714,133.998066,114.855485,-9418.149754
988.357341,153.140646,172.283227,-9399.007173
988.357969,76.570323,210.568389,-9418.149754
988.358596,76.570323,114.855485,-9494.720077
988.359224,57.427742,153.140646,-9456.434915
988.359851,95.712904,172.283227,-9456.434915
988.360479,133.998066,172.283227,-9399.007173
988.361106,153.140646,172.283227,-9437.292334
988.361734,76.570323,172.283227,-9418.149754
988.362361,76.570323,114.855485,-9437.292334
988.362989,76.570323,114.855485,-9437.292334
988.363616,114.855485,95.712904,-9437.292334
988.364244,38.285162,153.140646,-9418.149754
988.364871,76.570323,114.855485,-9418.149754
988.365498,133.998066,114.855485,-9418.149754
988.366126,95.712904,114.855485,-9399.007173
988.366753,38.285162,114.855485,-9418.149754
988.367381,76.570323,210.568389,-9456.434915
988.368008,38.285162,172.283227,-9418.149754
988.368636,57.427742,95.712904,-9399.007173
988.369263,114.855485,114.855485,-9399.007173
988.369891,114.855485,133.998066,-9360.722011
988.370518,38.285162,229.710970,-9418.149754
988.371146,95.712904,114.855485,-9418.149754
988.371773,114.855485,95.712904,-9399.007173
988.372401,38.285162,114.855485,-9418.149754
988.373028,114.855485,95.712904,-9399.007173
988.373655,133.998066,172.283227,-9418.149754
988.374283,38.285162,153.140646,-9418.149754
988.374910,133.998066,114.855485,-9437.292334
988.375538,76.570323,153.140646,-9418.149754
988.376165,114.855485,95.712904,-9399.007173
988.376793,133.998066,114.855485,-9418.149754
988.377420,57.427742,133.998066,-9360.722011
988.378048,153.140646,172.283227,-9418.149754
988.378675,153.140646,153.140646,-9399.007173
988.379303,133.998066,153.140646,-9399.007173
988.379930,114.855485,153.140646,-9341.579430
988.380558,76.570323,191.425808,-9418.149754
988.381185,114.855485,133.998066,-9360.722011
988.381812,57.427742,114.855485,-9418.149754
988.382440,133.998066,114.855485,-9418.149754
988.383067,133.998066,133.998066,-9399.007173
988.383695,133.998066,114.855485,-9418.149754
988.384322,95.712904,133.998066,-9360.722011
988.384950,76.570323,210.568389,-9418.149754
988.385577,133.998066,133.998066,-9456.434915
988.386205,133.998066,114.855485,-9418.149754
988.386832,95.712904,133.998066,-9360.722011
988.387460,133.998066,114.855485,-9418.149754
988.388087,172.283227,95.712904,-9399.007173
988.388715,153.140646,133.998066,-9399.007173
988.389342,95.712904,172.283227,-9360.722011
988.389969,133.998066,153.140646,-9418.149754
988.390597,133.998066,133.998066,-9379.864592
988.391224,76.570323,114.855485,-9418.149754
988.391852,76.570323,114.855485,-9418.149754
988.392479,38.285162,114.855485,-9437.292334
988.393107,133.998066,114.855485,-9418.149754
988.393734,133.998066,153.140646,-9399.007173
988.394362,76.570323,153.140646,-9418.149754
988.394989,76.570323,153.140646,-9437.292334
988.395617,153.140646,153.140646,-9456.434915
988.396244,133.998066,153.140646,-9399.007173
988.396872,38.285162,172.283227,-9418.149754
988.397499,95.712904,114.855485,-9418.149754
988.398126,133.998066,133.998066,-9399.007173
988.398754,19.142581,114.855485,-9418.149754
988.399381,133.998066,153.140646,-9418.149754
988.400009,95.712904,133.998066,-9360.722011
988.400636,114.855485,153.140646,-9360.722011
988.401264,153.140646,191.425808,-9399.007173
988.401891,133.998066,153.140646,-9418.149754
988.402519,133.998066,153.140646,-9399.007173
988.403147,76.570323,153.140646,-9418.149754
988.403775,76.570323,133.998066,-9379.864592
988.404402,76.570323,114.855485,-9418.149754
988.405030,95.712904,133.998066,-9379.864592
988.405658,76.570323,153.140646,-9418.149754
988.406285,95.712904,133.998066,-9341.579430
988.406913,57.427742,133.998066,-9360.722011
988.407541,0.000000,153.140646,-9418.149754
988.408169,38.285162,114.855485,-9418.149754
988.408796,76.570323,153.140646,-9418.149754
988.409424,133.998066,114.855485,-9437.292334
988.410052,133.998066,114.855485,-9418.149754
988.410680,133.998066,114.855485,-9418.149754
988.411307,95.712904,153.140646,-9360.722011
988.411935,76.570323,172.283227,-9418.149754
988.412563,95.712904,114.855485,-9399.007173
988.413191,133.998066,114.855485,-9418.149754
988.413818,114.855485,95.712904,-9399.007173
988.414446,76.570323,153.140646,-9475.577496
988.415074,95.712904,114.855485,-9456.434915
988.415702,76.570323,172.283227,-9456.434915
988.416329,38.285162,114.855485,-9437.292334
988.416957,133.998066,114.855485,-9418.149754
988.417585,95.712904,95.712904,-9456.434915
988.418213,133.998066,114.855485,-9418.149754
988.418840,133.998066,76.570323,-9379.864592
988.419468,153.140646,133.998066,-9399.007173
988.420096,95.712904,153.140646,-9360.722011
988.420724,38.285162,114.855485,-9437.292334
988.421351,114.855485,153.140646,-9360.722011
988.421979,133.998066,172.283227,-9399.007173
988.422607,76.570323,153.140646,-9418.149754
988.423235,76.570323,114.855485,-9456.434915
988.423862,95.712904,133.998066,-9360.722011
988.424490,153.140646,133.998066,-9399.007173
988.425118,133.998066,153.140646,-9418.149754
988.425746,114.855485,95.712904,-9399.007173
988.426373,153.140646,133.998066,-9456.434915
988.427001,95.712904,95.712904,-9456.434915
988.427629,38.285162,210.568389,-9418.149754
988.428257,133.998066,114.855485,-9418.149754
988.428884,38.285162,172.283227,-9437.292334
988.429512,38.285162,114.855485,-9418.149754
988.430140,95.712904,133.998066,-9360.722011
988.430768,133.998066,114.855485,-9418.149754
988.431395,76.570323,76.570323,-9379.864592
988.432023,114.855485,133.998066,-9360.722011
988.432651,133.998066,172.283227,-9418.149754
988.433278,153.140646,153.140646,-9322.436850
988.433906,114.855485,133.998066,-9360.722011
988.434534,38.285162,172.283227,-9418.149754
988.435162,76.570323,114.855485,-9418.149754
988.435789,133.998066,191.425808,-9437.292334
988.436417,153.140646,133.998066,-9399.007173
988.437045,133.998066,114.855485,-9418.149754
988.437673,133.998066,114.855485,-9418.149754
988.438300,153.140646,95.712904,-9418.149754
988.438928,153.140646,133.998066,-9456.434915
988.439556,76.570323,114.855485,-9456.434915
988.440184,76.570323,114.855485,-9418.149754
988.440811,133.998066,153.140646,-9418.149754
988.441439,57.427742,114.855485,-9418.149754
988.442067,95.712904,95.712904,-9399.007173
988.442695,114.855485,76.570323,-9418.149754
988.443322,57.427742,172.283227,-9418.149754
988.443950,76.570323,114.855485,-9418.149754
988.444578,133.998066,114.855485,-9437.292334
988.445206,76.570323,153.140646,-9475.577496
988.445833,76.570323,114.855485,-9418.149754
988.446461,57.427742,95.712904,-9456.434915
988.447089,76.570323,172.283227,-9418.149754
988.447717,95.712904,95.712904,-9399.007173
988.448344,95.712904,114.855485,-9418.149754
988.448972,114.855485,153.140646,-9360.722011
988.449600,76.570323,210.568389,-9418.149754
988.450228,76.570323,153.140646,-9437.292334
988.450855,38.285162,114.855485,-9418.149754
988.451483,76.570323,76.570323,-9379.864592
988.452111,76.570323,172.283227,-9418.149754
988.452739,133.998066,172.283227,-9437.292334
988.453366,114.855485,133.998066,-9360.722011
988.453994,76.570323,210.568389,-9418.149754
988.454622,95.712904,172.283227,-9533.005238
988.455250,76.570323,114.855485,-9437.292334
988.455877,38.285162,114.855485,-9418.149754
988.456505,76.570323,210.568389,-9418.149754
988.457133,95.712904,133.998066,-9360.722011
988.457761,38.285162,114.855485,-9418.149754
988.458388,76.570323,114.855485,-9418.149754
988.459016,38.285162,76.570323,-9379.864592
988.459644,133.998066,114.855485,-9360.722011
988.460272,133.998066,172.283227,-9418.149754
988.460899,19.142581,153.140646,-9494.720077
988.461527,38.285162,114.855485,-9418.149754
988.462155,95.712904,95.712904,-9399.007173
988.462782,172.283227,210.568389,-9379.864592
988.463410,76.570323,114.855485,-9418.149754
988.464038,133.998066,114.855485,-9437.292334
988.464666,133.998066,210.568389,-9418.149754
988.465293,133.998066,114.855485,-9456.434915
988.465921,153.140646,76.570323,-9379.864592
988.466549,153.140646,133.998066,-9399.007173
988.467177,133.998066,114.855485,-9418.149754
988.467804,153.140646,114.855485,-9418.149754
988.468432,191.425808,114.855485,-9379.864592
988.469060,133.998066,114.855485,-9418.149754
988.469688,133.998066,114.855485,-9360.722011
988.470315,133.998066,114.855485,-9437.292334
988.470943,76.570323,172.283227,-9418.149754
988.471571,38.285162,153.140646,-9418.149754
988.472199,114.855485,133.998066,-9360.722011
988.472826,38.285162,114.855485,-9494.720077
988.473454,76.570323,114.855485,-9418.149754
988.474082,133.998066,153.140646,-9418.149754
988.474710,153.140646,172.283227,-9399.007173
988.475337,133.998066,114.855485,-9456.434915
988.475965,76.570323,114.855485,-9437.292334
988.476593,114.855485,95.712904,-9399.007173
988.477221,153.140646,133.998066,-9399.007173
988.477848,133.998066,114.855485,-9418.149754
988.478476,133.998066,95.712904,-9360.722011
988.479104,133.998066,114.855485,-9418.149754
988.479732,114.855485,172.283227,-9360.722011
988.480359,57.427742,133.998066,-9360.722011
988.480987,133.998066,153.140646,-9418.149754
988.481615,133.998066,114.855485,-9418.149754
988.482243,114.855485,95.712904,-9399.007173
988.482870,133.998066,133.998066,-9456.434915
988.483498,114.855485,95.712904,-9379.864592
988.484126,114.855485,172.283227,-9360.722011
988.484754,133.998066,133.998066,-9399.007173
988.485381,76.570323,114.855485,-9418.149754
988.486009,133.998066,114.855485,-9418.149754
988.486637,114.855485,76.570323,-9418.149754
988.487265,133.998066,114.855485,-9418.149754
988.487892,133.998066,114.855485,-9418.149754
988.488520,133.998066,114.855485,-9418.149754
988.489148,133.998066,210.568389,-9399.007173
988.489775,133.998066,114.855485,-9456.434915
988.490403,133.998066,114.855485,-9418.149754
988.491031,95.712904,133.998066,-9360.722011
988.491659,76.570323,172.283227,-9418.149754
988.492286,76.570323,114.855485,-9418.149754
988.492914,38.285162,114.855485,-9418.149754
988.493542,133.998066,114.855485,-9418.149754
988.494170,153.140646,114.855485,-9418.149754
988.494797,114.855485,153.140646,-9341.579430
988.495425,133.998066,210.568389,-9418.149754
988.496053,76.570323,114.855485,-9418.149754
988.496681,114.855485,172.283227,-9418.149754
988.497308,38.285162,153.140646,-9456.434915
988.497936,133.998066,133.998066,-9399.007173
988.498564,95.712904,95.712904,-9379.864592
988.499192,38.285162,114.855485,-9437.292334
988.499819,38.285162,172.283227,-9418.149754
988.500447,38.285162,114.855485,-9418.149754
988.501075,19.142581,114.855485,-9437.292334
988.501703,19.142581,153.140646,-9399.007173
988.502330,76.570323,114.855485,-9437.292334
988.502958,133.998066,172.283227,-9456.434915
988.503586,133.998066,114.855485,-9418.149754
988.504214,38.285162,210.568389,-9418.149754
988.504841,114.855485,95.712904,-9456.434915
988.505469,76.570323,153.140646,-9418.149754
988.506097,133.998066,114.855485,-9418.149754
988.506724,153.140646,133.998066,-9399.007173
988.507352,133.998066,114.855485,-9418.149754
988.507980,133.998066,172.283227,-9418.149754
988.508608,153.140646,133.998066,-9418.149754
988.509235,114.855485,133.998066,-9360.722011
988.509863,76.570323,153.140646,-9418.149754
988.510491,76.570323,114.855485,-9418.149754
988.511118,133.998066,114.855485,-9437.292334
988.511746,95.712904,191.425808,-9418.149754
988.512374,76.570323,210.568389,-9437.292334
988.513002,133.998066,172.283227,-9418.149754
988.513629,76.570323,114.855485,-9360.722011
988.514257,76.570323,114.855485,-9418.149754
988.514885,57.427742,114.855485,-9379.864592
988.515512,133.998066,114.855485,-9418.149754
988.516140,153.140646,191.425808,-9437.292334
988.516768,76.570323,114.855485,-9456.434915
988.517396,95.712904,114.855485,-9418.149754
988.518023,76.570323,153.140646,-9437.292334
988.518651,38.285162,114.855485,-9418.149754
988.519279,76.570323,210.568389,-9456.434915
988.519906,76.570323,114.855485,-9418.149754
988.520534,76.570323,172.283227,-9418.149754
988.521162,95.712904,172.283227,-9437.292334
988.521790,76.570323,172.283227,-9418.149754
988.522417,133.998066,153.140646,-9437.292334
988.523045,57.427742,172.283227,-9360.722011
988.523673,76.570323,114.855485,-9418.149754
988.524301,38.285162,210.568389,-9418.149754
988.524928,57.427742,229.710970,-9418.149754
988.525556,133.998066,153.140646,-9418.149754
988.526184,114.855485,172.283227,-9360.722011
988.526811,191.425808,114.855485,-9379.864592
988.527439,76.570323,114.855485,-9418.149754
988.528067,76.570323,210.568389,-9418.149754
988.528695,153.140646,172.283227,-9437.292334
988.529322,95.712904,191.425808,-9360.722011
988.529950,38.285162,114.855485,-9418.149754
988.530578,95.712904,153.140646,-9418.149754
988.531205,76.570323,153.140646,-9418.149754
988.531833,76.570323,229.710970,-9418.149754
988.532461,133.998066,133.998066,-9437.292334
988.533089,76.570323,153.140646,-9475.577496
988.533716,76.570323,133.998066,-9360.722011
988.534344,133.998066,114.855485,-9418.149754
988.534972,133.998066,114.855485,-9418.149754
988.535599,38.285162,114.855485,-9418.149754
988.536227,76.570323,114.855485,-9437.292334
988.536855,38.285162,153.140646,-9418.149754
988.537483,38.285162,153.140646,-9418.149754
988.538110,95.712904,153.140646,-9418.149754
988.538738,95.712904,172.283227,-9360.722011
988.539366,95.712904,95.712904,-9379.864592
988.539993,114.855485,191.425808,-9360.722011
988.540621,133.998066,114.855485,-9418.149754
988.541249,76.570323,153.140646,-9418.149754
988.541877,76.570323,114.855485,-9418.149754
988.542504,38.285162,114.855485,-9456.434915
988.543132,57.427742,133.998066,-9475.577496
988.543760,95.712904,153.140646,-9360.722011
988.544387,38.285162,114.855485,-9418.149754
988.545015,38.285162,153.140646,-9456.434915
988.545643,38.285162,172.283227,-9418.149754
988.546271,133.998066,210.568389,-9418.149754
988.546898,38.285162,172.283227,-9437.292334
988.547526,76.570323,153.140646,-9475.577496
988.548154,38.285162,153.140646,-9437.292334
988.548782,133.998066,153.140646,-9456.434915
988.549409,76.570323,114.855485,-9437.292334
988.550037,76.570323,114.855485,-9437.292334
988.550665,38.285162,153.140646,-9418.149754
988.551292,38.285162,153.140646,-9418.149754
988.551920,38.285162,210.568389,-9418.149754
988.552548,133.998066,114.855485,-9418.149754
988.553176,133.998066,114.855485,-9456.434915
988.553803,76.570323,114.855485,-9418.149754
988.554431,95.712904,95.712904,-9399.007173
988.555059,57.427742,172.283227,-9360.722011
988.555686,95.712904,114.855485,-9399.007173
988.556314,76.570323,153.140646,-9437.292334
988.556942,38.285162,210.568389,-9456.434915
988.557570,153.140646,172.283227,-9418.149754
988.558197,191.425808,76.570323,-9418.149754
988.558825,153.140646,133.998066,-9399.007173
988.559453,76.570323,172.283227,-9418.149754
988.560080,153.140646,153.140646,-9399.007173
988.560708,133.998066,114.855485,-9418.149754
988.561336,133.998066,114.855485,-9418.149754
988.561964,133.998066,172.283227,-9437.292334
988.562591,133.998066,172.283227,-9418.149754
988.563219,153.140646,133.998066,-9399.007173
988.563847,95.712904,172.283227,-9399.007173
988.564474,133.998066,210.568389,-9418.149754
988.565102,76.570323,114.855485,-9418.149754
988.565730,57.427742,133.998066,-9360.722011
988.566358,133.998066,153.140646,-9437.292334
988.566985,76.570323,191.425808,-9418.149754
988.567613,95.712904,229.710970,-9418.149754
988.568241,133.998066,153.140646,-9418.149754
988.568869,133.998066,114.855485,-9418.149754
988.569496,153.140646,153.140646,-9399.007173
988.570124,133.998066,114.855485,-9437.292334
988.570752,76.570323,114.855485,-9418.149754
988.571379,76.570323,114.855485,-9418.149754
988.572007,133.998066,114.855485,-9437.292334
988.572635,76.570323,172.283227,-9418.149754
988.573263,76.570323,153.140646,-9418.149754
988.573890,76.570323,114.855485,-9475.577496
988.574518,76.570323,153.140646,-9456.434915
988.575146,133.998066,172.283227,-9418.149754
988.575773,95.712904,114.855485,-9418.149754
988.576401,76.570323,114.855485,-9418.149754
988.577029,38.285162,114.855485,-9418.149754
988.577657,153.140646,133.998066,-9399.007173
988.578284,95.712904,133.998066,-9360.722011
988.578912,133.998066,114.855485,-9418.149754
988.579540,76.570323,114.855485,-9437.292334
988.580167,38.285162,114.855485,-9418.149754
988.580795,76.570323,114.855485,-9418.149754
988.581423,133.998066,114.855485,-9437.292334
988.582051,38.285162,114.855485,-9418.149754
988.582678,153.140646,153.140646,-9437.292334
988.583306,95.712904,153.140646,-9360.722011
988.583934,133.998066,191.425808,-9418.149754
988.584561,153.140646,172.283227,-9418.149754
988.585189,133.998066,172.283227,-9399.007173
988.585817,76.570323,172.283227,-9437.292334
988.586445,133.998066,114.855485,-9418.149754
988.587072,76.570323,114.855485,-9437.292334
988.587700,95.712904,133.998066,-9360.722011
988.588328,76.570323,114.855485,-9494.720077
988.588955,76.570323,210.568389,-9418.149754
988.589583,133.998066,210.568389,-9418.149754
988.590211,76.570323,172.283227,-9418.149754
988.590839,95.712904,133.998066,-9360.722011
988.591466,133.998066,114.855485,-9418.149754
988.592094,76.570323,153.140646,-9418.149754
988.592722,57.427742,114.855485,-9418.149754
988.593350,133.998066,172.283227,-9418.149754
988.593977,76.570323,172.283227,-9418.149754
988.594605,133.998066,114.855485,-9360.722011
988.595233,133.998066,114.855485,-9437.292334
988.595860,76.570323,114.855485,-9418.149754
988.596488,153.140646,172.283227,-9494.720077
988.597116,38.285162,153.140646,-9456.434915
988.597744,133.998066,210.568389,-9418.149754
988.598371,76.570323,114.855485,-9399.007173
988.598999,76.570323,114.855485,-9418.149754
988.599627,95.712904,191.425808,-9418.149754
988.600254,0.000000,172.283227,-9418.149754
988.600882,76.570323,114.855485,-9418.149754
988.601510,76.570323,114.855485,-9437.292334
988.602138,38.285162,153.140646,-9418.149754
988.602765,57.427742,153.140646,-9284.151688
988.603393,76.570323,114.855485,-9360.722011
988.604020,95.712904,133.998066,-9418.149754
988.604648,133.998066,114.855485,-9418.149754
988.605275,76.570323,172.283227,-9437.292334
988.605902,114.855485,210.568389,-9379.864592
988.606530,76.570323,153.140646,-9418.149754
988.607157,133.998066,191.425808,-9418.149754
988.607785,133.998066,114.855485,-9418.149754
988.608412,38.285162,114.855485,-9418.149754
988.609040,76.570323,114.855485,-9418.149754
988.609667,95.712904,133.998066,-9360.722011
988.610295,76.570323,153.140646,-9418.149754
988.610922,38.285162,114.855485,-9437.292334
988.611549,76.570323,114.855485,-9418.149754
988.612177,133.998066,172.283227,-9418.149754
988.612804,114.855485,95.712904,-9399.007173
988.613432,95.712904,114.855485,-9437.292334
988.614059,95.712904,95.712904,-9399.007173
988.614687,114.855485,76.570323,-9418.149754
988.615314,57.427742,172.283227,-9418.149754
988.615941,38.285162,114.855485,-9418.149754
988.616569,133.998066,76.570323,-9379.864592
988.617196,133.998066,172.283227,-9418.149754
988.617824,76.570323,153.140646,-9437.292334
988.618451,114.855485,95.712904,-9399.007173
988.619079,114.855485,76.570323,-9360.722011
988.619706,133.998066,95.712904,-9418.149754
988.620334,76.570323,114.855485,-9418.149754
988.620961,133.998066,133.998066,-9399.007173
988.621588,76.570323,172.283227,-9399.007173
988.622216,76.570323,172.283227,-9418.149754
988.622843,133.998066,153.140646,-9418.149754
988.623471,133.998066,133.998066,-9399.007173
988.624098,76.570323,114.855485,-9418.149754
988.624726,133.998066,133.998066,-9399.007173
988.625353,172.283227,114.855485,-9379.864592
988.625980,133.998066,114.855485,-9418.149754
988.626608,76.570323,114.855485,-9418.149754
988.627235,76.570323,114.855485,-9418.149754
988.627863,133.998066,114.855485,-9437.292334
988.628490,133.998066,172.283227,-9456.434915
988.629118,153.140646,172.283227,-9399.007173
988.629745,76.570323,114.855485,-9418.149754
988.630373,133.998066,114.855485,-9418.149754
988.631000,133.998066,114.855485,-9418.149754
988.631627,76.570323,114.855485,-9418.149754
988.632255,38.285162,114.855485,-9418.149754
988.632882,153.140646,153.140646,-9399.007173
988.633510,76.570323,114.855485,-9418.149754
988.634137,76.570323,95.712904,-9399.007173
988.634765,95.712904,133.998066,-9360.722011
988.635392,133.998066,210.568389,-9437.292334
988.636020,76.570323,153.140646,-9360.722011
988.636647,76.570323,153.140646,-9418.149754
988.637274,76.570323,114.855485,-9418.149754
988.637902,76.570323,114.855485,-9437.292334
988.638529,114.855485,133.998066,-9360.722011
988.639157,95.712904,153.140646,-9360.722011
988.639784,95.712904,172.283227,-9360.722011
988.640412,133.998066,114.855485,-9418.149754
988.641039,76.570323,153.140646,-9418.149754
988.641666,133.998066,114.855485,-9418.149754
988.642294,153.140646,133.998066,-9399.007173
988.642921,133.998066,114.855485,-9418.149754
988.643549,153.140646,133.998066,-9399.007173
988.644176,76.570323,114.855485,-9456.434915
988.644804,133.998066,153.140646,-9418.149754
988.645431,38.285162,114.855485,-9418.149754
988.646059,114.855485,210.568389,-9360.722011
988.646686,95.712904,133.998066,-9360.722011
988.647313,57.427742,133.998066,-9360.722011
988.647941,95.712904,153.140646,-9360.722011
988.648568,76.570323,172.283227,-9418.149754
988.649196,114.855485,95.712904,-9399.007173
988.649823,38.285162,114.855485,-9418.149754
988.650451,133.998066,114.855485,-9418.149754
988.651078,172.283227,76.570323,-9418.149754
988.651705,133.998066,114.855485,-9418.149754
988.652333,133.998066,76.570323,-9379.864592
988.652960,133.998066,114.855485,-9418.149754
988.653588,57.427742,114.855485,-9418.149754
988.654215,114.855485,95.712904,-9399.007173
988.654843,133.998066,114.855485,-9418.149754
988.655470,172.283227,153.140646,-9379.864592
988.656098,133.998066,114.855485,-9437.292334
988.656725,76.570323,114.855485,-9437.292334
988.657352,133.998066,210.568389,-9399.007173
988.657980,133.998066,114.855485,-9418.149754
988.658607,76.570323,114.855485,-9418.149754
988.659235,76.570323,172.283227,-9475.577496
988.659862,76.570323,191.425808,-9418.149754
988.660490,133.998066,114.855485,-9418.149754
988.661117,133.998066,172.283227,-9399.007173
988.661744,133.998066,210.568389,-9418.149754
988.662372,153.140646,133.998066,-9456.434915
988.662999,76.570323,153.140646,-9418.149754
988.663627,76.570323,114.855485,-9418.149754
988.664254,57.427742,95.712904,-9399.007173
988.664882,57.427742,153.140646,-9360.722011
988.665509,133.998066,172.283227,-9418.149754
988.666137,114.855485,133.998066,-9341.579430
988.666764,133.998066,114.855485,-9418.149754
988.667391,114.855485,133.998066,-9360.722011
988.668019,133.998066,114.855485,-9418.149754
988.668646,133.998066,114.855485,-9418.149754
988.669274,172.283227,172.283227,-9379.864592
988.669901,114.855485,133.998066,-9360.722011
988.670529,133.998066,172.283227,-9418.149754
988.671156,76.570323,114.855485,-9360.722011
988.671783,38.285162,76.570323,-9379.864592
988.672411,133.998066,172.283227,-9418.149754
988.673038,114.855485,133.998066,-9360.722011
988.673666,95.712904,133.998066,-9360.722011
988.674293,38.285162,153.140646,-9418.149754
988.674921,153.140646,133.998066,-9399.007173
988.675548,76.570323,114.855485,-9418.149754
988.676176,114.855485,133.998066,-9360.722011
988.676803,172.283227,76.570323,-9418.149754
988.677430,76.570323,114.855485,-9418.149754
988.678058,76.570323,153.140646,-9418.149754
988.678685,114.855485,95.712904,-9456.434915
988.679313,133.998066,114.855485,-9437.292334
988.679940,57.427742,95.712904,-9399.007173
988.680568,114.855485,95.712904,-9399.007173
988.681195,114.855485,153.140646,-9360.722011
988.681822,133.998066,210.568389,-9456.434915
988.682450,133.998066,153.140646,-9418.149754
988.683077,38.285162,114.855485,-9418.149754
988.683705,76.570323,114.855485,-9418.149754
988.684332,95.712904,114.855485,-9418.149754
988.684960,133.998066,114.855485,-9418.149754
988.685587,76.570323,114.855485,-9418.149754
988.686215,133.998066,172.283227,-9399.007173
988.686842,95.712904,95.712904,-9399.007173
988.687469,76.570323,114.855485,-9456.434915
988.688097,133.998066,114.855485,-9418.149754
988.688724,76.570323,114.855485,-9418.149754
988.689352,133.998066,153.140646,-9418.149754
988.689979,133.998066,114.855485,-9418.149754
988.690607,153.140646,248.853550,-9399.007173
988.691234,133.998066,114.855485,-9418.149754
988.691861,114.855485,133.998066,-9360.722011
988.692489,95.712904,133.998066,-9360.722011
988.693116,76.570323,114.855485,-9418.149754
988.693744,95.712904,153.140646,-9360.722011
988.694371,76.570323,114.855485,-9418.149754
988.694999,76.570323,172.283227,-9418.149754
988.695626,133.998066,153.140646,-9399.007173
988.696254,133.998066,153.140646,-9418.149754
988.696881,76.570323,153.140646,-9475.577496
988.697508,153.140646,191.425808,-9399.007173
988.698136,133.998066,172.283227,-9418.149754
988.698763,76.570323,114.855485,-9418.149754
988.699391,95.712904,172.283227,-9418.149754
988.700018,38.285162,114.855485,-9456.434915
988.700646,57.427742,153.140646,-9360.722011
988.701273,38.285162,114.855485,-9418.149754
988.701900,76.570323,76.570323,-9399.007173
988.702528,76.570323,114.855485,-9418.149754
988.703155,114.855485,133.998066,-9360.722011
988.703783,76.570323,114.855485,-9418.149754
988.704410,153.140646,76.570323,-9437.292334
988.705037,95.712904,133.998066,-9360.722011
988.705665,133.998066,114.855485,-9360.722011
988.706292,133.998066,114.855485,-9418.149754
988.706920,133.998066,114.855485,-9456.434915
988.707547,95.712904,172.283227,-9360.722011
988.708174,38.285162,114.855485,-9418.149754
988.708802,57.427742,133.998066,-9360.722011
988.709429,133.998066,133.998066,-9399.007173
988.710056,133.998066,114.855485,-9341.579430
988.710684,153.140646,133.998066,-9399.007173
988.711311,133.998066,210.568389,-9399.007173
988.711938,76.570323,114.855485,-9437.292334
988.712566,76.570323,114.855485,-9418.149754
988.713193,114.855485,133.998066,-9360.722011
988.713820,153.140646,172.283227,-9399.007173
988.714448,76.570323,114.855485,-9418.149754
988.715075,95.712904,133.998066,-9360.722011
988.715703,76.570323,133.998066,-9360.722011
988.716330,133.998066,133.998066,-9399.007173
988.716957,95.712904,153.140646,-9437.292334
988.717585,133.998066,172.283227,-9418.149754
988.718212,95.712904,114.855485,-9418.149754
988.718839,133.998066,114.855485,-9360.722011
988.719467,153.140646,133.998066,-9399.007173
988.720094,133.998066,133.998066,-9399.007173
988.720721,133.998066,172.283227,-9437.292334
988.721349,133.998066,153.140646,-9456.434915
988.721976,76.570323,172.283227,-9418.149754
988.722604,76.570323,172.283227,-9418.149754
988.723231,38.285162,153.140646,-9418.149754
988.723858,76.570323,114.855485,-9418.149754
988.724486,76.570323,172.283227,-9456.434915
988.725113,133.998066,114.855485,-9418.149754
988.725740,133.998066,114.855485,-9418.149754
988.726368,76.570323,114.855485,-9418.149754
988.726995,57.427742,133.998066,-9341.579430
988.727622,76.570323,114.855485,-9418.149754
988.728250,133.998066,114.855485,-9418.149754
988.728877,133.998066,191.425808,-9418.149754
988.729504,76.570323,114.855485,-9456.434915
988.730132,172.283227,114.855485,-9379.864592
988.730759,133.998066,133.998066,-9399.007173
988.731387,133.998066,114.855485,-9418.149754
988.732014,133.998066,114.855485,-9418.149754
988.732641,133.998066,172.283227,-9399.007173
988.733269,133.998066,153.140646,-9399.007173
988.733896,76.570323,153.140646,-9418.149754
988.734523,153.140646,191.425808,-9399.007173
988.735151,76.570323,153.140646,-9360.722011
988.735778,114.855485,172.283227,-9360.722011
988.736405,95.712904,133.998066,-9360.722011
988.737033,95.712904,95.712904,-9399.007173
988.737660,133.998066,114.855485,-9418.149754
988.738288,153.140646,172.283227,-9418.149754
988.738915,133.998066,153.140646,-9399.007173
988.739542,133.998066,133.998066,-9399.007173
988.740170,133.998066,114.855485,-9456.434915
988.740797,114.855485,172.283227,-9360.722011
988.741424,95.712904,172.283227,-9418.149754
988.742052,76.570323,210.568389,-9418.149754
988.742679,153.140646,114.855485,-9418.149754
988.743306,153.140646,153.140646,-9399.007173
988.743934,133.998066,133.998066,-9399.007173
988.744561,133.998066,210.568389,-9418.149754
988.745188,153.140646,153.140646,-9418.149754
988.745816,95.712904,95.712904,-9399.007173
988.746443,114.855485,133.998066,-9322.436850
988.747071,114.855485,95.712904,-9379.864592
988.747698,95.712904,191.425808,-9418.149754
988.748325,57.427742,114.855485,-9418.149754
988.748953,76.570323,114.855485,-9418.149754
988.749580,38.285162,76.570323,-9379.864592
988.750207,153.140646,133.998066,-9399.007173
988.750835,76.570323,114.855485,-9418.149754
988.751462,114.855485,172.283227,-9360.722011
988.752089,38.285162,114.855485,-9418.149754
988.752717,172.283227,114.855485,-9379.864592
988.753344,38.285162,153.140646,-9418.149754
988.753972,76.570323,114.855485,-9456.434915
988.754599,133.998066,153.140646,-9418.149754
988.755226,133.998066,153.140646,-9418.149754
988.755854,153.140646,133.998066,-9399.007173
988.756481,95.712904,133.998066,-9360.722011
988.757108,133.998066,114.855485,-9418.149754
988.757736,76.570323,114.855485,-9437.292334
988.758363,133.998066,172.283227,-9437.292334
988.758990,57.427742,172.283227,-9418.149754
988.759618,76.570323,153.140646,-9475.577496
988.760245,76.570323,114.855485,-9418.149754
988.760872,172.283227,153.140646,-9360.722011
988.761500,95.712904,76.570323,-9379.864592
988.762127,153.140646,153.140646,-9399.007173
988.762755,133.998066,210.568389,-9437.292334
988.763382,76.570323,172.283227,-9418.149754
988.764009,133.998066,114.855485,-9418.149754
988.764637,153.140646,133.998066,-9399.007173
988.765264,133.998066,114.855485,-9418.149754
988.765891,133.998066,114.855485,-9418.149754
988.766519,133.998066,133.998066,-9399.007173
988.767146,95.712904,172.283227,-9360.722011
988.767773,153.140646,133.998066,-9399.007173
988.768401,95.712904,172.283227,-9437.292334
988.769028,95.712904,153.140646,-9360.722011
988.769656,133.998066,210.568389,-9418.149754
988.770283,114.855485,172.283227,-9360.722011
988.770910,57.427742,133.998066,-9360.722011
988.771538,76.570323,114.855485,-9418.149754
988.772165,114.855485,172.283227,-9360.722011
988.772792,133.998066,133.998066,-9399.007173
988.773420,133.998066,114.855485,-9418.149754
988.774047,133.998066,114.855485,-9418.149754
988.774674,76.570323,114.855485,-9418.149754
988.775302,38.285162,153.140646,-9418.149754
988.775929,95.712904,114.855485,-9418.149754
988.776556,76.570323,191.425808,-9418.149754
988.777184,76.570323,210.568389,-9418.149754
988.777811,133.998066,172.283227,-9418.149754
988.778439,76.570323,153.140646,-9418.149754
988.779066,133.998066,210.568389,-9418.149754
988.779693,76.570323,172.283227,-9418.149754
988.780321,114.855485,114.855485,-9399.007173
988.780948,38.285162,114.855485,-9437.292334
988.781575,95.712904,172.283227,-9437.292334
988.782203,38.285162,172.283227,-9418.149754
988.782830,133.998066,153.140646,-9418.149754
988.783457,95.712904,95.712904,-9399.007173
988.784085,95.712904,133.998066,-9360.722011
988.784712,0.000000,133.998066,-9360.722011
988.785339,133.998066,114.855485,-9418.149754
988.785967,76.570323,114.855485,-9418.149754
988.786594,95.712904,172.283227,-9437.292334
988.787222,76.570323,114.855485,-9437.292334
988.787849,95.712904,172.283227,-9360.722011
988.788476,76.570323,114.855485,-9418.149754
988.789104,114.855485,133.998066,-9360.722011
988.789731,153.140646,133.998066,-9399.007173
988.790358,133.998066,172.283227,-9418.149754
988.790986,133.998066,114.855485,-9418.149754
988.791613,76.570323,210.568389,-9418.149754
988.792240,76.570323,153.140646,-9418.149754
988.792868,133.998066,114.855485,-9418.149754
988.793495,76.570323,114.855485,-9418.149754
988.794123,38.285162,114.855485,-9418.149754
988.794750,95.712904,95.712904,-9475.577496
988.795377,114.855485,114.855485,-9494.720077
988.796005,76.570323,153.140646,-9418.149754
988.796632,57.427742,114.855485,-9418.149754
988.797259,95.712904,114.855485,-9418.149754
988.797887,38.285162,114.855485,-9418.149754
988.798514,95.712904,133.998066,-9360.722011
988.799141,76.570323,114.855485,-9418.149754
988.799769,57.427742,114.855485,-9456.434915
988.800396,95.712904,133.998066,-9360.722011
988.801023,38.285162,133.998066,-9341.579430
988.801651,95.712904,172.283227,-9360.722011
988.802278,133.998066,114.855485,-9418.149754
988.802906,95.712904,114.855485,-9418.149754
988.803533,95.712904,114.855485,-9437.292334
988.804160,76.570323,114.855485,-9418.149754
988.804788,95.712904,133.998066,-9360.722011
988.805415,76.570323,172.283227,-9418.149754
988.806043,153.140646,133.998066,-9399.007173
988.806671,133.998066,133.998066,-9437.292334
988.807298,76.570323,114.855485,-9418.149754
988.807926,57.427742,172.283227,-9360.722011
988.808553,114.855485,114.855485,-9379.864592
988.809181,76.570323,114.855485,-9418.149754
988.809808,57.427742,133.998066,-9360.722011
988.810436,76.570323,191.425808,-9437.292334
988.811063,133.998066,153.140646,-9437.292334
988.811691,76.570323,114.855485,-9418.149754
988.812318,76.570323,114.855485,-9418.149754
988.812946,76.570323,114.855485,-9437.292334
988.813573,114.855485,133.998066,-9360.722011
988.814201,95.712904,153.140646,-9360.722011
988.814828,38.285162,114.855485,-9437.292334
988.815456,76.570323,114.855485,-9437.292334
988.816083,76.570323,114.855485,-9418.149754
988.816711,133.998066,172.283227,-9475.577496
988.817338,76.570323,229.710970,-9418.149754
988.817966,76.570323,210.568389,-9418.149754
988.818593,133.998066,210.568389,-9456.434915
988.819221,133.998066,229.710970,-9456.434915
988.819848,76.570323,172.283227,-9418.149754
988.820476,133.998066,172.283227,-9418.149754
988.821103,114.855485,210.568389,-9360.722011
988.821731,133.998066,172.283227,-9399.007173
988.822359,76.570323,210.568389,-9418.149754
988.822986,95.712904,172.283227,-9418.149754
988.823614,133.998066,229.710970,-9418.149754
988.824241,133.998066,114.855485,-9418.149754
988.824869,133.998066,114.855485,-9360.722011
988.825496,95.712904,153.140646,-9322.436850
988.826124,19.142581,114.855485,-9418.149754
988.826751,38.285162,210.568389,-9437.292334
988.827379,95.712904,114.855485,-9418.149754
988.828006,95.712904,114.855485,-9456.434915
988.828634,76.570323,172.283227,-9418.149754
988.829261,57.427742,153.140646,-9360.722011
988.829889,57.427742,95.712904,-9399.007173
988.830516,133.998066,114.855485,-9418.149754
988.831144,76.570323,133.998066,-9379.864592
988.831771,95.712904,153.140646,-9456.434915
988.832399,57.427742,114.855485,-9418.149754
988.833026,76.570323,114.855485,-9418.149754
988.833654,76.570323,153.140646,-9418.149754
988.834281,133.998066,114.855485,-9418.149754
988.834909,95.712904,114.855485,-9437.292334
988.835536,133.998066,114.855485,-9418.149754
988.836164,133.998066,76.570323,-9379.864592
988.836791,153.140646,191.425808,-9399.007173
988.837419,76.570323,153.140646,-9456.434915
988.838046,114.855485,95.712904,-9399.007173
988.838674,114.855485,153.140646,-9379.864592
988.839302,133.998066,114.855485,-9418.149754
988.839929,133.998066,114.855485,-9437.292334
988.840557,133.998066,114.855485,-9418.149754
988.841184,114.855485,172.283227,-9360.722011
988.841812,153.140646,95.712904,-9360.722011
988.842439,95.712904,114.855485,-9418.149754
988.843067,57.427742,114.855485,-9475.577496
988.843694,76.570323,114.855485,-9418.149754
988.844322,133.998066,114.855485,-9418.149754
988.844949,114.855485,153.140646,-9379.864592
988.845577,114.855485,248.853550,-9360.722011
988.846204,76.570323,153.140646,-9418.149754
988.846832,133.998066,114.855485,-9418.149754
988.847459,76.570323,114.855485,-9418.149754
988.848087,95.712904,153.140646,-9418.149754
988.848714,76.570323,114.855485,-9418.149754
988.849342,76.570323,172.283227,-9437.292334
988.849969,76.570323,114.855485,-9418.149754
988.850597,172.283227,76.570323,-9418.149754
988.851224,133.998066,114.855485,-9418.149754
988.851852,133.998066,114.855485,-9418.149754
988.852479,76.570323,153.140646,-9418.149754
988.853107,76.570323,172.283227,-9418.149754
988.853734,38.285162,114.855485,-9456.434915
988.854362,95.712904,172.283227,-9418.149754
988.854990,57.427742,95.712904,-9399.007173
988.855617,133.998066,114.855485,-9418.149754
988.856245,133.998066,114.855485,-9418.149754
988.856872,38.285162,114.855485,-9418.149754
988.857500,133.998066,114.855485,-9418.149754
988.858127,133.998066,114.855485,-9475.577496
988.858755,57.427742,114.855485,-9360.722011
988.859382,95.712904,133.998066,-9322.436850
988.860010,153.140646,133.998066,-9399.007173
988.860637,76.570323,114.855485,-9418.149754
988.861265,133.998066,114.855485,-9418.149754
988.861892,76.570323,172.283227,-9494.720077
988.862520,133.998066,133.998066,-9399.007173
988.863147,95.712904,172.283227,-9456.434915
988.863775,172.283227,76.570323,-9418.149754
988.864402,133.998066,114.855485,-9418.149754
988.865030,133.998066,114.855485,-9418.149754
988.865657,153.140646,172.283227,-9399.007173
988.866285,76.570323,114.855485,-9418.149754
988.866912,76.570323,114.855485,-9475.577496
988.867540,133.998066,114.855485,-9418.149754
988.868167,38.285162,95.712904,-9399.007173
988.868795,76.570323,153.140646,-9418.149754
988.869422,76.570323,153.140646,-9418.149754
988.870050,133.998066,114.855485,-9533.005238
988.870677,133.998066,229.710970,-9418.149754
988.871305,114.855485,191.425808,-9360.722011
988.871933,76.570323,114.855485,-9418.149754
988.872560,133.998066,153.140646,-9456.434915
988.873188,133.998066,133.998066,-9456.434915
988.873815,133.998066,114.855485,-9437.292334
988.874443,133.998066,153.140646,-9418.149754
988.875070,133.998066,153.140646,-9418.149754
988.875698,76.570323,210.568389,-9418.149754
988.876325,153.140646,191.425808,-9399.007173
988.876953,76.570323,114.855485,-9437.292334
988.877580,153.140646,133.998066,-9399.007173
988.878208,76.570323,172.283227,-9456.434915
988.878835,38.285162,114.855485,-9418.149754
988.879463,114.855485,133.998066,-9360.722011
988.880090,153.140646,133.998066,-9399.007173
988.880718,133.998066,172.283227,-9418.149754
988.881345,153.140646,133.998066,-9399.007173
988.881973,95.712904,133.998066,-9360.722011
988.882600,153.140646,133.998066,-9494.720077
988.883228,114.855485,153.140646,-9418.149754
988.883855,114.855485,133.998066,-9360.722011
988.884483,133.998066,172.283227,-9418.149754
988.885110,133.998066,153.140646,-9418.149754
988.885738,95.712904,95.712904,-9399.007173
988.886365,76.570323,114.855485,-9437.292334
988.886993,172.283227,114.855485,-9379.864592
988.887621,153.140646,153.140646,-9399.007173
988.888248,95.712904,153.140646,-9418.149754
988.888876,95.712904,191.425808,-9284.151688
988.889503,114.855485,133.998066,-9360.722011
988.890131,114.855485,153.140646,-9360.722011
988.890758,114.855485,133.998066,-9418.149754
988.891386,38.285162,172.283227,-9418.149754
988.892013,76.570323,114.855485,-9456.434915
988.892641,76.570323,153.140646,-9475.577496
988.893268,133.998066,172.283227,-9456.434915
988.893896,114.855485,191.425808,-9360.722011
988.894523,133.998066,210.568389,-9418.149754
988.895151,133.998066,114.855485,-9475.577496
988.895778,76.570323,172.283227,-9418.149754
988.896406,153.140646,172.283227,-9399.007173
988.897033,114.855485,133.998066,-9360.722011
988.897661,76.570323,114.855485,-9437.292334
988.898288,57.427742,114.855485,-9456.434915
988.898916,38.285162,114.855485,-9456.434915
988.899543,133.998066,153.140646,-9475.577496
988.900171,76.570323,153.140646,-9456.434915
988.900798,114.855485,114.855485,-9379.864592
988.901426,133.998066,114.855485,-9418.149754
988.902053,133.998066,95.712904,-9418.149754
988.902681,133.998066,133.998066,-9399.007173
988.903308,133.998066,114.855485,-9437.292334
988.903936,95.712904,153.140646,-9418.149754
988.904564,114.855485,172.283227,-9341.579430
988.905191,133.998066,114.855485,-9418.149754
988.905819,133.998066,172.283227,-9399.007173
988.906446,38.285162,153.140646,-9418.149754
988.907074,133.998066,114.855485,-9418.149754
988.907701,95.712904,95.712904,-9399.007173
988.908329,133.998066,76.570323,-9379.864592
988.908956,76.570323,153.140646,-9418.149754
988.909584,153.140646,133.998066,-9399.007173
988.910212,153.140646,133.998066,-9399.007173
988.910839,76.570323,153.140646,-9418.149754
988.911467,38.285162,153.140646,-9418.149754
988.912095,38.285162,114.855485,-9418.149754
988.912723,95.712904,153.140646,-9418.149754
988.913350,153.140646,114.855485,-9418.149754
988.913978,76.570323,114.855485,-9418.149754
988.914606,133.998066,153.140646,-9418.149754
988.915234,133.998066,114.855485,-9475.577496
988.915861,57.427742,133.998066,-9360.722011
988.916489,76.570323,114.855485,-9418.149754
988.917117,76.570323,114.855485,-9418.149754
988.917745,114.855485,133.998066,-9360.722011
988.918373,133.998066,114.855485,-9418.149754
988.919000,114.855485,172.283227,-9399.007173
988.919628,76.570323,114.855485,-9456.434915
988.920256,133.998066,114.855485,-9418.149754
988.920884,76.570323,114.855485,-9418.149754
988.921511,133.998066,210.568389,-9418.149754
988.922139,114.855485,133.998066,-9360.722011
988.922767,133.998066,133.998066,-9399.007173
988.923395,76.570323,229.710970,-9418.149754
988.924022,76.570323,153.140646,-9418.149754
988.924650,133.998066,114.855485,-9418.149754
988.925278,95.712904,114.855485,-9418.149754
988.925906,95.712904,133.998066,-9360.722011
988.926533,38.285162,114.855485,-9418.149754
988.927161,76.570323,114.855485,-9437.292334
988.927789,133.998066,114.855485,-9418.149754
988.928417,133.998066,114.855485,-9418.149754
988.929044,76.570323,95.712904,-9399.007173
988.929672,76.570323,114.855485,-9418.149754
988.930300,38.285162,133.998066,-9360.722011
988.930928,38.285162,114.855485,-9418.149754
988.931555,95.712904,95.712904,-9399.007173
988.932183,38.285162,172.283227,-9418.149754
988.932811,76.570323,114.855485,-9418.149754
988.933439,38.285162,114.855485,-9418.149754
988.934066,76.570323,114.855485,-9456.434915
988.934694,172.283227,153.140646,-9360.722011
988.935322,38.285162,172.283227,-9418.149754
988.935950,133.998066,114.855485,-9418.149754
988.936577,114.855485,133.998066,-9360.722011
988.937205,76.570323,114.855485,-9418.149754
988.937833,133.998066,172.283227,-9418.149754
988.938461,76.570323,153.140646,-9418.149754
988.939088,133.998066,114.855485,-9418.149754
988.939716,133.998066,153.140646,-9399.007173
988.940344,133.998066,153.140646,-9437.292334
988.940972,38.285162,114.855485,-9418.149754
988.941599,38.285162,172.283227,-9418.149754
988.942227,76.570323,172.283227,-9418.149754
988.942855,153.140646,172.283227,-9399.007173
988.943483,153.140646,153.140646,-9437.292334
988.944111,133.998066,153.140646,-9418.149754
988.944738,95.712904,172.283227,-9437.292334
988.945366,133.998066,153.140646,-9418.149754
988.945994,76.570323,114.855485,-9475.577496
988.946622,133.998066,172.283227,-9418.149754
988.947249,95.712904,95.712904,-9399.007173
988.947877,76.570323,114.855485,-9418.149754
988.948505,133.998066,114.855485,-9418.149754
988.949133,95.712904,191.425808,-9360.722011
988.949760,38.285162,114.855485,-9418.149754
988.950388,76.570323,172.283227,-9418.149754
988.951016,114.855485,172.283227,-9360.722011
988.951644,38.285162,153.140646,-9418.149754
988.952271,153.140646,133.998066,-9399.007173
988.952899,153.140646,153.140646,-9437.292334
988.953527,76.570323,114.855485,-9418.149754
988.954155,38.285162,114.855485,-9418.149754
988.954782,76.570323,114.855485,-9418.149754
988.955410,76.570323,153.140646,-9418.149754
988.956038,57.427742,95.712904,-9456.434915
988.956666,76.570323,76.570323,-9379.864592
988.957293,95.712904,95.712904,-9399.007173
988.957921,76.570323,114.855485,-9437.292334
988.958549,133.998066,172.283227,-9456.434915
988.959177,76.570323,114.855485,-9418.149754
988.959804,38.285162,114.855485,-9418.149754
988.960432,95.712904,133.998066,-9341.579430
988.961060,76.570323,191.425808,-9418.149754
988.961688,76.570323,153.140646,-9418.149754
988.962315,38.285162,153.140646,-9418.149754
988.962943,95.712904,210.568389,-9418.149754
988.963571,153.140646,153.140646,-9399.007173
988.964199,76.570323,114.855485,-9418.149754
988.964826,114.855485,153.140646,-9360.722011
988.965454,76.570323,114.855485,-9418.149754
988.966082,133.998066,114.855485,-9418.149754
988.966710,76.570323,114.855485,-9418.149754
988.967337,133.998066,114.855485,-9418.149754
988.967965,76.570323,153.140646,-9418.149754
988.968593,133.998066,153.140646,-9456.434915
988.969221,38.285162,114.855485,-9418.149754
988.969848,133.998066,114.855485,-9418.149754
988.970476,133.998066,172.283227,-9418.149754
988.971104,114.855485,153.140646,-9360.722011
988.971732,57.427742,172.283227,-9418.149754
988.972360,76.570323,114.855485,-9418.149754
988.972987,57.427742,191.425808,-9360.722011
988.973615,76.570323,114.855485,-9437.292334
988.974243,95.712904,153.140646,-9418.149754
988.974871,76.570323,210.568389,-9475.577496
988.975498,76.570323,114.855485,-9437.292334
988.976126,38.285162,95.712904,-9399.007173
988.976754,38.285162,114.855485,-9418.149754
988.977382,133.998066,172.283227,-9399.007173
988.978009,114.855485,191.425808,-9360.722011
988.978637,95.712904,172.283227,-9360.722011
988.979265,76.570323,114.855485,-9437.292334
988.979893,95.712904,95.712904,-9399.007173
988.980520,114.855485,133.998066,-9360.722011
988.981148,172.283227,114.855485,-9322.436850
988.981776,133.998066,153.140646,-9418.149754
988.982404,95.712904,133.998066,-9360.722011
988.983031,76.570323,153.140646,-9418.149754
988.983659,133.998066,153.140646,-9418.149754
988.984287,133.998066,114.855485,-9418.149754
988.984915,76.570323,153.140646,-9418.149754
988.985542,76.570323,191.425808,-9418.149754
988.986170,153.140646,172.283227,-9399.007173
988.986798,114.855485,191.425808,-9418.149754
988.987426,76.570323,153.140646,-9418.149754
988.988053,133.998066,153.140646,-9418.149754
988.988681,38.285162,114.855485,-9475.577496
988.989309,133.998066,114.855485,-9456.434915
988.989937,114.855485,153.140646,-9360.722011
988.990564,133.998066,114.855485,-9418.149754
988.991192,76.570323,114.855485,-9360.722011
988.991820,38.285162,114.855485,-9418.149754
988.992448,133.998066,153.140646,-9360.722011
988.993075,114.855485,133.998066,-9360.722011
988.993703,76.570323,114.855485,-9456.434915
988.994331,76.570323,114.855485,-9418.149754
988.994959,76.570323,114.855485,-9418.149754
988.995586,210.568389,133.998066,-9399.007173
988.996214,114.855485,95.712904,-9456.434915
988.996842,133.998066,153.140646,-9437.292334
988.997470,133.998066,172.283227,-9418.149754
988.998098,133.998066,153.140646,-9418.149754
988.998725,38.285162,172.283227,-9418.149754
988.999353,114.855485,114.855485,-9456.434915
988.999981,38.285162,172.283227,-9456.434915
989.000609,133.998066,153.140646,-9418.149754
989.001236,114.855485,114.855485,-9379.864592
989.001864,114.855485,95.712904,-9399.007173
989.002492,76.570323,114.855485,-9418.149754
989.003120,133.998066,172.283227,-9418.149754
989.003747,133.998066,153.140646,-9418.149754
989.004375,95.712904,95.712904,-9456.434915
989.005003,76.570323,114.855485,-9418.149754
989.005631,133.998066,114.855485,-9475.577496
989.006258,76.570323,114.855485,-9418.149754
989.006886,133.998066,172.283227,-9437.292334
989.007514,133.998066,172.283227,-9418.149754
989.008142,133.998066,153.140646,-9418.149754
989.008770,153.140646,133.998066,-9399.007173
989.009397,153.140646,114.855485,-9418.149754
989.010025,95.712904,133.998066,-9360.722011
989.010653,38.285162,114.855485,-9494.720077
989.011281,76.570323,114.855485,-9437.292334
989.011909,114.855485,153.140646,-9360.722011
989.012536,133.998066,153.140646,-9456.434915
989.013164,133.998066,172.283227,-9418.149754
989.013792,76.570323,114.855485,-9418.149754
989.014420,76.570323,114.855485,-9418.149754
989.015047,133.998066,172.283227,-9418.149754
989.015675,133.998066,210.568389,-9418.149754
989.016303,133.998066,133.998066,-9399.007173
989.016931,133.998066,172.283227,-9418.149754
989.017559,133.998066,172.283227,-9437.292334
989.018186,76.570323,153.140646,-9418.149754
989.018814,76.570323,210.568389,-9418.149754
989.019442,38.285162,153.140646,-9418.149754
989.020070,133.998066,172.283227,-9418.149754
989.020698,38.285162,114.855485,-9418.149754
989.021325,133.998066,172.283227,-9418.149754
989.021953,133.998066,153.140646,-9418.149754
989.022581,38.285162,153.140646,-9418.149754
989.023209,76.570323,114.855485,-9418.149754
989.023836,76.570323,114.855485,-9418.149754
989.024464,133.998066,114.855485,-9418.149754
989.025092,95.712904,114.855485,-9418.149754
989.025720,114.855485,133.998066,-9360.722011
989.026348,76.570323,114.855485,-9418.149754
989.026975,133.998066,153.140646,-9418.149754
989.027603,133.998066,114.855485,-9437.292334
989.028231,76.570323,172.283227,-9456.434915
989.028859,172.283227,153.140646,-9379.864592
989.029487,133.998066,191.425808,-9399.007173
989.030114,133.998066,114.855485,-9418.149754
989.030742,133.998066,172.283227,-9418.149754
989.031370,57.427742,114.855485,-9418.149754
989.031998,76.570323,153.140646,-9418.149754
989.032626,133.998066,114.855485,-9418.149754
989.033253,76.570323,114.855485,-9437.292334
989.033881,133.998066,114.855485,-9456.434915
989.034509,133.998066,114.855485,-9418.149754
989.035137,95.712904,133.998066,-9360.722011
989.035764,38.285162,76.570323,-9379.864592
989.036392,76.570323,153.140646,-9456.434915
989.037020,153.140646,153.140646,-9399.007173
989.037648,76.570323,114.855485,-9418.149754
989.038276,95.712904,114.855485,-9418.149754
989.038903,133.998066,114.855485,-9418.149754
989.039531,133.998066,172.283227,-9418.149754
989.040159,95.712904,172.283227,-9437.292334
989.040787,133.998066,114.855485,-9418.149754
989.041415,76.570323,114.855485,-9418.149754
989.042042,76.570323,172.283227,-9456.434915
989.042670,76.570323,172.283227,-9418.149754
989.043298,153.140646,191.425808,-9399.007173
989.043926,76.570323,210.568389,-9418.149754
989.044553,133.998066,172.283227,-9418.149754
989.045181,114.855485,114.855485,-9379.864592
989.045809,153.140646,114.855485,-9418.149754
989.046437,172.283227,76.570323,-9418.149754
989.047065,133.998066,114.855485,-9418.149754
989.047692,133.998066,172.283227,-9418.149754
989.048320,76.570323,114.855485,-9494.720077
989.048948,76.570323,114.855485,-9418.149754
989.049576,133.998066,114.855485,-9418.149754
989.050204,133.998066,210.568389,-9418.149754
989.050831,133.998066,133.998066,-9399.007173
989.051459,76.570323,153.140646,-9418.149754
989.052087,76.570323,114.855485,-9418.149754
989.052715,153.140646,153.140646,-9456.434915
989.053343,95.712904,114.855485,-9418.149754
989.053970,133.998066,133.998066,-9399.007173
989.054598,76.570323,172.283227,-9418.149754
989.055226,38.285162,114.855485,-9418.149754
989.055854,57.427742,172.283227,-9360.722011
989.056481,95.712904,153.140646,-9360.722011
989.057109,76.570323,114.855485,-9418.149754
989.057737,95.712904,114.855485,-9418.149754
989.058365,172.283227,76.570323,-9418.149754
989.058993,133.998066,114.855485,-9418.149754
989.059620,153.140646,114.855485,-9418.149754
989.060248,133.998066,133.998066,-9399.007173
989.060876,133.998066,191.425808,-9399.007173
989.061504,95.712904,172.283227,-9360.722011
989.062132,133.998066,114.855485,-9418.149754
989.062759,153.140646,133.998066,-9399.007173
989.063387,133.998066,153.140646,-9456.434915
989.064015,38.285162,153.140646,-9418.149754
989.064643,57.427742,172.283227,-9360.722011
989.065270,57.427742,210.568389,-9360.722011
989.065898,114.855485,172.283227,-9360.722011
989.066526,76.570323,153.140646,-9418.149754
989.067154,153.140646,133.998066,-9399.007173
989.067782,153.140646,133.998066,-9399.007173
989.068409,95.712904,153.140646,-9360.722011
989.069037,114.855485,133.998066,-9360.722011
989.069665,133.998066,114.855485,-9418.149754
989.070293,38.285162,153.140646,-9494.720077
989.070921,38.285162,114.855485,-9418.149754
989.071548,76.570323,114.855485,-9418.149754
989.072176,76.570323,229.710970,-9418.149754
989.072804,76.570323,114.855485,-9418.149754
989.073432,76.570323,229.710970,-9418.149754
989.074060,38.285162,210.568389,-9456.434915
989.074687,133.998066,153.140646,-9475.577496
989.075315,133.998066,114.855485,-9456.434915
989.075943,38.285162,114.855485,-9437.292334
989.076571,133.998066,133.998066,-9399.007173
989.077198,133.998066,114.855485,-9418.149754
989.077826,76.570323,114.855485,-9418.149754
989.078454,76.570323,95.712904,-9399.007173
989.079082,114.855485,153.140646,-9360.722011
989.079710,114.855485,133.998066,-9341.579430
989.080337,38.285162,114.855485,-9360.722011
989.080965,133.998066,210.568389,-9418.149754
989.081593,133.998066,114.855485,-9494.720077
989.082221,38.285162,172.283227,-9418.149754
989.082849,76.570323,114.855485,-9418.149754
989.083476,133.998066,191.425808,-9418.149754
989.084104,133.998066,114.855485,-9475.577496
989.084732,133.998066,210.568389,-9418.149754
989.085360,76.570323,114.855485,-9418.149754
989.085987,76.570323,114.855485,-9418.149754
989.086615,76.570323,172.283227,-9418.149754
989.087243,133.998066,210.568389,-9418.149754
989.087871,153.140646,133.998066,-9399.007173
989.088499,95.712904,95.712904,-9437.292334
989.089126,76.570323,210.568389,-9418.149754
989.089754,76.570323,210.568389,-9418.149754
989.090382,76.570323,172.283227,-9418.149754
989.091010,133.998066,172.283227,-9418.149754
989.091638,133.998066,114.855485,-9418.149754
989.092265,57.427742,114.855485,-9437.292334
989.092893,38.285162,76.570323,-9379.864592
989.093521,95.712904,210.568389,-9360.722011
989.094149,76.570323,133.998066,-9360.722011
989.094777,38.285162,95.712904,-9399.007173
989.095404,133.998066,153.140646,-9418.149754
989.096032,95.712904,95.712904,-9437.292334
989.096660,95.712904,153.140646,-9360.722011
989.097288,133.998066,153.140646,-9437.292334
989.097915,57.427742,95.712904,-9399.007173
989.098543,95.712904,133.998066,-9360.722011
989.099171,76.570323,114.855485,-9418.149754
989.099799,38.285162,172.283227,-9418.149754
989.100427,38.285162,172.283227,-9418.149754
989.101054,76.570323,153.140646,-9418.149754
989.101682,95.712904,172.283227,-9360.722011
989.102310,76.570323,114.855485,-9418.149754
989.102938,95.712904,95.712904,-9475.577496
989.103566,95.712904,133.998066,-9360.722011
989.104193,19.142581,114.855485,-9418.149754
989.104821,95.712904,133.998066,-9360.722011
989.105449,38.285162,114.855485,-9418.149754
989.106076,38.285162,172.283227,-9437.292334
989.106704,133.998066,153.140646,-9418.149754
989.107332,153.140646,153.140646,-9399.007173
989.107959,133.998066,153.140646,-9456.434915
989.108587,76.570323,114.855485,-9418.149754
989.109215,95.712904,114.855485,-9418.149754
989.109842,95.712904,114.855485,-9418.149754
989.110470,38.285162,114.855485,-9437.292334
989.111098,38.285162,114.855485,-9418.149754
989.111725,76.570323,114.855485,-9418.149754
989.112353,133.998066,153.140646,-9418.149754
989.112981,38.285162,114.855485,-9418.149754
989.113608,133.998066,76.570323,-9379.864592
989.114236,172.283227,114.855485,-9379.864592
989.114864,76.570323,172.283227,-9418.149754
989.115491,95.712904,95.712904,-9399.007173
989.116119,133.998066,114.855485,-9418.149754
989.116747,133.998066,172.283227,-9418.149754
989.117374,76.570323,114.855485,-9418.149754
989.118002,95.712904,191.425808,-9418.149754
989.118630,95.712904,191.425808,-9418.149754
989.119257,95.712904,95.712904,-9399.007173
989.119885,133.998066,172.283227,-9418.149754
989.120513,133.998066,172.283227,-9418.149754
989.121140,133.998066,114.855485,-9437.292334
989.121768,153.140646,172.283227,-9399.007173
989.122396,133.998066,114.855485,-9418.149754
989.123023,95.712904,133.998066,-9360.722011
989.123651,76.570323,114.855485,-9418.149754
989.124279,114.855485,95.712904,-9399.007173
989.124906,114.855485,95.712904,-9399.007173
989.125534,76.570323,172.283227,-9418.149754
989.126162,95.712904,114.855485,-9456.434915
989.126789,76.570323,114.855485,-9418.149754
989.127417,133.998066,153.140646,-9418.149754
989.128044,133.998066,114.855485,-9418.149754
989.128672,153.140646,133.998066,-9399.007173
989.129300,76.570323,114.855485,-9418.149754
989.129927,114.855485,133.998066,-9418.149754
989.130555,133.998066,114.855485,-9418.149754
989.131183,133.998066,133.998066,-9399.007173
989.131810,38.285162,76.570323,-9379.864592
989.132438,114.855485,95.712904,-9399.007173
989.133066,76.570323,172.283227,-9360.722011
989.133693,76.570323,153.140646,-9418.149754
989.134321,76.570323,114.855485,-9437.292334
989.134949,114.855485,133.998066,-9322.436850
989.135576,95.712904,114.855485,-9418.149754
989.136204,133.998066,172.283227,-9456.434915
989.136832,76.570323,229.710970,-9418.149754
989.137459,57.427742,95.712904,-9399.007173
989.138087,114.855485,133.998066,-9360.722011
989.138715,133.998066,229.710970,-9418.149754
989.139342,153.140646,191.425808,-9456.434915
989.139970,76.570323,114.855485,-9418.149754
989.140598,95.712904,191.425808,-9360.722011
989.141225,76.570323,114.855485,-9418.149754
989.141853,76.570323,153.140646,-9418.149754
989.142481,95.712904,95.712904,-9399.007173
989.143108,76.570323,153.140646,-9437.292334
989.143736,76.570323,114.855485,-9418.149754
989.144364,95.712904,133.998066,-9360.722011
989.144991,133.998066,191.425808,-9418.149754
989.145619,76.570323,153.140646,-9360.722011
989.146247,95.712904,133.998066,-9360.722011
989.146874,114.855485,95.712904,-9437.292334
989.147502,153.140646,133.998066,-9399.007173
989.148130,76.570323,114.855485,-9418.149754
989.148757,133.998066,114.855485,-9418.149754
989.149385,133.998066,114.855485,-9418.149754
989.150013,76.570323,114.855485,-9456.434915
989.150640,95.712904,95.712904,-9399.007173
989.151268,95.712904,95.712904,-9437.292334
989.151896,114.855485,153.140646,-9360.722011
989.152523,133.998066,210.568389,-9418.149754
989.153151,76.570323,172.283227,-9475.577496
989.153778,38.285162,114.855485,-9418.149754
989.154406,153.140646,172.283227,-9399.007173
989.155034,133.998066,153.140646,-9418.149754
989.155661,76.570323,133.998066,-9418.149754
989.156289,95.712904,114.855485,-9418.149754
989.156917,76.570323,210.568389,-9418.149754
989.157544,57.427742,114.855485,-9379.864592
989.158172,76.570323,114.855485,-9418.149754
989.158800,95.712904,95.712904,-9494.720077
989.159427,95.712904,114.855485,-9418.149754
989.160055,38.285162,114.855485,-9437.292334
989.160683,38.285162,114.855485,-9418.149754
989.161310,133.998066,172.283227,-9418.149754
989.161938,133.998066,172.283227,-9418.149754
989.162566,95.712904,172.283227,-9418.149754
989.163193,76.570323,114.855485,-9418.149754
989.163821,133.998066,153.140646,-9418.149754
989.164449,57.427742,95.712904,-9494.720077
989.165076,95.712904,95.712904,-9399.007173
989.165704,95.712904,153.140646,-9360.722011
989.166332,95.712904,133.998066,-9360.722011
989.166959,133.998066,153.140646,-9418.149754
989.167587,76.570323,114.855485,-9437.292334
989.168215,133.998066,133.998066,-9399.007173
989.168842,133.998066,114.855485,-9418.149754
989.169470,95.712904,95.712904,-9399.007173
989.170098,133.998066,114.855485,-9418.149754
989.170725,114.855485,133.998066,-9360.722011
989.171353,76.570323,172.283227,-9437.292334
989.171981,38.285162,114.855485,-9437.292334
989.172608,38.285162,172.283227,-9456.434915
989.173236,133.998066,114.855485,-9475.577496
989.173864,95.712904,172.283227,-9360.722011
989.174491,95.712904,153.140646,-9418.149754
989.175119,38.285162,114.855485,-9456.434915
989.175747,76.570323,210.568389,-9418.149754
989.176374,133.998066,114.855485,-9418.149754
989.177002,95.712904,95.712904,-9399.007173
989.177630,114.855485,114.855485,-9418.149754
989.178257,153.140646,133.998066,-9399.007173
989.178885,114.855485,76.570323,-9418.149754
989.179512,133.998066,114.855485,-9418.149754
989.180140,76.570323,153.140646,-9418.149754
989.180768,133.998066,172.283227,-9418.149754
989.181395,114.855485,133.998066,-9360.722011
989.182023,133.998066,114.855485,-9418.149754
989.182651,133.998066,114.855485,-9418.149754
989.183278,76.570323,114.855485,-9418.149754
989.183906,114.855485,133.998066,-9360.722011
989.184534,210.568389,133.998066,-9399.007173
989.185161,76.570323,114.855485,-9418.149754
989.185789,95.712904,95.712904,-9399.007173
989.186417,114.855485,133.998066,-9360.722011
989.187044,133.998066,114.855485,-9418.149754
989.187672,153.140646,133.998066,-9399.007173
989.188300,114.855485,133.998066,-9360.722011
989.188927,76.570323,114.855485,-9418.149754
989.189555,133.998066,114.855485,-9418.149754
989.190183,38.285162,114.855485,-9418.149754
989.190810,57.427742,133.998066,-9360.722011
989.191438,38.285162,114.855485,-9418.149754
989.192066,38.285162,153.140646,-9418.149754
989.192693,133.998066,114.855485,-9456.434915
989.193321,133.998066,114.855485,-9418.149754
989.193949,133.998066,172.283227,-9418.149754
989.194576,153.140646,114.855485,-9418.149754
989.195204,38.285162,114.855485,-9418.149754
989.195832,133.998066,114.855485,-9418.149754
989.196459,95.712904,95.712904,-9399.007173
989.197087,114.855485,133.998066,-9360.722011
989.197715,133.998066,114.855485,-9418.149754
989.198342,76.570323,172.283227,-9418.149754
989.198970,38.285162,114.855485,-9418.149754
989.199598,76.570323,114.855485,-9418.149754
989.200225,133.998066,114.855485,-9418.149754
989.200853,76.570323,114.855485,-9418.149754
989.201481,95.712904,153.140646,-9360.722011
989.202108,76.570323,153.140646,-9360.722011
989.202736,114.855485,133.998066,-9360.722011
989.203364,76.570323,76.570323,-9379.864592
989.203991,133.998066,114.855485,-9418.149754
989.204619,95.712904,172.283227,-9418.149754
989.205246,76.570323,153.140646,-9418.149754
989.205874,114.855485,95.712904,-9399.007173
989.206502,133.998066,133.998066,-9399.007173
989.207129,172.283227,114.855485,-9399.007173
989.207757,95.712904,153.140646,-9418.149754
989.208385,76.570323,114.855485,-9418.149754
989.209013,19.142581,114.855485,-9418.149754
989.209640,38.285162,114.855485,-9437.292334
989.210268,76.570323,172.283227,-9456.434915
989.210896,57.427742,95.712904,-9399.007173
989.211523,153.140646,133.998066,-9399.007173
989.212151,76.570323,172.283227,-9360.722011
989.212779,95.712904,153.140646,-9437.292334
989.213406,172.283227,76.570323,-9418.149754
989.214034,76.570323,114.855485,-9418.149754
989.214662,76.570323,172.283227,-9418.149754
989.215289,57.427742,133.998066,-9360.722011
989.215917,76.570323,114.855485,-9475.577496
989.216545,76.570323,114.855485,-9418.149754
989.217173,95.712904,153.140646,-9418.149754
989.217800,76.570323,153.140646,-9418.149754
989.218428,133.998066,172.283227,-9418.149754
989.219056,76.570323,172.283227,-9418.149754
989.219683,133.998066,210.568389,-9418.149754
989.220311,95.712904,95.712904,-9399.007173
989.220939,114.855485,172.283227,-9360.722011
989.221566,76.570323,172.283227,-9418.149754
989.222194,57.427742,153.140646,-9418.149754
989.222822,38.285162,114.855485,-9418.149754
989.223449,38.285162,114.855485,-9475.577496
989.224077,76.570323,114.855485,-9418.149754
989.224705,95.712904,114.855485,-9418.149754
989.225332,133.998066,114.855485,-9418.149754
989.225960,133.998066,172.283227,-9456.434915
989.226588,76.570323,114.855485,-9437.292334
989.227216,76.570323,114.855485,-9418.149754
989.227843,153.140646,133.998066,-9399.007173
989.228471,133.998066,172.283227,-9418.149754
989.229099,133.998066,210.568389,-9437.292334
989.229726,153.140646,172.283227,-9399.007173
989.230354,76.570323,114.855485,-9418.149754
989.230982,114.855485,191.425808,-9360.722011
989.231609,153.140646,133.998066,-9399.007173
989.232237,133.998066,114.855485,-9418.149754
989.232865,133.998066,153.140646,-9437.292334
989.233492,76.570323,114.855485,-9418.149754
989.234120,95.712904,133.998066,-9360.722011
989.234748,76.570323,172.283227,-9418.149754
989.235375,133.998066,114.855485,-9418.149754
989.236003,95.712904,133.998066,-9360.722011
989.236631,76.570323,210.568389,-9418.149754
989.237259,76.570323,172.283227,-9456.434915
989.237886,95.712904,172.283227,-9399.007173
989.238514,133.998066,114.855485,-9418.149754
989.239142,38.285162,114.855485,-9418.149754
989.239769,133.998066,114.855485,-9418.149754
989.240397,76.570323,114.855485,-9418.149754
989.241025,133.998066,114.855485,-9418.149754
989.241652,172.283227,114.855485,-9379.864592
989.242280,114.855485,133.998066,-9360.722011
989.242908,76.570323,114.855485,-9437.292334
989.243535,76.570323,172.283227,-9418.149754
989.244163,38.285162,210.568389,-9418.149754
989.244791,133.998066,210.568389,-9418.149754
989.245418,114.855485,133.998066,-9360.722011
989.246046,95.712904,191.425808,-9360.722011
989.246674,95.712904,172.283227,-9360.722011
989.247302,76.570323,114.855485,-9418.149754
989.247929,95.712904,95.712904,-9456.434915
989.248557,76.570323,114.855485,-9418.149754
989.249185,95.712904,153.140646,-9341.579430
989.249812,133.998066,114.855485,-9418.149754
989.250440,95.712904,95.712904,-9399.007173
989.251068,38.285162,172.283227,-9437.292334
989.251695,95.712904,114.855485,-9418.149754
989.252323,114.855485,133.998066,-9360.722011
989.252951,76.570323,153.140646,-9360.722011
989.253578,57.427742,114.855485,-9418.149754
989.254206,133.998066,172.283227,-9360.722011
989.254834,38.285162,172.283227,-9418.149754
989.255462,133.998066,172.283227,-9360.722011
989.256089,76.570323,153.140646,-9418.149754
989.256717,153.140646,114.855485,-9418.149754
989.257345,133.998066,114.855485,-9418.149754
989.257972,95.712904,133.998066,-9360.722011
989.258600,114.855485,191.425808,-9341.579430
989.259228,133.998066,114.855485,-9418.149754
989.259855,133.998066,114.855485,-9418.149754
989.260483,133.998066,153.140646,-9399.007173
989.261111,133.998066,114.855485,-9418.149754
989.261738,76.570323,114.855485,-9418.149754
989.262366,38.285162,76.570323,-9379.864592
989.262994,133.998066,114.855485,-9418.149754
989.263621,133.998066,114.855485,-9418.149754
989.264249,38.285162,114.855485,-9456.434915
989.264877,210.568389,172.283227,-9399.007173
989.265505,76.570323,114.855485,-9418.149754
989.266132,95.712904,95.712904,-9399.007173
989.266760,76.570323,114.855485,-9456.434915
989.267388,76.570323,114.855485,-9418.149754
989.268015,76.570323,114.855485,-9418.149754
989.268643,95.712904,95.712904,-9456.434915
989.269271,133.998066,153.140646,-9418.149754
989.269898,95.712904,114.855485,-9399.007173
989.270526,95.712904,114.855485,-9418.149754
989.271154,114.855485,133.998066,-9360.722011
989.271781,38.285162,153.140646,-9418.149754
989.272409,95.712904,172.283227,-9360.722011
989.273037,95.712904,95.712904,-9399.007173
989.273664,114.855485,133.998066,-9360.722011
989.274292,172.283227,76.570323,-9437.292334
989.274920,172.283227,76.570323,-9418.149754
989.275548,172.283227,114.855485,-9399.007173
989.276175,133.998066,114.855485,-9418.149754
989.276803,133.998066,114.855485,-9418.149754
989.277431,153.140646,114.855485,-9418.149754
989.278058,76.570323,172.283227,-9418.149754
989.278686,76.570323,153.140646,-9456.434915
989.279314,133.998066,114.855485,-9475.577496
989.279941,114.855485,133.998066,-9360.722011
989.280569,95.712904,95.712904,-9399.007173
989.281197,114.855485,153.140646,-9360.722011
989.281824,38.285162,114.855485,-9418.149754
989.282452,76.570323,76.570323,-9379.864592
989.283080,133.998066,114.855485,-9418.149754
989.283708,95.712904,153.140646,-9418.149754
989.284335,114.855485,133.998066,-9360.722011
989.284963,114.855485,95.712904,-9379.864592
989.285591,133.998066,153.140646,-9418.149754
989.286218,133.998066,172.283227,-9418.149754
989.286846,133.998066,114.855485,-9418.149754
989.287474,57.427742,172.283227,-9360.722011
989.288101,153.140646,133.998066,-9399.007173
989.288729,133.998066,153.140646,-9418.149754
989.289357,95.712904,133.998066,-9360.722011
989.289984,95.712904,95.712904,-9437.292334
989.290612,133.998066,172.283227,-9437.292334
989.291240,133.998066,191.425808,-9418.149754
989.291867,133.998066,172.283227,-9418.149754
989.292495,76.570323,114.855485,-9418.149754
989.293123,95.712904,153.140646,-9360.722011
989.293751,76.570323,114.855485,-9418.149754
989.294378,57.427742,133.998066,-9360.722011
989.295006,76.570323,114.855485,-9418.149754
989.295634,114.855485,95.712904,-9456.434915
989.296261,76.570323,114.855485,-9418.149754
989.296889,76.570323,114.855485,-9418.149754
989.297517,95.712904,172.283227,-9418.149754
989.298144,95.712904,133.998066,-9322.436850
989.298772,76.570323,153.140646,-9418.149754
989.299400,76.570323,76.570323,-9379.864592
989.300027,95.712904,114.855485,-9418.149754
989.300655,57.427742,114.855485,-9418.149754
989.301283,95.712904,133.998066,-9360.722011
989.301910,76.570323,114.855485,-9418.149754
989.302538,133.998066,210.568389,-9418.149754
989.303166,133.998066,114.855485,-9418.149754
989.303794,76.570323,114.855485,-9418.149754
989.304421,76.570323,172.283227,-9418.149754
989.305049,95.712904,172.283227,-9360.722011
989.305677,95.712904,153.140646,-9456.434915
989.306304,153.140646,153.140646,-9399.007173
989.306932,133.998066,114.855485,-9418.149754
989.307559,133.998066,114.855485,-9437.292334
989.308187,95.712904,114.855485,-9418.149754
989.308815,76.570323,114.855485,-9418.149754
989.309442,76.570323,191.425808,-9418.149754
989.310070,38.285162,210.568389,-9418.149754
989.310698,76.570323,172.283227,-9418.149754
989.311325,76.570323,114.855485,-9418.149754
989.311953,172.283227,76.570323,-9418.149754
989.312580,95.712904,95.712904,-9399.007173
989.313208,76.570323,114.855485,-9418.149754
989.313836,133.998066,172.283227,-9418.149754
989.314463,76.570323,153.140646,-9418.149754
989.315091,76.570323,114.855485,-9418.149754
989.315719,114.855485,95.712904,-9379.864592
989.316346,76.570323,153.140646,-9418.149754
989.316974,153.140646,133.998066,-9399.007173
989.317601,133.998066,114.855485,-9418.149754
989.318229,133.998066,114.855485,-9418.149754
989.318857,172.283227,76.570323,-9418.149754
989.319484,19.142581,114.855485,-9418.149754
989.320112,76.570323,229.710970,-9418.149754
989.320740,76.570323,172.283227,-9399.007173
989.321367,76.570323,172.283227,-9418.149754
989.321995,133.998066,114.855485,-9418.149754
989.322622,38.285162,172.283227,-9418.149754
989.323250,133.998066,114.855485,-9437.292334
989.323878,114.855485,95.712904,-9399.007173
989.324505,95.712904,114.855485,-9399.007173
989.325133,76.570323,210.568389,-9456.434915
989.325761,133.998066,172.283227,-9418.149754
989.326388,95.712904,153.140646,-9360.722011
989.327016,95.712904,114.855485,-9418.149754
989.327643,95.712904,114.855485,-9418.149754
989.328271,114.855485,133.998066,-9360.722011
989.328899,133.998066,172.283227,-9399.007173
989.329526,133.998066,133.998066,-9399.007173
989.330154,38.285162,114.855485,-9418.149754
989.330782,38.285162,114.855485,-9418.149754
989.331409,0.000000,172.283227,-9360.722011
989.332037,76.570323,153.140646,-9418.149754
989.332664,38.285162,114.855485,-9456.434915
989.333292,76.570323,114.855485,-9418.149754
989.333920,153.140646,133.998066,-9399.007173
989.334547,133.998066,133.998066,-9399.007173
989.335175,95.712904,114.855485,-9360.722011
989.335803,76.570323,114.855485,-9418.149754
989.336430,76.570323,153.140646,-9418.149754
989.337058,38.285162,210.568389,-9418.149754
989.337685,95.712904,95.712904,-9399.007173
989.338313,114.855485,133.998066,-9360.722011
989.338941,153.140646,153.140646,-9418.149754
989.339568,76.570323,114.855485,-9418.149754
989.340196,76.570323,114.855485,-9418.149754
989.340823,133.998066,114.855485,-9418.149754
989.341451,38.285162,114.855485,-9418.149754
989.342079,76.570323,172.283227,-9418.149754
989.342706,95.712904,153.140646,-9360.722011
989.343334,76.570323,172.283227,-9418.149754
989.343962,133.998066,172.283227,-9360.722011
989.344589,95.712904,133.998066,-9360.722011
989.345217,57.427742,114.855485,-9418.149754
989.345844,76.570323,210.568389,-9418.149754
989.346472,172.283227,153.140646,-9379.864592
989.347100,153.140646,153.140646,-9399.007173
989.347727,153.140646,114.855485,-9418.149754
989.348355,95.712904,133.998066,-9360.722011
989.348983,76.570323,229.710970,-9418.149754
989.349610,76.570323,114.855485,-9418.149754
989.350238,133.998066,210.568389,-9437.292334
989.350865,76.570323,172.283227,-9437.292334
989.351493,133.998066,153.140646,-9399.007173
989.352121,76.570323,172.283227,-9418.149754
989.352748,133.998066,114.855485,-9418.149754
989.353376,133.998066,114.855485,-9418.149754
989.354004,133.998066,114.855485,-9437.292334
989.354631,76.570323,114.855485,-9456.434915
989.355259,76.570323,114.855485,-9418.149754
989.355886,76.570323,114.855485,-9418.149754
989.356514,76.570323,114.855485,-9418.149754
989.357142,133.998066,114.855485,-9418.149754
989.357769,76.570323,114.855485,-9418.149754
989.358397,95.712904,114.855485,-9418.149754
989.359025,76.570323,114.855485,-9437.292334
989.359652,95.712904,114.855485,-9360.722011
989.360280,114.855485,133.998066,-9360.722011
989.360907,133.998066,172.283227,-9399.007173
989.361535,76.570323,210.568389,-9418.149754
989.362163,133.998066,172.283227,-9418.149754
989.362790,133.998066,114.855485,-9418.149754
989.363418,133.998066,172.283227,-9399.007173
989.364046,95.712904,133.998066,-9360.722011
989.364673,133.998066,133.998066,-9399.007173
989.365301,153.140646,133.998066,-9399.007173
989.365928,133.998066,153.140646,-9418.149754
989.366556,95.712904,114.855485,-9475.577496
989.367184,57.427742,172.283227,-9437.292334
989.367811,76.570323,210.568389,-9418.149754
989.368439,76.570323,114.855485,-9418.149754
989.369067,114.855485,133.998066,-9360.722011
989.369694,76.570323,172.283227,-9418.149754
989.370322,38.285162,114.855485,-9418.149754
989.370949,38.285162,153.140646,-9418.149754
989.371577,76.570323,153.140646,-9418.149754
989.372205,76.570323,172.283227,-9418.149754
989.372832,76.570323,153.140646,-9418.149754
989.373460,76.570323,114.855485,-9418.149754
989.374088,95.712904,133.998066,-9360.722011
989.374715,57.427742,248.853550,-9360.722011
989.375343,76.570323,229.710970,-9418.149754
989.375970,76.570323,114.855485,-9418.149754
989.376598,133.998066,114.855485,-9418.149754
989.377226,172.283227,76.570323,-9418.149754
989.377853,76.570323,114.855485,-9418.149754
989.378481,76.570323,114.855485,-9418.149754
989.379108,76.570323,133.998066,-9360.722011
989.379736,133.998066,191.425808,-9399.007173
989.380364,95.712904,114.855485,-9456.434915
989.380991,114.855485,95.712904,-9399.007173
989.381619,76.570323,172.283227,-9418.149754
989.382247,76.570323,114.855485,-9418.149754
989.382874,133.998066,153.140646,-9437.292334
989.383502,38.285162,172.283227,-9418.149754
989.384129,76.570323,114.855485,-9418.149754
989.384757,76.570323,114.855485,-9418.149754
989.385385,76.570323,114.855485,-9418.149754
989.386012,76.570323,114.855485,-9437.292334
989.386640,38.285162,114.855485,-9418.149754
989.387268,38.285162,210.568389,-9418.149754
989.387895,38.285162,133.998066,-9418.149754
989.388523,38.285162,114.855485,-9418.149754
989.389150,133.998066,114.855485,-9418.149754
989.389778,95.712904,172.283227,-9360.722011
989.390406,133.998066,172.283227,-9437.292334
989.391033,133.998066,172.283227,-9399.007173
989.391661,76.570323,114.855485,-9360.722011
989.392289,153.140646,133.998066,-9399.007173
989.392916,153.140646,133.998066,-9399.007173
989.393544,133.998066,114.855485,-9418.149754
989.394171,76.570323,114.855485,-9418.149754
989.394799,133.998066,95.712904,-9418.149754
989.395427,114.855485,133.998066,-9360.722011
989.396054,133.998066,114.855485,-9494.720077
989.396682,76.570323,153.140646,-9475.577496
989.397310,114.855485,76.570323,-9418.149754
989.397937,76.570323,153.140646,-9418.149754
989.398565,114.855485,172.283227,-9360.722011
989.399192,95.712904,210.568389,-9418.149754
989.399820,38.285162,172.283227,-9418.149754
989.400448,114.855485,133.998066,-9360.722011
989.401075,114.855485,133.998066,-9360.722011
