#time,accel_x,accel_y,accel_z
971.959329,153.140646,133.998066,-9399.007173
971.959956,19.142581,114.855485,-9418.149754
971.960583,76.570323,114.855485,-9437.292334
971.961210,133.998066,114.855485,-9456.434915
971.961838,76.570323,114.855485,-9418.149754
971.962465,133.998066,153.140646,-9418.149754
971.963092,38.285162,153.140646,-9418.149754
971.963719,153.140646,114.855485,-9418.149754
971.964346,133.998066,114.855485,-9418.149754
971.964973,57.427742,95.712904,-9399.007173
971.965600,114.855485,191.425808,-9360.722011
971.966227,76.570323,114.855485,-9418.149754
971.966855,76.570323,210.568389,-9418.149754
971.967482,38.285162,114.855485,-9360.722011
971.968109,133.998066,114.855485,-9437.292334
971.968736,76.570323,210.568389,-9418.149754
971.969363,76.570323,153.140646,-9418.149754
971.969990,133.998066,210.568389,-9418.149754
971.970617,76.570323,114.855485,-9418.149754
971.971245,153.140646,133.998066,-9399.007173
971.971872,133.998066,114.855485,-9475.577496
971.972499,76.570323,114.855485,-9418.149754
971.973126,76.570323,153.140646,-9475.577496
971.973753,133.998066,172.283227,-9475.577496
971.974380,76.570323,114.855485,-9418.149754
971.975007,114.855485,133.998066,-9418.149754
971.975635,76.570323,114.855485,-9418.149754
971.976262,76.570323,114.855485,-9456.434915
971.976889,38.285162,114.855485,-9494.720077
971.977516,133.998066,114.855485,-9456.434915
971.978143,76.570323,229.710970,-9418.149754
971.978770,76.570323,76.570323,-9322.436850
971.979397,76.570323,114.855485,-9418.149754
971.980025,133.998066,133.998066,-9399.007173
971.980652,76.570323,172.283227,-9456.434915
971.981279,172.283227,210.568389,-9379.864592
971.981906,76.570323,153.140646,-9341.579430
971.982533,76.570323,153.140646,-9437.292334
971.983160,76.570323,76.570323,-9322.436850
971.983787,76.570323,191.425808,-9418.149754
971.984414,114.855485,95.712904,-9399.007173
971.985042,114.855485,114.855485,-9379.864592
971.985669,133.998066,133.998066,-9399.007173
971.986296,172.283227,114.855485,-9379.864592
971.986923,133.998066,114.855485,-9418.149754
971.987550,95.712904,114.855485,-9418.149754
971.988177,76.570323,114.855485,-9418.149754
971.988804,76.570323,114.855485,-9418.149754
971.989432,133.998066,114.855485,-9418.149754
971.990059,38.285162,210.568389,-9418.149754
971.990686,133.998066,114.855485,-9418.149754
971.991313,76.570323,172.283227,-9418.149754
971.991940,76.570323,76.570323,-9399.007173
971.992567,95.712904,133.998066,-9418.149754
971.993194,95.712904,95.712904,-9456.434915
971.993822,114.855485,133.998066,-9418.149754
971.994449,114.855485,114.855485,-9379.864592
971.995076,95.712904,133.998066,-9360.722011
971.995703,95.712904,95.712904,-9399.007173
971.996330,38.285162,114.855485,-9418.149754
971.996957,76.570323,172.283227,-9437.292334
971.997584,38.285162,114.855485,-9418.149754
971.998212,76.570323,153.140646,-9360.722011
971.998839,114.855485,133.998066,-9418.149754
971.999466,57.427742,133.998066,-9341.579430
972.000093,133.998066,114.855485,-9418.149754
972.000720,172.283227,153.140646,-9379.864592
972.001347,133.998066,114.855485,-9456.434915
972.001974,133.998066,172.283227,-9399.007173
972.002601,114.855485,95.712904,-9399.007173
972.003229,133.998066,114.855485,-9418.149754
972.003856,76.570323,95.712904,-9399.007173
972.004483,95.712904,172.283227,-9360.722011
972.005110,38.285162,114.855485,-9418.149754
972.005737,76.570323,114.855485,-9437.292334
972.006364,114.855485,95.712904,-9399.007173
972.006991,133.998066,114.855485,-9418.149754
972.007619,76.570323,114.855485,-9418.149754
972.008246,76.570323,172.283227,-9418.149754
972.008873,38.285162,114.855485,-9418.149754
972.009500,133.998066,153.140646,-9418.149754
972.010127,133.998066,153.140646,-9418.149754
972.010754,57.427742,133.998066,-9360.722011
972.011381,95.712904,114.855485,-9418.149754
972.012009,38.285162,114.855485,-9418.149754
972.012636,133.998066,114.855485,-9418.149754
972.013263,153.140646,191.425808,-9399.007173
972.013890,114.855485,172.283227,-9360.722011
972.014517,95.712904,172.283227,-9360.722011
972.015144,114.855485,133.998066,-9360.722011
972.015771,76.570323,114.855485,-9418.149754
972.016399,95.712904,114.855485,-9418.149754
972.017026,133.998066,153.140646,-9437.292334
972.017653,133.998066,133.998066,-9437.292334
972.018280,153.140646,153.140646,-9399.007173
972.018907,133.998066,114.855485,-9418.149754
972.019534,172.283227,153.140646,-9379.864592
972.020161,153.140646,153.140646,-9399.007173
972.020788,133.998066,133.998066,-9437.292334
972.021416,76.570323,114.855485,-9418.149754
972.022043,95.712904,114.855485,-9418.149754
972.022669,172.283227,229.710970,-9399.007173
972.023296,153.140646,133.998066,-9456.434915
972.023923,172.283227,153.140646,-9379.864592
972.024550,133.998066,114.855485,-9418.149754
972.025176,153.140646,133.998066,-9456.434915
972.025803,133.998066,114.855485,-9418.149754
972.026430,95.712904,133.998066,-9360.722011
972.027057,76.570323,114.855485,-9437.292334
972.027683,133.998066,153.140646,-9418.149754
972.028310,133.998066,114.855485,-9418.149754
972.028937,114.855485,95.712904,-9437.292334
972.029564,76.570323,114.855485,-9418.149754
972.030190,76.570323,114.855485,-9456.434915
972.030817,38.285162,210.568389,-9418.149754
972.031444,133.998066,210.568389,-9418.149754
972.032070,153.140646,191.425808,-9399.007173
972.032697,114.855485,95.712904,-9399.007173
972.033324,76.570323,76.570323,-9379.864592
972.033951,76.570323,133.998066,-9341.579430
972.034577,57.427742,210.568389,-9418.149754
972.035204,133.998066,210.568389,-9399.007173
972.035831,153.140646,172.283227,-9399.007173
972.036458,76.570323,114.855485,-9418.149754
972.037084,133.998066,114.855485,-9418.149754
972.037711,95.712904,95.712904,-9379.864592
972.038338,133.998066,114.855485,-9418.149754
972.038965,153.140646,133.998066,-9399.007173
972.039591,153.140646,153.140646,-9456.434915
972.040218,114.855485,191.425808,-9360.722011
972.040845,76.570323,114.855485,-9437.292334
972.041471,76.570323,114.855485,-9418.149754
972.042098,76.570323,114.855485,-9456.434915
972.042725,57.427742,133.998066,-9360.722011
972.043352,95.712904,153.140646,-9360.722011
972.043978,114.855485,153.140646,-9341.579430
972.044605,153.140646,133.998066,-9399.007173
972.045232,95.712904,95.712904,-9399.007173
972.045859,57.427742,95.712904,-9399.007173
972.046485,133.998066,114.855485,-9437.292334
972.047112,133.998066,114.855485,-9418.149754
972.047739,153.140646,133.998066,-9437.292334
972.048366,95.712904,114.855485,-9418.149754
972.048992,114.855485,133.998066,-9360.722011
972.049619,153.140646,153.140646,-9418.149754
972.050246,153.140646,133.998066,-9399.007173
972.050872,133.998066,133.998066,-9399.007173
972.051499,133.998066,133.998066,-9399.007173
972.052126,114.855485,172.283227,-9360.722011
972.052753,133.998066,191.425808,-9399.007173
972.053379,57.427742,95.712904,-9399.007173
972.054006,76.570323,114.855485,-9418.149754
972.054633,19.142581,172.283227,-9418.149754
972.055260,38.285162,114.855485,-9418.149754
972.055886,76.570323,172.283227,-9418.149754
972.056513,114.855485,172.283227,-9322.436850
972.057140,95.712904,172.283227,-9418.149754
972.057767,133.998066,114.855485,-9360.722011
972.058393,114.855485,133.998066,-9341.579430
972.059020,57.427742,133.998066,-9360.722011
972.059647,114.855485,133.998066,-9360.722011
972.060273,114.855485,114.855485,-9379.864592
972.060900,95.712904,172.283227,-9360.722011
972.061527,76.570323,210.568389,-9418.149754
972.062154,153.140646,133.998066,-9399.007173
972.062780,133.998066,114.855485,-9437.292334
972.063407,153.140646,133.998066,-9437.292334
972.064034,76.570323,172.283227,-9418.149754
972.064661,57.427742,114.855485,-9399.007173
972.065287,133.998066,172.283227,-9456.434915
972.065914,95.712904,133.998066,-9360.722011
972.066541,172.283227,172.283227,-9379.864592
972.067168,133.998066,114.855485,-9418.149754
972.067794,95.712904,114.855485,-9418.149754
972.068421,133.998066,76.570323,-9456.434915
972.069048,133.998066,114.855485,-9418.149754
972.069674,76.570323,114.855485,-9437.292334
972.070301,76.570323,114.855485,-9418.149754
972.070928,76.570323,114.855485,-9418.149754
972.071555,57.427742,95.712904,-9399.007173
972.072181,38.285162,133.998066,-9399.007173
972.072808,76.570323,114.855485,-9418.149754
972.073435,133.998066,172.283227,-9437.292334
972.074062,19.142581,153.140646,-9437.292334
972.074688,133.998066,114.855485,-9418.149754
972.075315,76.570323,172.283227,-9418.149754
972.075942,114.855485,153.140646,-9360.722011
972.076568,133.998066,191.425808,-9399.007173
972.077195,76.570323,114.855485,-9360.722011
972.077822,76.570323,114.855485,-9418.149754
972.078449,114.855485,172.283227,-9341.579430
972.079075,114.855485,95.712904,-9456.434915
972.079702,95.712904,133.998066,-9418.149754
972.080329,95.712904,95.712904,-9399.007173
972.080956,76.570323,95.712904,-9399.007173
972.081582,76.570323,133.998066,-9379.864592
972.082209,76.570323,114.855485,-9418.149754
972.082836,76.570323,114.855485,-9418.149754
972.083463,38.285162,114.855485,-9418.149754
972.084089,76.570323,76.570323,-9379.864592
972.084716,76.570323,114.855485,-9418.149754
972.085343,95.712904,114.855485,-9418.149754
972.085969,133.998066,114.855485,-9437.292334
972.086596,133.998066,114.855485,-9418.149754
972.087223,133.998066,114.855485,-9418.149754
972.087850,76.570323,172.283227,-9418.149754
972.088476,76.570323,114.855485,-9456.434915
972.089103,57.427742,95.712904,-9399.007173
972.089730,95.712904,172.283227,-9418.149754
972.090357,76.570323,114.855485,-9418.149754
972.090983,57.427742,95.712904,-9456.434915
972.091610,76.570323,114.855485,-9418.149754
972.092237,57.427742,172.283227,-9360.722011
972.092864,76.570323,172.283227,-9418.149754
972.093490,38.285162,114.855485,-9418.149754
972.094117,38.285162,114.855485,-9418.149754
972.094744,38.285162,114.855485,-9418.149754
972.095370,76.570323,95.712904,-9456.434915
972.095997,114.855485,114.855485,-9379.864592
972.096624,133.998066,114.855485,-9418.149754
972.097251,153.140646,133.998066,-9399.007173
972.097877,172.283227,133.998066,-9360.722011
972.098504,133.998066,210.568389,-9418.149754
972.099131,76.570323,172.283227,-9475.577496
972.099758,133.998066,153.140646,-9456.434915
972.100384,114.855485,114.855485,-9379.864592
972.101011,133.998066,114.855485,-9456.434915
972.101638,114.855485,95.712904,-9456.434915
972.102265,153.140646,133.998066,-9399.007173
972.102891,133.998066,133.998066,-9399.007173
972.103518,76.570323,210.568389,-9418.149754
972.104145,38.285162,191.425808,-9418.149754
972.104771,114.855485,153.140646,-9418.149754
972.105398,76.570323,114.855485,-9418.149754
972.106025,76.570323,210.568389,-9418.149754
972.106652,133.998066,172.283227,-9418.149754
972.107278,76.570323,114.855485,-9418.149754
972.107905,133.998066,114.855485,-9418.149754
972.108532,95.712904,210.568389,-9360.722011
972.109159,19.142581,114.855485,-9418.149754
972.109785,38.285162,153.140646,-9418.149754
972.110412,76.570323,95.712904,-9399.007173
972.111039,133.998066,153.140646,-9418.149754
972.111666,38.285162,114.855485,-9456.434915
972.112292,38.285162,153.140646,-9418.149754
972.112919,133.998066,153.140646,-9418.149754
972.113546,76.570323,114.855485,-9418.149754
972.114172,95.712904,210.568389,-9399.007173
972.114799,133.998066,114.855485,-9437.292334
972.115426,76.570323,153.140646,-9456.434915
972.116053,57.427742,172.283227,-9418.149754
972.116679,133.998066,172.283227,-9418.149754
972.117306,133.998066,114.855485,-9418.149754
972.117933,76.570323,114.855485,-9418.149754
972.118560,76.570323,114.855485,-9437.292334
972.119186,114.855485,95.712904,-9399.007173
972.119813,95.712904,133.998066,-9360.722011
972.120440,76.570323,114.855485,-9418.149754
972.121067,95.712904,172.283227,-9418.149754
972.121693,153.140646,133.998066,-9399.007173
972.122320,133.998066,114.855485,-9456.434915
972.122947,133.998066,133.998066,-9399.007173
972.123575,57.427742,95.712904,-9399.007173
972.124202,38.285162,153.140646,-9418.149754
972.124829,76.570323,172.283227,-9418.149754
972.125457,133.998066,153.140646,-9418.149754
972.126084,114.855485,95.712904,-9399.007173
972.126711,76.570323,114.855485,-9418.149754
972.127339,76.570323,114.855485,-9456.434915
972.127966,76.570323,114.855485,-9418.149754
972.128594,133.998066,114.855485,-9418.149754
972.129221,95.712904,133.998066,-9360.722011
972.129848,133.998066,114.855485,-9437.292334
972.130476,133.998066,114.855485,-9418.149754
972.131103,114.855485,133.998066,-9360.722011
972.131730,76.570323,114.855485,-9418.149754
972.132358,153.140646,133.998066,-9456.434915
972.132985,95.712904,114.855485,-9418.149754
972.133612,76.570323,114.855485,-9418.149754
972.134240,38.285162,210.568389,-9418.149754
972.134867,133.998066,114.855485,-9418.149754
972.135494,95.712904,133.998066,-9360.722011
972.136122,76.570323,153.140646,-9418.149754
972.136749,133.998066,172.283227,-9475.577496
972.137376,133.998066,114.855485,-9418.149754
972.138004,114.855485,153.140646,-9533.005238
972.138631,153.140646,133.998066,-9399.007173
972.139259,95.712904,210.568389,-9418.149754
972.139886,76.570323,153.140646,-9418.149754
972.140513,133.998066,153.140646,-9418.149754
972.141141,76.570323,210.568389,-9456.434915
972.141768,153.140646,172.283227,-9399.007173
972.142395,133.998066,114.855485,-9437.292334
972.143023,95.712904,172.283227,-9418.149754
972.143650,76.570323,114.855485,-9418.149754
972.144277,76.570323,114.855485,-9418.149754
972.144905,95.712904,133.998066,-9360.722011
972.145532,95.712904,133.998066,-9341.579430
972.146159,19.142581,114.855485,-9418.149754
972.146787,38.285162,114.855485,-9456.434915
972.147414,133.998066,172.283227,-9418.149754
972.148041,172.283227,114.855485,-9379.864592
972.148669,76.570323,114.855485,-9437.292334
972.149296,38.285162,114.855485,-9418.149754
972.149924,133.998066,114.855485,-9418.149754
972.150551,38.285162,114.855485,-9418.149754
972.151178,95.712904,172.283227,-9360.722011
972.151806,76.570323,114.855485,-9418.149754
972.152433,133.998066,114.855485,-9456.434915
972.153060,38.285162,114.855485,-9418.149754
972.153688,76.570323,114.855485,-9418.149754
972.154315,133.998066,114.855485,-9418.149754
972.154942,133.998066,114.855485,-9456.434915
972.155570,133.998066,114.855485,-9418.149754
972.156197,95.712904,95.712904,-9399.007173
972.156824,76.570323,153.140646,-9418.149754
972.157452,133.998066,153.140646,-9456.434915
972.158079,38.285162,172.283227,-9418.149754
972.158707,133.998066,191.425808,-9399.007173
972.159334,38.285162,229.710970,-9418.149754
972.159961,76.570323,153.140646,-9418.149754
972.160589,0.000000,210.568389,-9360.722011
972.161216,95.712904,210.568389,-9418.149754
972.161843,133.998066,114.855485,-9437.292334
972.162471,38.285162,114.855485,-9418.149754
972.163098,57.427742,133.998066,-9360.722011
972.163725,76.570323,172.283227,-9418.149754
972.164353,95.712904,133.998066,-9418.149754
972.164980,133.998066,114.855485,-9456.434915
972.165607,114.855485,191.425808,-9418.149754
972.166235,76.570323,114.855485,-9418.149754
972.166862,114.855485,133.998066,-9360.722011
972.167489,133.998066,114.855485,-9418.149754
972.168117,57.427742,95.712904,-9399.007173
972.168744,76.570323,114.855485,-9418.149754
972.169372,95.712904,95.712904,-9475.577496
972.169999,133.998066,114.855485,-9418.149754
972.170626,76.570323,114.855485,-9437.292334
972.171254,38.285162,114.855485,-9437.292334
972.171881,95.712904,172.283227,-9437.292334
972.172508,76.570323,114.855485,-9418.149754
972.173136,76.570323,153.140646,-9418.149754
972.173763,76.570323,153.140646,-9418.149754
972.174390,38.285162,114.855485,-9418.149754
972.175018,95.712904,95.712904,-9399.007173
972.175645,57.427742,133.998066,-9360.722011
972.176272,133.998066,114.855485,-9418.149754
972.176900,76.570323,153.140646,-9437.292334
972.177527,76.570323,114.855485,-9418.149754
972.178154,38.285162,114.855485,-9437.292334
972.178782,95.712904,114.855485,-9418.149754
972.179409,133.998066,153.140646,-9418.149754
972.180037,133.998066,114.855485,-9418.149754
972.180664,95.712904,133.998066,-9360.722011
972.181291,114.855485,133.998066,-9360.722011
972.181919,133.998066,114.855485,-9418.149754
972.182546,133.998066,153.140646,-9418.149754
972.183173,38.285162,114.855485,-9418.149754
972.183801,133.998066,114.855485,-9418.149754
972.184428,76.570323,172.283227,-9418.149754
972.185055,95.712904,153.140646,-9360.722011
972.185683,95.712904,172.283227,-9418.149754
972.186310,133.998066,114.855485,-9418.149754
972.186937,114.855485,191.425808,-9360.722011
972.187565,133.998066,114.855485,-9418.149754
972.188192,133.998066,133.998066,-9399.007173
972.188820,76.570323,114.855485,-9418.149754
972.189447,57.427742,95.712904,-9379.864592
972.190074,38.285162,114.855485,-9418.149754
972.190702,19.142581,114.855485,-9418.149754
972.191329,76.570323,191.425808,-9418.149754
972.191956,133.998066,114.855485,-9437.292334
972.192584,133.998066,172.283227,-9418.149754
972.193211,133.998066,114.855485,-9437.292334
972.193838,38.285162,114.855485,-9418.149754
972.194466,76.570323,114.855485,-9418.149754
972.195093,57.427742,172.283227,-9360.722011
972.195720,76.570323,172.283227,-9418.149754
972.196348,76.570323,114.855485,-9360.722011
972.196975,133.998066,114.855485,-9418.149754
972.197602,95.712904,133.998066,-9360.722011
972.198230,133.998066,210.568389,-9418.149754
972.198857,133.998066,172.283227,-9437.292334
972.199485,114.855485,133.998066,-9418.149754
972.200112,133.998066,114.855485,-9456.434915
972.200739,76.570323,114.855485,-9418.149754
972.201367,133.998066,114.855485,-9418.149754
972.201994,76.570323,210.568389,-9418.149754
972.202621,133.998066,229.710970,-9418.149754
972.203249,38.285162,114.855485,-9418.149754
972.203876,76.570323,114.855485,-9418.149754
972.204503,133.998066,114.855485,-9418.149754
972.205131,38.285162,153.140646,-9418.149754
972.205758,76.570323,172.283227,-9418.149754
972.206385,76.570323,210.568389,-9418.149754
972.207013,133.998066,210.568389,-9437.292334
972.207640,133.998066,114.855485,-9475.577496
972.208267,153.140646,191.425808,-9379.864592
972.208895,76.570323,114.855485,-9437.292334
972.209522,76.570323,153.140646,-9437.292334
972.210150,57.427742,95.712904,-9399.007173
972.210777,114.855485,133.998066,-9360.722011
972.211404,76.570323,114.855485,-9418.149754
972.212032,38.285162,172.283227,-9456.434915
972.212659,95.712904,114.855485,-9418.149754
972.213286,38.285162,114.855485,-9418.149754
972.213914,76.570323,153.140646,-9418.149754
972.214541,76.570323,210.568389,-9437.292334
972.215168,76.570323,172.283227,-9418.149754
972.215796,95.712904,133.998066,-9360.722011
972.216423,95.712904,210.568389,-9437.292334
972.217050,133.998066,153.140646,-9418.149754
972.217678,133.998066,114.855485,-9437.292334
972.218305,38.285162,114.855485,-9437.292334
972.218932,133.998066,172.283227,-9418.149754
972.219560,57.427742,95.712904,-9399.007173
972.220187,153.140646,133.998066,-9399.007173
972.220815,76.570323,114.855485,-9456.434915
972.221442,172.283227,114.855485,-9379.864592
972.222069,76.570323,114.855485,-9418.149754
972.222697,133.998066,172.283227,-9418.149754
972.223324,76.570323,114.855485,-9418.149754
972.223951,153.140646,210.568389,-9399.007173
972.224578,133.998066,153.140646,-9418.149754
972.225205,172.283227,114.855485,-9379.864592
972.225832,172.283227,95.712904,-9399.007173
972.226460,76.570323,114.855485,-9418.149754
972.227087,76.570323,114.855485,-9418.149754
972.227714,95.712904,114.855485,-9418.149754
972.228341,76.570323,153.140646,-9418.149754
972.228968,76.570323,172.283227,-9418.149754
972.229595,133.998066,114.855485,-9418.149754
972.230222,76.570323,114.855485,-9418.149754
972.230850,38.285162,114.855485,-9418.149754
972.231477,76.570323,133.998066,-9360.722011
972.232104,95.712904,95.712904,-9399.007173
972.232731,76.570323,153.140646,-9437.292334
972.233358,38.285162,114.855485,-9456.434915
972.233985,38.285162,114.855485,-9418.149754
972.234612,133.998066,114.855485,-9418.149754
972.235240,76.570323,114.855485,-9418.149754
972.235867,114.855485,133.998066,-9360.722011
972.236494,133.998066,114.855485,-9360.722011
972.237121,76.570323,114.855485,-9418.149754
972.237748,76.570323,114.855485,-9456.434915
972.238375,133.998066,114.855485,-9437.292334
972.239002,114.855485,76.570323,-9418.149754
972.239630,114.855485,95.712904,-9399.007173
972.240257,38.285162,114.855485,-9418.149754
972.240884,76.570323,114.855485,-9418.149754
972.241511,133.998066,191.425808,-9399.007173
972.242138,153.140646,133.998066,-9399.007173
972.242765,133.998066,210.568389,-9418.149754
972.243393,38.285162,172.283227,-9456.434915
972.244020,76.570323,210.568389,-9418.149754
972.244647,76.570323,114.855485,-9418.149754
972.245274,114.855485,133.998066,-9360.722011
972.245901,172.283227,114.855485,-9379.864592
972.246528,133.998066,114.855485,-9418.149754
972.247155,133.998066,114.855485,-9418.149754
972.247783,76.570323,114.855485,-9418.149754
972.248410,114.855485,95.712904,-9399.007173
972.249037,133.998066,114.855485,-9437.292334
972.249664,95.712904,114.855485,-9399.007173
972.250291,95.712904,114.855485,-9418.149754
972.250918,76.570323,114.855485,-9360.722011
972.251545,38.285162,114.855485,-9418.149754
972.252173,95.712904,114.855485,-9418.149754
972.252800,133.998066,114.855485,-9418.149754
972.253427,114.855485,95.712904,-9456.434915
972.254054,76.570323,114.855485,-9437.292334
972.254681,95.712904,210.568389,-9418.149754
972.255308,76.570323,153.140646,-9418.149754
972.255936,133.998066,191.425808,-9399.007173
972.256563,95.712904,95.712904,-9399.007173
972.257190,114.855485,133.998066,-9360.722011
972.257817,95.712904,114.855485,-9418.149754
972.258444,76.570323,153.140646,-9437.292334
972.259071,133.998066,172.283227,-9418.149754
972.259698,153.140646,191.425808,-9399.007173
972.260326,76.570323,95.712904,-9456.434915
972.260953,133.998066,133.998066,-9399.007173
972.261580,76.570323,172.283227,-9418.149754
972.262207,76.570323,114.855485,-9418.149754
972.262834,133.998066,172.283227,-9418.149754
972.263461,95.712904,133.998066,-9360.722011
972.264088,76.570323,114.855485,-9418.149754
972.264716,172.283227,95.712904,-9399.007173
972.265343,114.855485,95.712904,-9456.434915
972.265970,38.285162,114.855485,-9360.722011
972.266597,38.285162,114.855485,-9418.149754
972.267224,95.712904,114.855485,-9418.149754
972.267851,95.712904,172.283227,-9360.722011
972.268478,57.427742,95.712904,-9399.007173
972.269106,114.855485,95.712904,-9399.007173
972.269733,95.712904,95.712904,-9399.007173
972.270360,19.142581,153.140646,-9399.007173
972.270987,76.570323,172.283227,-9437.292334
972.271614,76.570323,114.855485,-9418.149754
972.272241,133.998066,133.998066,-9399.007173
972.272869,133.998066,114.855485,-9437.292334
972.273496,38.285162,114.855485,-9418.149754
972.274123,153.140646,172.283227,-9399.007173
972.274750,133.998066,114.855485,-9418.149754
972.275377,114.855485,95.712904,-9399.007173
972.276004,38.285162,153.140646,-9360.722011
972.276631,38.285162,153.140646,-9418.149754
972.277259,76.570323,114.855485,-9418.149754
972.277886,57.427742,95.712904,-9437.292334
972.278513,133.998066,172.283227,-9418.149754
972.279140,133.998066,114.855485,-9418.149754
972.279767,95.712904,114.855485,-9399.007173
972.280394,95.712904,210.568389,-9360.722011
972.281021,114.855485,172.283227,-9360.722011
972.281649,133.998066,133.998066,-9399.007173
972.282276,76.570323,153.140646,-9418.149754
972.282903,76.570323,229.710970,-9418.149754
972.283530,133.998066,114.855485,-9418.149754
972.284157,133.998066,114.855485,-9418.149754
972.284784,153.140646,191.425808,-9418.149754
972.285412,133.998066,210.568389,-9418.149754
972.286039,95.712904,114.855485,-9437.292334
972.286666,133.998066,114.855485,-9418.149754
972.287293,76.570323,114.855485,-9418.149754
972.287920,38.285162,114.855485,-9456.434915
972.288547,153.140646,133.998066,-9399.007173
972.289174,114.855485,133.998066,-9360.722011
972.289802,133.998066,114.855485,-9418.149754
972.290429,153.140646,153.140646,-9399.007173
972.291056,133.998066,114.855485,-9456.434915
972.291683,133.998066,114.855485,-9418.149754
972.292310,114.855485,95.712904,-9399.007173
972.292937,153.140646,133.998066,-9399.007173
972.293564,76.570323,210.568389,-9418.149754
972.294192,114.855485,95.712904,-9399.007173
972.294819,76.570323,210.568389,-9494.720077
972.295446,133.998066,153.140646,-9418.149754
972.296073,133.998066,114.855485,-9418.149754
972.296700,114.855485,95.712904,-9399.007173
972.297327,38.285162,114.855485,-9418.149754
972.297954,114.855485,153.140646,-9360.722011
972.298582,114.855485,153.140646,-9360.722011
972.299209,114.855485,95.712904,-9399.007173
972.299836,153.140646,153.140646,-9399.007173
972.300463,153.140646,133.998066,-9399.007173
972.301090,172.283227,114.855485,-9379.864592
972.301717,95.712904,114.855485,-9418.149754
972.302345,95.712904,133.998066,-9360.722011
972.302972,114.855485,172.283227,-9379.864592
972.303599,76.570323,172.283227,-9418.149754
972.304226,95.712904,153.140646,-9418.149754
972.304853,95.712904,153.140646,-9360.722011
972.305480,38.285162,114.855485,-9418.149754
972.306107,38.285162,153.140646,-9418.149754
972.306735,38.285162,114.855485,-9418.149754
972.307362,76.570323,153.140646,-9418.149754
972.307989,133.998066,172.283227,-9418.149754
972.308616,133.998066,114.855485,-9418.149754
972.309243,153.140646,133.998066,-9399.007173
972.309870,133.998066,172.283227,-9399.007173
972.310497,76.570323,95.712904,-9418.149754
972.311125,114.855485,95.712904,-9399.007173
972.311752,76.570323,114.855485,-9418.149754
972.312379,133.998066,172.283227,-9437.292334
972.313006,133.998066,114.855485,-9418.149754
972.313633,76.570323,114.855485,-9456.434915
972.314260,76.570323,172.283227,-9418.149754
972.314887,76.570323,114.855485,-9418.149754
972.315515,133.998066,153.140646,-9456.434915
972.316142,153.140646,133.998066,-9399.007173
972.316769,133.998066,114.855485,-9418.149754
972.317396,133.998066,114.855485,-9418.149754
972.318023,76.570323,153.140646,-9360.722011
972.318650,114.855485,191.425808,-9379.864592
972.319278,133.998066,114.855485,-9418.149754
972.319905,133.998066,114.855485,-9437.292334
972.320532,76.570323,114.855485,-9418.149754
972.321159,76.570323,114.855485,-9494.720077
972.321786,76.570323,114.855485,-9418.149754
972.322413,133.998066,114.855485,-9418.149754
972.323040,191.425808,76.570323,-9418.149754
972.323668,114.855485,95.712904,-9399.007173
972.324296,76.570323,191.425808,-9418.149754
972.324924,114.855485,172.283227,-9360.722011
972.325552,133.998066,172.283227,-9475.577496
972.326179,133.998066,153.140646,-9418.149754
972.326807,76.570323,114.855485,-9418.149754
972.327435,76.570323,114.855485,-9418.149754
972.328063,153.140646,114.855485,-9418.149754
972.328691,95.712904,133.998066,-9360.722011
972.329318,153.140646,133.998066,-9399.007173
972.329946,133.998066,114.855485,-9418.149754
972.330574,133.998066,114.855485,-9360.722011
972.331202,95.712904,153.140646,-9360.722011
972.331830,133.998066,153.140646,-9418.149754
972.332457,76.570323,172.283227,-9418.149754
972.333085,95.712904,133.998066,-9360.722011
972.333713,76.570323,114.855485,-9418.149754
972.334341,38.285162,153.140646,-9418.149754
972.334969,133.998066,76.570323,-9379.864592
972.335596,76.570323,153.140646,-9418.149754
972.336224,38.285162,114.855485,-9456.434915
972.336852,38.285162,114.855485,-9418.149754
972.337480,76.570323,114.855485,-9418.149754
972.338108,76.570323,153.140646,-9360.722011
972.338736,38.285162,172.283227,-9418.149754
972.339363,38.285162,153.140646,-9494.720077
972.339991,133.998066,114.855485,-9418.149754
972.340619,133.998066,172.283227,-9418.149754
972.341247,38.285162,172.283227,-9437.292334
972.341875,133.998066,153.140646,-9456.434915
972.342502,114.855485,133.998066,-9360.722011
972.343130,76.570323,153.140646,-9418.149754
972.343758,95.712904,95.712904,-9399.007173
972.344386,133.998066,133.998066,-9399.007173
972.345014,57.427742,114.855485,-9418.149754
972.345641,95.712904,114.855485,-9418.149754
972.346269,114.855485,95.712904,-9399.007173
972.346897,76.570323,114.855485,-9418.149754
972.347525,172.283227,248.853550,-9418.149754
972.348153,133.998066,172.283227,-9418.149754
972.348780,133.998066,114.855485,-9418.149754
972.349408,133.998066,114.855485,-9418.149754
972.350036,133.998066,191.425808,-9418.149754
972.350664,114.855485,133.998066,-9418.149754
972.351292,76.570323,210.568389,-9437.292334
972.351919,76.570323,95.712904,-9399.007173
972.352547,133.998066,114.855485,-9418.149754
972.353175,114.855485,95.712904,-9494.720077
972.353803,95.712904,153.140646,-9437.292334
972.354431,76.570323,114.855485,-9456.434915
972.355058,133.998066,114.855485,-9418.149754
972.355686,76.570323,172.283227,-9418.149754
972.356314,133.998066,114.855485,-9437.292334
972.356942,76.570323,114.855485,-9418.149754
972.357570,114.855485,153.140646,-9379.864592
972.358197,38.285162,172.283227,-9418.149754
972.358825,76.570323,114.855485,-9418.149754
972.359453,76.570323,114.855485,-9437.292334
972.360081,172.283227,172.283227,-9379.864592
972.360709,57.427742,95.712904,-9456.434915
972.361336,153.140646,133.998066,-9399.007173
972.361964,95.712904,172.283227,-9360.722011
972.362592,133.998066,114.855485,-9418.149754
972.363220,133.998066,114.855485,-9418.149754
972.363848,76.570323,114.855485,-9418.149754
972.364475,76.570323,114.855485,-9418.149754
972.365103,95.712904,114.855485,-9418.149754
972.365731,76.570323,114.855485,-9418.149754
972.366359,133.998066,153.140646,-9456.434915
972.366987,133.998066,114.855485,-9418.149754
972.367614,133.998066,114.855485,-9418.149754
972.368242,76.570323,210.568389,-9418.149754
972.368870,76.570323,114.855485,-9418.149754
972.369498,95.712904,248.853550,-9360.722011
972.370126,133.998066,133.998066,-9399.007173
972.370753,133.998066,210.568389,-9418.149754
972.371381,133.998066,133.998066,-9399.007173
972.372009,133.998066,153.140646,-9418.149754
972.372637,57.427742,114.855485,-9437.292334
972.373265,133.998066,114.855485,-9418.149754
972.373892,76.570323,191.425808,-9418.149754
972.374520,76.570323,114.855485,-9399.007173
972.375148,153.140646,133.998066,-9379.864592
972.375776,38.285162,114.855485,-9418.149754
972.376404,172.283227,95.712904,-9399.007173
972.377031,76.570323,114.855485,-9418.149754
972.377659,133.998066,76.570323,-9379.864592
972.378287,76.570323,76.570323,-9379.864592
972.378915,153.140646,172.283227,-9456.434915
972.379543,57.427742,95.712904,-9399.007173
972.380170,153.140646,248.853550,-9399.007173
972.380798,76.570323,76.570323,-9322.436850
972.381426,172.283227,153.140646,-9379.864592
972.382054,95.712904,95.712904,-9399.007173
972.382682,153.140646,114.855485,-9437.292334
972.383310,133.998066,172.283227,-9437.292334
972.383937,133.998066,172.283227,-9418.149754
972.384565,76.570323,114.855485,-9418.149754
972.385193,76.570323,114.855485,-9418.149754
972.385821,38.285162,76.570323,-9379.864592
972.386449,76.570323,172.283227,-9418.149754
972.387076,38.285162,114.855485,-9437.292334
972.387704,76.570323,210.568389,-9437.292334
972.388332,38.285162,191.425808,-9418.149754
972.388960,133.998066,172.283227,-9418.149754
972.389588,76.570323,153.140646,-9418.149754
972.390215,38.285162,153.140646,-9418.149754
972.390843,153.140646,191.425808,-9399.007173
972.391471,133.998066,210.568389,-9456.434915
972.392099,133.998066,153.140646,-9418.149754
972.392727,76.570323,153.140646,-9418.149754
972.393354,133.998066,114.855485,-9418.149754
972.393982,133.998066,114.855485,-9475.577496
972.394610,133.998066,133.998066,-9494.720077
972.395238,0.000000,95.712904,-9399.007173
972.395866,76.570323,210.568389,-9418.149754
972.396493,133.998066,114.855485,-9418.149754
972.397121,57.427742,133.998066,-9360.722011
972.397749,57.427742,133.998066,-9360.722011
972.398377,114.855485,153.140646,-9379.864592
972.399005,114.855485,172.283227,-9360.722011
972.399632,133.998066,172.283227,-9418.149754
972.400260,76.570323,114.855485,-9456.434915
972.400888,95.712904,114.855485,-9418.149754
972.401516,76.570323,114.855485,-9418.149754
972.402144,95.712904,133.998066,-9360.722011
972.402771,76.570323,114.855485,-9418.149754
972.403399,133.998066,172.283227,-9418.149754
972.404027,76.570323,114.855485,-9418.149754
972.404655,0.000000,133.998066,-9360.722011
972.405283,95.712904,114.855485,-9418.149754
972.405910,76.570323,114.855485,-9418.149754
972.406538,95.712904,133.998066,-9360.722011
972.407166,76.570323,114.855485,-9418.149754
972.407794,172.283227,76.570323,-9418.149754
972.408422,95.712904,133.998066,-9360.722011
972.409049,133.998066,114.855485,-9437.292334
972.409677,95.712904,95.712904,-9494.720077
972.410305,133.998066,114.855485,-9418.149754
972.410933,76.570323,114.855485,-9418.149754
972.411561,76.570323,114.855485,-9418.149754
972.412188,76.570323,210.568389,-9418.149754
972.412816,76.570323,114.855485,-9418.149754
972.413444,133.998066,172.283227,-9418.149754
972.414072,76.570323,172.283227,-9418.149754
972.414700,95.712904,95.712904,-9437.292334
972.415327,95.712904,114.855485,-9360.722011
972.415955,38.285162,114.855485,-9418.149754
972.416583,133.998066,114.855485,-9418.149754
972.417211,153.140646,133.998066,-9399.007173
972.417839,153.140646,133.998066,-9437.292334
972.418466,76.570323,114.855485,-9418.149754
972.419094,133.998066,153.140646,-9399.007173
972.419722,38.285162,114.855485,-9418.149754
972.420350,76.570323,172.283227,-9418.149754
972.420978,95.712904,114.855485,-9418.149754
972.421605,133.998066,114.855485,-9418.149754
972.422233,95.712904,153.140646,-9360.722011
972.422861,38.285162,191.425808,-9418.149754
972.423489,76.570323,210.568389,-9418.149754
972.424116,133.998066,210.568389,-9418.149754
972.424744,57.427742,95.712904,-9399.007173
972.425371,76.570323,172.283227,-9437.292334
972.425998,133.998066,114.855485,-9418.149754
972.426625,133.998066,114.855485,-9418.149754
972.427253,133.998066,153.140646,-9399.007173
972.427880,114.855485,133.998066,-9360.722011
972.428507,133.998066,172.283227,-9418.149754
972.429135,76.570323,114.855485,-9418.149754
972.429762,153.140646,114.855485,-9418.149754
972.430389,133.998066,153.140646,-9399.007173
972.431017,76.570323,153.140646,-9418.149754
972.431644,95.712904,114.855485,-9418.149754
972.432271,153.140646,153.140646,-9418.149754
972.432899,38.285162,114.855485,-9418.149754
972.433526,76.570323,114.855485,-9418.149754
972.434153,76.570323,114.855485,-9437.292334
972.434781,133.998066,172.283227,-9399.007173
972.435408,76.570323,114.855485,-9437.292334
972.436035,38.285162,210.568389,-9418.149754
972.436663,76.570323,114.855485,-9418.149754
972.437290,133.998066,114.855485,-9456.434915
972.437917,38.285162,114.855485,-9456.434915
972.438544,133.998066,153.140646,-9418.149754
972.439172,95.712904,191.425808,-9360.722011
972.439799,38.285162,114.855485,-9418.149754
972.440426,133.998066,210.568389,-9418.149754
972.441054,38.285162,133.998066,-9360.722011
972.441681,133.998066,114.855485,-9418.149754
972.442308,153.140646,172.283227,-9399.007173
972.442936,95.712904,114.855485,-9418.149754
972.443563,153.140646,133.998066,-9399.007173
972.444190,76.570323,114.855485,-9418.149754
972.444818,95.712904,95.712904,-9399.007173
972.445445,76.570323,172.283227,-9360.722011
972.446072,114.855485,133.998066,-9360.722011
972.446700,38.285162,114.855485,-9418.149754
972.447327,133.998066,114.855485,-9475.577496
972.447954,114.855485,76.570323,-9418.149754
972.448581,133.998066,114.855485,-9418.149754
972.449209,95.712904,133.998066,-9284.151688
972.449836,76.570323,114.855485,-9437.292334
972.450463,95.712904,95.712904,-9418.149754
972.451091,133.998066,114.855485,-9418.149754
972.451718,95.712904,153.140646,-9360.722011
972.452345,133.998066,114.855485,-9418.149754
972.452973,114.855485,95.712904,-9399.007173
972.453600,133.998066,172.283227,-9360.722011
972.454227,95.712904,114.855485,-9418.149754
972.454855,76.570323,153.140646,-9437.292334
972.455482,95.712904,133.998066,-9360.722011
972.456109,38.285162,191.425808,-9418.149754
972.456737,133.998066,114.855485,-9418.149754
972.457364,153.140646,153.140646,-9399.007173
972.457991,76.570323,114.855485,-9360.722011
972.458619,95.712904,153.140646,-9360.722011
972.459246,76.570323,153.140646,-9418.149754
972.459873,133.998066,114.855485,-9418.149754
972.460500,95.712904,172.283227,-9360.722011
972.461128,76.570323,114.855485,-9418.149754
972.461755,76.570323,114.855485,-9418.149754
972.462382,76.570323,153.140646,-9360.722011
972.463010,133.998066,95.712904,-9418.149754
972.463637,76.570323,114.855485,-9456.434915
972.464264,95.712904,191.425808,-9322.436850
972.464892,57.427742,153.140646,-9437.292334
972.465519,76.570323,114.855485,-9418.149754
972.466146,133.998066,153.140646,-9360.722011
972.466774,114.855485,76.570323,-9418.149754
972.467401,76.570323,114.855485,-9418.149754
972.468028,19.142581,172.283227,-9418.149754
972.468656,57.427742,95.712904,-9399.007173
972.469283,38.285162,114.855485,-9418.149754
972.469910,76.570323,114.855485,-9418.149754
972.470538,95.712904,95.712904,-9399.007173
972.471165,95.712904,114.855485,-9418.149754
972.471792,76.570323,210.568389,-9456.434915
972.472419,133.998066,172.283227,-9418.149754
972.473047,76.570323,114.855485,-9456.434915
972.473674,76.570323,172.283227,-9437.292334
972.474301,95.712904,95.712904,-9399.007173
972.474929,133.998066,114.855485,-9418.149754
972.475556,114.855485,114.855485,-9399.007173
972.476183,133.998066,172.283227,-9418.149754
972.476811,133.998066,210.568389,-9360.722011
972.477438,76.570323,114.855485,-9418.149754
972.478065,57.427742,172.283227,-9360.722011
972.478693,76.570323,172.283227,-9418.149754
972.479320,57.427742,95.712904,-9399.007173
972.479947,133.998066,114.855485,-9360.722011
972.480575,133.998066,114.855485,-9360.722011
972.481202,76.570323,76.570323,-9379.864592
972.481829,133.998066,172.283227,-9418.149754
972.482456,38.285162,153.140646,-9418.149754
972.483084,76.570323,210.568389,-9418.149754
972.483711,38.285162,114.855485,-9418.149754
972.484338,76.570323,114.855485,-9418.149754
972.484966,76.570323,114.855485,-9418.149754
972.485593,38.285162,191.425808,-9418.149754
972.486220,133.998066,172.283227,-9456.434915
972.486848,76.570323,114.855485,-9437.292334
972.487475,133.998066,114.855485,-9418.149754
972.488102,133.998066,133.998066,-9399.007173
972.488730,95.712904,210.568389,-9456.434915
972.489357,133.998066,114.855485,-9418.149754
972.489984,95.712904,95.712904,-9399.007173
972.490612,76.570323,114.855485,-9418.149754
972.491239,76.570323,114.855485,-9437.292334
972.491866,76.570323,153.140646,-9437.292334
972.492494,153.140646,133.998066,-9456.434915
972.493121,95.712904,95.712904,-9399.007173
972.493748,57.427742,133.998066,-9360.722011
972.494375,38.285162,114.855485,-9418.149754
972.495003,76.570323,114.855485,-9418.149754
972.495630,95.712904,114.855485,-9418.149754
972.496257,38.285162,114.855485,-9437.292334
972.496885,57.427742,133.998066,-9360.722011
972.497512,38.285162,114.855485,-9437.292334
972.498139,95.712904,95.712904,-9399.007173
972.498767,153.140646,172.283227,-9399.007173
972.499394,153.140646,172.283227,-9399.007173
972.500021,133.998066,114.855485,-9418.149754
972.500649,133.998066,191.425808,-9399.007173
972.501276,133.998066,114.855485,-9418.149754
972.501903,76.570323,114.855485,-9418.149754
972.502531,114.855485,133.998066,-9360.722011
972.503158,133.998066,172.283227,-9418.149754
972.503785,95.712904,133.998066,-9360.722011
972.504413,38.285162,114.855485,-9418.149754
972.505040,133.998066,153.140646,-9399.007173
972.505667,153.140646,172.283227,-9437.292334
972.506294,95.712904,114.855485,-9437.292334
972.506922,95.712904,133.998066,-9360.722011
972.507549,57.427742,172.283227,-9418.149754
972.508176,114.855485,172.283227,-9418.149754
972.508804,133.998066,210.568389,-9418.149754
972.509431,76.570323,114.855485,-9418.149754
972.510058,95.712904,172.283227,-9360.722011
972.510686,76.570323,76.570323,-9379.864592
972.511313,76.570323,114.855485,-9437.292334
972.511940,76.570323,153.140646,-9418.149754
972.512568,153.140646,153.140646,-9399.007173
972.513195,76.570323,114.855485,-9418.149754
972.513822,95.712904,153.140646,-9360.722011
972.514450,38.285162,114.855485,-9418.149754
972.515077,76.570323,172.283227,-9418.149754
972.515704,133.998066,133.998066,-9456.434915
972.516331,95.712904,95.712904,-9399.007173
972.516959,114.855485,95.712904,-9399.007173
972.517586,153.140646,114.855485,-9418.149754
972.518213,114.855485,114.855485,-9379.864592
972.518841,114.855485,133.998066,-9360.722011
972.519468,153.140646,153.140646,-9494.720077
972.520095,95.712904,133.998066,-9360.722011
972.520723,172.283227,133.998066,-9360.722011
972.521350,133.998066,153.140646,-9418.149754
972.521977,133.998066,114.855485,-9437.292334
972.522605,76.570323,153.140646,-9418.149754
972.523232,76.570323,114.855485,-9418.149754
972.523859,153.140646,133.998066,-9399.007173
972.524487,133.998066,172.283227,-9418.149754
972.525114,133.998066,133.998066,-9399.007173
972.525741,133.998066,114.855485,-9418.149754
972.526368,114.855485,172.283227,-9360.722011
972.526996,133.998066,114.855485,-9418.149754
972.527623,76.570323,114.855485,-9418.149754
972.528250,38.285162,114.855485,-9418.149754
972.528877,133.998066,114.855485,-9418.149754
972.529505,76.570323,114.855485,-9418.149754
972.530132,76.570323,172.283227,-9418.149754
972.530759,133.998066,114.855485,-9418.149754
972.531386,133.998066,114.855485,-9456.434915
972.532014,38.285162,114.855485,-9418.149754
972.532641,133.998066,172.283227,-9418.149754
972.533268,95.712904,191.425808,-9360.722011
972.533895,133.998066,210.568389,-9456.434915
972.534523,133.998066,172.283227,-9418.149754
972.535150,76.570323,114.855485,-9418.149754
972.535777,38.285162,114.855485,-9418.149754
972.536405,133.998066,172.283227,-9418.149754
972.537032,114.855485,95.712904,-9399.007173
972.537659,133.998066,153.140646,-9418.149754
972.538286,133.998066,153.140646,-9399.007173
972.538914,76.570323,114.855485,-9418.149754
972.539541,133.998066,133.998066,-9399.007173
972.540168,153.140646,95.712904,-9360.722011
972.540795,133.998066,133.998066,-9437.292334
972.541423,76.570323,172.283227,-9437.292334
972.542050,114.855485,153.140646,-9341.579430
972.542677,76.570323,153.140646,-9360.722011
972.543304,38.285162,172.283227,-9418.149754
972.543932,114.855485,133.998066,-9360.722011
972.544559,76.570323,114.855485,-9418.149754
972.545186,95.712904,133.998066,-9360.722011
972.545814,95.712904,153.140646,-9437.292334
972.546441,95.712904,172.283227,-9418.149754
972.547068,76.570323,172.283227,-9437.292334
972.547695,133.998066,133.998066,-9399.007173
972.548323,76.570323,114.855485,-9418.149754
972.548950,76.570323,133.998066,-9360.722011
972.549577,95.712904,133.998066,-9360.722011
972.550204,76.570323,114.855485,-9418.149754
972.550832,95.712904,172.283227,-9418.149754
972.551459,133.998066,153.140646,-9399.007173
972.552086,76.570323,114.855485,-9418.149754
972.552713,95.712904,133.998066,-9360.722011
972.553341,133.998066,114.855485,-9418.149754
972.553968,38.285162,114.855485,-9418.149754
972.554595,76.570323,153.140646,-9437.292334
972.555222,133.998066,153.140646,-9418.149754
972.555850,38.285162,114.855485,-9418.149754
972.556477,95.712904,114.855485,-9418.149754
972.557104,133.998066,114.855485,-9418.149754
972.557732,133.998066,133.998066,-9399.007173
972.558359,76.570323,172.283227,-9418.149754
972.558986,133.998066,153.140646,-9437.292334
972.559613,38.285162,114.855485,-9456.434915
972.560241,38.285162,210.568389,-9418.149754
972.560868,76.570323,172.283227,-9418.149754
972.561495,133.998066,153.140646,-9418.149754
972.562122,95.712904,153.140646,-9360.722011
972.562750,57.427742,210.568389,-9360.722011
972.563377,38.285162,114.855485,-9437.292334
972.564004,133.998066,172.283227,-9437.292334
972.564631,76.570323,114.855485,-9418.149754
972.565259,76.570323,210.568389,-9418.149754
972.565886,76.570323,114.855485,-9437.292334
972.566513,133.998066,191.425808,-9418.149754
972.567140,133.998066,172.283227,-9418.149754
972.567768,38.285162,191.425808,-9437.292334
972.568395,76.570323,172.283227,-9418.149754
972.569022,133.998066,172.283227,-9418.149754
972.569650,38.285162,114.855485,-9437.292334
972.570277,133.998066,114.855485,-9418.149754
972.570904,38.285162,153.140646,-9418.149754
972.571531,133.998066,191.425808,-9437.292334
972.572159,38.285162,153.140646,-9437.292334
972.572786,95.712904,95.712904,-9399.007173
972.573413,38.285162,114.855485,-9418.149754
972.574040,133.998066,76.570323,-9379.864592
972.574668,133.998066,172.283227,-9418.149754
972.575295,133.998066,114.855485,-9437.292334
972.575922,76.570323,210.568389,-9418.149754
972.576549,114.855485,133.998066,-9418.149754
972.577177,76.570323,114.855485,-9437.292334
972.577804,133.998066,153.140646,-9418.149754
972.578431,153.140646,133.998066,-9399.007173
972.579058,133.998066,133.998066,-9399.007173
972.579686,38.285162,172.283227,-9418.149754
972.580313,76.570323,114.855485,-9418.149754
972.580940,76.570323,153.140646,-9437.292334
972.581568,76.570323,114.855485,-9437.292334
972.582195,76.570323,114.855485,-9418.149754
972.582822,76.570323,153.140646,-9418.149754
972.583449,133.998066,114.855485,-9418.149754
972.584077,38.285162,153.140646,-9418.149754
972.584704,38.285162,114.855485,-9418.149754
972.585331,133.998066,153.140646,-9418.149754
972.585958,133.998066,153.140646,-9418.149754
972.586586,114.855485,95.712904,-9399.007173
972.587213,153.140646,133.998066,-9399.007173
972.587840,95.712904,133.998066,-9360.722011
972.588467,95.712904,114.855485,-9418.149754
972.589095,76.570323,114.855485,-9418.149754
972.589722,95.712904,95.712904,-9399.007173
972.590349,38.285162,153.140646,-9418.149754
972.590977,38.285162,210.568389,-9418.149754
972.591604,95.712904,114.855485,-9418.149754
972.592231,76.570323,153.140646,-9418.149754
972.592858,38.285162,153.140646,-9418.149754
972.593486,133.998066,210.568389,-9437.292334
972.594113,133.998066,153.140646,-9437.292334
972.594740,133.998066,133.998066,-9399.007173
972.595367,153.140646,95.712904,-9341.579430
972.595995,95.712904,153.140646,-9360.722011
972.596622,133.998066,172.283227,-9456.434915
972.597249,133.998066,95.712904,-9418.149754
972.597876,95.712904,114.855485,-9399.007173
972.598504,76.570323,114.855485,-9418.149754
972.599131,57.427742,133.998066,-9360.722011
972.599758,95.712904,153.140646,-9418.149754
972.600385,76.570323,114.855485,-9437.292334
972.601013,76.570323,114.855485,-9456.434915
972.601640,133.998066,114.855485,-9418.149754
972.602267,133.998066,191.425808,-9399.007173
972.602895,76.570323,210.568389,-9418.149754
972.603522,57.427742,172.283227,-9360.722011
972.604149,76.570323,172.283227,-9418.149754
972.604776,133.998066,114.855485,-9418.149754
972.605404,76.570323,114.855485,-9360.722011
972.606031,76.570323,114.855485,-9418.149754
972.606658,95.712904,133.998066,-9360.722011
972.607285,95.712904,114.855485,-9418.149754
972.607913,133.998066,153.140646,-9456.434915
972.608540,95.712904,95.712904,-9399.007173
972.609167,133.998066,114.855485,-9418.149754
972.609794,133.998066,153.140646,-9418.149754
972.610422,133.998066,114.855485,-9418.149754
972.611049,76.570323,114.855485,-9418.149754
972.611676,76.570323,153.140646,-9360.722011
972.612303,0.000000,153.140646,-9379.864592
972.612931,114.855485,172.283227,-9360.722011
972.613558,57.427742,153.140646,-9360.722011
972.614185,76.570323,210.568389,-9418.149754
972.614813,133.998066,114.855485,-9418.149754
972.615440,38.285162,133.998066,-9360.722011
972.616067,76.570323,95.712904,-9399.007173
972.616694,76.570323,172.283227,-9418.149754
972.617322,76.570323,153.140646,-9418.149754
972.617949,19.142581,114.855485,-9418.149754
972.618576,38.285162,114.855485,-9418.149754
972.619203,38.285162,172.283227,-9418.149754
972.619831,114.855485,133.998066,-9360.722011
972.620458,95.712904,153.140646,-9360.722011
972.621085,57.427742,210.568389,-9418.149754
972.621712,76.570323,114.855485,-9437.292334
972.622340,57.427742,133.998066,-9360.722011
972.622967,133.998066,114.855485,-9418.149754
972.623594,133.998066,133.998066,-9399.007173
972.624221,133.998066,153.140646,-9418.149754
972.624849,38.285162,114.855485,-9418.149754
972.625476,95.712904,114.855485,-9418.149754
972.626104,133.998066,210.568389,-9418.149754
972.626731,133.998066,114.855485,-9418.149754
972.627358,133.998066,210.568389,-9418.149754
972.627986,76.570323,153.140646,-9418.149754
972.628613,153.140646,133.998066,-9399.007173
972.629241,76.570323,114.855485,-9418.149754
972.629868,114.855485,133.998066,-9360.722011
972.630495,76.570323,229.710970,-9418.149754
972.631123,57.427742,133.998066,-9360.722011
972.631750,38.285162,153.140646,-9418.149754
972.632378,38.285162,153.140646,-9360.722011
972.633005,95.712904,172.283227,-9360.722011
972.633632,114.855485,133.998066,-9360.722011
972.634260,95.712904,172.283227,-9360.722011
972.634887,76.570323,114.855485,-9418.149754
972.635514,95.712904,133.998066,-9360.722011
972.636142,114.855485,153.140646,-9418.149754
972.636769,76.570323,114.855485,-9437.292334
972.637397,133.998066,114.855485,-9475.577496
972.638024,133.998066,172.283227,-9418.149754
972.638651,133.998066,153.140646,-9418.149754
972.639279,76.570323,153.140646,-9418.149754
972.639906,76.570323,229.710970,-9418.149754
972.640534,38.285162,229.710970,-9437.292334
972.641161,76.570323,210.568389,-9418.149754
972.641788,38.285162,153.140646,-9418.149754
972.642416,76.570323,114.855485,-9418.149754
972.643043,133.998066,114.855485,-9418.149754
972.643671,76.570323,153.140646,-9418.149754
972.644298,76.570323,172.283227,-9418.149754
972.644925,133.998066,153.140646,-9418.149754
972.645553,76.570323,153.140646,-9418.149754
972.646180,133.998066,114.855485,-9418.149754
972.646807,38.285162,172.283227,-9418.149754
972.647435,76.570323,114.855485,-9418.149754
972.648062,114.855485,153.140646,-9418.149754
972.648690,38.285162,153.140646,-9418.149754
972.649317,95.712904,153.140646,-9360.722011
972.649944,95.712904,210.568389,-9418.149754
972.650572,57.427742,133.998066,-9418.149754
972.651199,133.998066,114.855485,-9533.005238
972.651827,76.570323,76.570323,-9379.864592
972.652454,95.712904,95.712904,-9399.007173
972.653081,95.712904,133.998066,-9360.722011
972.653709,76.570323,172.283227,-9418.149754
972.654336,76.570323,153.140646,-9418.149754
972.654964,133.998066,210.568389,-9418.149754
972.655591,114.855485,153.140646,-9399.007173
972.656218,114.855485,95.712904,-9437.292334
972.656846,133.998066,114.855485,-9418.149754
972.657473,76.570323,114.855485,-9418.149754
972.658100,95.712904,133.998066,-9360.722011
972.658728,76.570323,153.140646,-9418.149754
972.659355,114.855485,133.998066,-9341.579430
972.659983,38.285162,114.855485,-9418.149754
972.660610,38.285162,210.568389,-9418.149754
972.661237,95.712904,114.855485,-9418.149754
972.661865,76.570323,153.140646,-9418.149754
972.662492,133.998066,133.998066,-9456.434915
972.663120,114.855485,133.998066,-9360.722011
972.663747,76.570323,229.710970,-9418.149754
972.664374,114.855485,172.283227,-9360.722011
972.665002,76.570323,172.283227,-9437.292334
972.665629,95.712904,133.998066,-9341.579430
972.666256,76.570323,114.855485,-9418.149754
972.666884,153.140646,191.425808,-9379.864592
972.667511,76.570323,153.140646,-9418.149754
972.668139,95.712904,133.998066,-9360.722011
972.668766,38.285162,153.140646,-9437.292334
972.669393,114.855485,133.998066,-9360.722011
972.670021,38.285162,114.855485,-9418.149754
972.670648,76.570323,114.855485,-9418.149754
972.671276,114.855485,153.140646,-9360.722011
972.671903,76.570323,172.283227,-9418.149754
972.672530,38.285162,191.425808,-9418.149754
972.673158,76.570323,210.568389,-9418.149754
972.673785,76.570323,172.283227,-9418.149754
972.674413,38.285162,133.998066,-9360.722011
972.675040,95.712904,133.998066,-9360.722011
972.675667,76.570323,114.855485,-9418.149754
972.676295,76.570323,153.140646,-9418.149754
972.676922,95.712904,172.283227,-9418.149754
972.677549,114.855485,133.998066,-9360.722011
972.678177,133.998066,153.140646,-9418.149754
972.678804,76.570323,153.140646,-9418.149754
972.679432,133.998066,172.283227,-9418.149754
972.680059,114.855485,191.425808,-9360.722011
972.680686,153.140646,172.283227,-9399.007173
972.681314,76.570323,210.568389,-9418.149754
972.681941,133.998066,153.140646,-9399.007173
972.682569,95.712904,153.140646,-9360.722011
972.683196,76.570323,114.855485,-9418.149754
972.683823,95.712904,133.998066,-9360.722011
972.684451,76.570323,95.712904,-9399.007173
972.685078,95.712904,95.712904,-9494.720077
972.685706,114.855485,133.998066,-9360.722011
972.686333,133.998066,153.140646,-9437.292334
972.686960,76.570323,172.283227,-9418.149754
972.687588,95.712904,172.283227,-9360.722011
972.688215,95.712904,114.855485,-9437.292334
972.688842,133.998066,114.855485,-9418.149754
972.689470,76.570323,114.855485,-9418.149754
972.690097,76.570323,172.283227,-9418.149754
972.690725,76.570323,114.855485,-9418.149754
972.691352,153.140646,153.140646,-9399.007173
972.691979,133.998066,76.570323,-9379.864592
972.692607,133.998066,114.855485,-9437.292334
972.693234,38.285162,114.855485,-9418.149754
972.693862,38.285162,114.855485,-9418.149754
972.694489,76.570323,114.855485,-9418.149754
972.695116,76.570323,114.855485,-9418.149754
972.695744,133.998066,153.140646,-9418.149754
972.696371,133.998066,172.283227,-9418.149754
972.696999,133.998066,210.568389,-9418.149754
972.697626,133.998066,210.568389,-9418.149754
972.698253,153.140646,133.998066,-9399.007173
972.698881,133.998066,172.283227,-9418.149754
972.699508,76.570323,153.140646,-9475.577496
972.700135,133.998066,114.855485,-9418.149754
972.700763,153.140646,210.568389,-9418.149754
972.701390,95.712904,133.998066,-9418.149754
972.702018,38.285162,114.855485,-9418.149754
972.702645,133.998066,114.855485,-9475.577496
972.703272,76.570323,114.855485,-9418.149754
972.703900,38.285162,172.283227,-9475.577496
972.704527,95.712904,95.712904,-9399.007173
972.705155,133.998066,76.570323,-9379.864592
972.705782,133.998066,191.425808,-9418.149754
972.706409,133.998066,133.998066,-9494.720077
972.707037,76.570323,95.712904,-9437.292334
972.707664,153.140646,114.855485,-9418.149754
972.708291,95.712904,114.855485,-9418.149754
972.708919,133.998066,133.998066,-9399.007173
972.709546,133.998066,133.998066,-9399.007173
972.710174,133.998066,114.855485,-9418.149754
972.710801,76.570323,153.140646,-9418.149754
972.711428,133.998066,172.283227,-9418.149754
972.712056,133.998066,114.855485,-9418.149754
972.712683,114.855485,153.140646,-9360.722011
972.713311,95.712904,172.283227,-9360.722011
972.713938,76.570323,114.855485,-9418.149754
972.714565,153.140646,133.998066,-9399.007173
972.715193,76.570323,114.855485,-9418.149754
972.715820,38.285162,153.140646,-9418.149754
972.716448,95.712904,172.283227,-9456.434915
972.717075,38.285162,114.855485,-9437.292334
972.717702,76.570323,114.855485,-9437.292334
972.718330,172.283227,133.998066,-9418.149754
972.718957,76.570323,114.855485,-9418.149754
972.719584,76.570323,114.855485,-9418.149754
972.720212,76.570323,153.140646,-9418.149754
972.720839,38.285162,153.140646,-9418.149754
972.721467,95.712904,133.998066,-9360.722011
972.722094,38.285162,114.855485,-9418.149754
972.722721,76.570323,76.570323,-9379.864592
972.723349,38.285162,114.855485,-9437.292334
972.723976,76.570323,114.855485,-9418.149754
972.724604,76.570323,114.855485,-9418.149754
972.725231,76.570323,114.855485,-9418.149754
972.725859,95.712904,95.712904,-9399.007173
972.726486,76.570323,114.855485,-9418.149754
972.727114,114.855485,172.283227,-9418.149754
972.727741,133.998066,114.855485,-9418.149754
972.728369,133.998066,153.140646,-9418.149754
972.728997,133.998066,114.855485,-9437.292334
972.729624,133.998066,153.140646,-9456.434915
972.730252,76.570323,172.283227,-9418.149754
972.730879,133.998066,114.855485,-9418.149754
972.731507,172.283227,191.425808,-9360.722011
972.732134,153.140646,114.855485,-9418.149754
972.732762,114.855485,133.998066,-9360.722011
972.733389,133.998066,153.140646,-9418.149754
972.734017,133.998066,172.283227,-9418.149754
972.734645,133.998066,191.425808,-9399.007173
972.735272,172.283227,153.140646,-9322.436850
972.735900,153.140646,95.712904,-9360.722011
972.736527,76.570323,114.855485,-9418.149754
972.737155,38.285162,114.855485,-9418.149754
972.737782,95.712904,114.855485,-9418.149754
972.738410,57.427742,172.283227,-9360.722011
972.739038,38.285162,133.998066,-9360.722011
972.739665,133.998066,172.283227,-9399.007173
972.740293,133.998066,133.998066,-9399.007173
972.740920,76.570323,172.283227,-9418.149754
972.741548,133.998066,210.568389,-9437.292334
972.742175,172.283227,153.140646,-9379.864592
972.742803,114.855485,133.998066,-9360.722011
972.743430,95.712904,153.140646,-9360.722011
972.744058,95.712904,114.855485,-9418.149754
972.744686,153.140646,153.140646,-9399.007173
972.745313,133.998066,172.283227,-9418.149754
972.745941,133.998066,114.855485,-9418.149754
972.746568,57.427742,114.855485,-9399.007173
972.747196,76.570323,172.283227,-9418.149754
972.747823,153.140646,133.998066,-9456.434915
972.748451,95.712904,114.855485,-9399.007173
972.749079,133.998066,114.855485,-9437.292334
972.749706,153.140646,133.998066,-9399.007173
972.750334,95.712904,153.140646,-9418.149754
972.750961,133.998066,172.283227,-9418.149754
972.751589,76.570323,114.855485,-9437.292334
972.752216,133.998066,210.568389,-9437.292334
972.752844,38.285162,172.283227,-9418.149754
972.753471,76.570323,153.140646,-9418.149754
972.754099,95.712904,95.712904,-9456.434915
972.754727,76.570323,153.140646,-9418.149754
972.755354,38.285162,114.855485,-9341.579430
972.755982,38.285162,114.855485,-9418.149754
972.756609,76.570323,114.855485,-9360.722011
972.757237,76.570323,114.855485,-9418.149754
972.757864,153.140646,153.140646,-9399.007173
972.758492,95.712904,172.283227,-9360.722011
972.759120,76.570323,153.140646,-9418.149754
972.759747,38.285162,210.568389,-9437.292334
972.760375,95.712904,153.140646,-9418.149754
972.761002,133.998066,172.283227,-9418.149754
972.761630,76.570323,153.140646,-9418.149754
972.762257,76.570323,153.140646,-9418.149754
972.762885,133.998066,153.140646,-9418.149754
972.763512,133.998066,114.855485,-9456.434915
972.764140,76.570323,114.855485,-9418.149754
972.764768,76.570323,172.283227,-9418.149754
972.765395,76.570323,114.855485,-9418.149754
972.766023,38.285162,114.855485,-9418.149754
972.766650,76.570323,210.568389,-9418.149754
972.767278,76.570323,153.140646,-9437.292334
972.767905,76.570323,172.283227,-9418.149754
972.768533,153.140646,153.140646,-9418.149754
972.769161,133.998066,133.998066,-9399.007173
972.769788,133.998066,153.140646,-9418.149754
972.770416,172.283227,76.570323,-9418.149754
972.771043,76.570323,114.855485,-9437.292334
972.771671,95.712904,76.570323,-9399.007173
972.772298,95.712904,153.140646,-9418.149754
972.772926,153.140646,210.568389,-9399.007173
972.773553,133.998066,133.998066,-9475.577496
972.774181,133.998066,114.855485,-9418.149754
972.774809,133.998066,114.855485,-9418.149754
972.775436,114.855485,172.283227,-9379.864592
972.776064,76.570323,153.140646,-9418.149754
972.776691,133.998066,114.855485,-9418.149754
972.777319,133.998066,210.568389,-9418.149754
972.777946,76.570323,114.855485,-9437.292334
972.778574,133.998066,114.855485,-9418.149754
972.779202,76.570323,114.855485,-9418.149754
972.779829,133.998066,114.855485,-9437.292334
972.780457,76.570323,172.283227,-9418.149754
972.781084,38.285162,114.855485,-9418.149754
972.781712,133.998066,210.568389,-9437.292334
972.782339,114.855485,114.855485,-9379.864592
972.782967,76.570323,153.140646,-9418.149754
972.783594,95.712904,133.998066,-9360.722011
972.784222,38.285162,114.855485,-9418.149754
972.784850,57.427742,95.712904,-9399.007173
972.785477,19.142581,114.855485,-9437.292334
972.786105,57.427742,95.712904,-9399.007173
972.786732,57.427742,114.855485,-9418.149754
972.787360,95.712904,114.855485,-9437.292334
972.787987,153.140646,133.998066,-9399.007173
972.788615,114.855485,133.998066,-9360.722011
972.789243,133.998066,210.568389,-9399.007173
972.789870,38.285162,172.283227,-9418.149754
972.790498,133.998066,172.283227,-9456.434915
972.791125,95.712904,114.855485,-9418.149754
972.791753,95.712904,133.998066,-9360.722011
972.792380,133.998066,114.855485,-9456.434915
972.793008,57.427742,95.712904,-9399.007173
972.793635,76.570323,114.855485,-9494.720077
972.794263,19.142581,114.855485,-9437.292334
972.794891,38.285162,114.855485,-9418.149754
972.795518,57.427742,95.712904,-9399.007173
972.796146,76.570323,114.855485,-9418.149754
972.796773,38.285162,114.855485,-9418.149754
972.797401,172.283227,114.855485,-9379.864592
972.798028,95.712904,114.855485,-9437.292334
972.798656,133.998066,191.425808,-9418.149754
972.799284,172.283227,172.283227,-9379.864592
972.799911,172.283227,114.855485,-9379.864592
972.800539,153.140646,172.283227,-9399.007173
972.801166,76.570323,210.568389,-9418.149754
972.801794,153.140646,153.140646,-9418.149754
972.802421,114.855485,191.425808,-9360.722011
972.803049,95.712904,153.140646,-9360.722011
972.803676,133.998066,114.855485,-9418.149754
972.804304,133.998066,153.140646,-9418.149754
972.804932,95.712904,133.998066,-9303.294269
972.805559,133.998066,114.855485,-9418.149754
972.806187,76.570323,114.855485,-9418.149754
972.806814,133.998066,114.855485,-9418.149754
972.807442,76.570323,114.855485,-9418.149754
972.808069,38.285162,114.855485,-9418.149754
972.808697,76.570323,114.855485,-9456.434915
972.809325,114.855485,114.855485,-9399.007173
972.809952,76.570323,114.855485,-9418.149754
972.810580,114.855485,172.283227,-9360.722011
972.811207,38.285162,114.855485,-9418.149754
972.811835,76.570323,114.855485,-9418.149754
972.812462,95.712904,114.855485,-9418.149754
972.813090,95.712904,172.283227,-9360.722011
972.813717,133.998066,114.855485,-9437.292334
972.814345,76.570323,172.283227,-9456.434915
972.814973,153.140646,114.855485,-9418.149754
972.815600,133.998066,172.283227,-9418.149754
972.816228,133.998066,172.283227,-9475.577496
972.816855,133.998066,114.855485,-9418.149754
972.817483,153.140646,133.998066,-9399.007173
972.818110,76.570323,114.855485,-9418.149754
972.818738,133.998066,210.568389,-9475.577496
972.819366,57.427742,95.712904,-9399.007173
972.819993,76.570323,114.855485,-9418.149754
972.820621,19.142581,114.855485,-9418.149754
972.821248,133.998066,114.855485,-9418.149754
972.821876,95.712904,95.712904,-9399.007173
972.822503,76.570323,114.855485,-9418.149754
972.823131,76.570323,153.140646,-9437.292334
972.823758,76.570323,153.140646,-9418.149754
972.824386,57.427742,114.855485,-9456.434915
972.825014,38.285162,114.855485,-9418.149754
972.825641,133.998066,172.283227,-9418.149754
972.826269,133.998066,114.855485,-9418.149754
972.826897,38.285162,172.283227,-9418.149754
972.827524,133.998066,114.855485,-9437.292334
972.828152,95.712904,133.998066,-9360.722011
972.828780,133.998066,153.140646,-9456.434915
972.829407,133.998066,76.570323,-9379.864592
972.830035,133.998066,114.855485,-9418.149754
972.830663,114.855485,133.998066,-9360.722011
972.831290,153.140646,153.140646,-9418.149754
972.831918,76.570323,114.855485,-9437.292334
972.832546,76.570323,114.855485,-9418.149754
972.833173,114.855485,210.568389,-9399.007173
972.833801,191.425808,114.855485,-9379.864592
972.834429,172.283227,114.855485,-9379.864592
972.835056,95.712904,210.568389,-9399.007173
972.835684,76.570323,172.283227,-9437.292334
972.836312,76.570323,191.425808,-9456.434915
972.836939,133.998066,172.283227,-9418.149754
972.837567,133.998066,172.283227,-9360.722011
972.838195,95.712904,172.283227,-9418.149754
972.838822,210.568389,191.425808,-9399.007173
972.839450,153.140646,95.712904,-9360.722011
972.840078,153.140646,191.425808,-9399.007173
972.840705,114.855485,248.853550,-9533.005238
972.841333,133.998066,133.998066,-9399.007173
972.841961,133.998066,153.140646,-9418.149754
972.842588,133.998066,133.998066,-9399.007173
972.843216,76.570323,191.425808,-9437.292334
972.843844,76.570323,114.855485,-9418.149754
972.844471,133.998066,210.568389,-9418.149754
972.845099,133.998066,172.283227,-9399.007173
972.845727,133.998066,114.855485,-9418.149754
972.846354,133.998066,114.855485,-9418.149754
972.846982,133.998066,172.283227,-9418.149754
972.847610,95.712904,114.855485,-9418.149754
972.848237,95.712904,95.712904,-9399.007173
972.848865,76.570323,95.712904,-9399.007173
972.849493,133.998066,114.855485,-9418.149754
972.850120,133.998066,153.140646,-9418.149754
972.850748,114.855485,133.998066,-9360.722011
972.851376,133.998066,114.855485,-9494.720077
972.852003,210.568389,153.140646,-9399.007173
972.852631,114.855485,172.283227,-9379.864592
972.853259,153.140646,133.998066,-9399.007173
972.853887,114.855485,153.140646,-9360.722011
972.854514,114.855485,172.283227,-9360.722011
972.855142,76.570323,172.283227,-9418.149754
972.855770,76.570323,153.140646,-9418.149754
972.856397,133.998066,114.855485,-9418.149754
972.857025,76.570323,210.568389,-9418.149754
972.857653,133.998066,114.855485,-9418.149754
972.858280,153.140646,133.998066,-9399.007173
972.858908,95.712904,133.998066,-9360.722011
972.859536,38.285162,153.140646,-9418.149754
972.860163,76.570323,114.855485,-9418.149754
972.860791,38.285162,114.855485,-9437.292334
972.861419,76.570323,153.140646,-9418.149754
972.862046,38.285162,114.855485,-9418.149754
972.862674,210.568389,172.283227,-9399.007173
972.863302,172.283227,210.568389,-9399.007173
972.863929,76.570323,153.140646,-9456.434915
972.864557,76.570323,172.283227,-9418.149754
972.865185,133.998066,172.283227,-9456.434915
972.865812,76.570323,172.283227,-9456.434915
972.866440,76.570323,191.425808,-9418.149754
972.867068,95.712904,153.140646,-9418.149754
972.867695,133.998066,114.855485,-9475.577496
972.868323,133.998066,133.998066,-9437.292334
972.868951,76.570323,172.283227,-9418.149754
972.869578,114.855485,133.998066,-9360.722011
972.870206,95.712904,95.712904,-9399.007173
972.870834,95.712904,133.998066,-9360.722011
972.871461,133.998066,114.855485,-9418.149754
972.872089,95.712904,114.855485,-9418.149754
972.872717,133.998066,114.855485,-9418.149754
972.873344,133.998066,153.140646,-9418.149754
972.873972,133.998066,114.855485,-9418.149754
972.874600,172.283227,133.998066,-9360.722011
972.875227,95.712904,172.283227,-9456.434915
972.875855,38.285162,114.855485,-9437.292334
972.876483,19.142581,114.855485,-9418.149754
972.877110,38.285162,114.855485,-9418.149754
972.877738,133.998066,114.855485,-9456.434915
972.878366,133.998066,114.855485,-9456.434915
972.878993,133.998066,133.998066,-9399.007173
972.879621,95.712904,133.998066,-9360.722011
972.880249,153.140646,76.570323,-9379.864592
972.880876,76.570323,114.855485,-9360.722011
972.881504,172.283227,114.855485,-9379.864592
972.882132,153.140646,133.998066,-9399.007173
972.882759,133.998066,114.855485,-9418.149754
972.883387,38.285162,172.283227,-9418.149754
972.884015,76.570323,114.855485,-9418.149754
972.884642,76.570323,114.855485,-9456.434915
972.885270,133.998066,114.855485,-9418.149754
972.885898,76.570323,114.855485,-9418.149754
972.886525,95.712904,133.998066,-9360.722011
972.887153,76.570323,114.855485,-9456.434915
972.887781,38.285162,210.568389,-9418.149754
972.888408,76.570323,210.568389,-9418.149754
972.889036,114.855485,153.140646,-9360.722011
972.889664,133.998066,172.283227,-9418.149754
972.890292,95.712904,95.712904,-9399.007173
972.890919,114.855485,95.712904,-9399.007173
972.891547,76.570323,210.568389,-9418.149754
972.892175,114.855485,76.570323,-9418.149754
972.892802,76.570323,114.855485,-9418.149754
972.893430,95.712904,133.998066,-9360.722011
972.894058,95.712904,172.283227,-9418.149754
972.894685,76.570323,114.855485,-9418.149754
972.895313,95.712904,114.855485,-9418.149754
972.895941,153.140646,172.283227,-9399.007173
972.896568,153.140646,172.283227,-9456.434915
972.897196,76.570323,114.855485,-9418.149754
972.897824,57.427742,95.712904,-9456.434915
972.898451,0.000000,95.712904,-9475.577496
972.899079,95.712904,133.998066,-9360.722011
972.899707,95.712904,114.855485,-9418.149754
972.900334,133.998066,114.855485,-9437.292334
972.900962,95.712904,133.998066,-9360.722011
972.901590,95.712904,133.998066,-9360.722011
972.902217,133.998066,114.855485,-9418.149754
972.902845,95.712904,172.283227,-9360.722011
972.903473,76.570323,172.283227,-9418.149754
972.904100,76.570323,153.140646,-9437.292334
972.904728,76.570323,114.855485,-9533.005238
972.905356,133.998066,172.283227,-9418.149754
972.905983,114.855485,133.998066,-9360.722011
972.906611,57.427742,133.998066,-9360.722011
972.907239,76.570323,172.283227,-9418.149754
972.907866,57.427742,133.998066,-9360.722011
972.908494,76.570323,114.855485,-9418.149754
972.909122,133.998066,114.855485,-9456.434915
972.909749,133.998066,191.425808,-9399.007173
972.910377,133.998066,114.855485,-9437.292334
972.911005,95.712904,172.283227,-9360.722011
972.911632,133.998066,114.855485,-9360.722011
972.912260,210.568389,133.998066,-9399.007173
972.912888,114.855485,95.712904,-9399.007173
972.913515,76.570323,114.855485,-9418.149754
972.914143,133.998066,153.140646,-9418.149754
972.914771,153.140646,133.998066,-9399.007173
972.915398,153.140646,191.425808,-9399.007173
972.916026,76.570323,153.140646,-9418.149754
972.916654,76.570323,191.425808,-9418.149754
972.917281,76.570323,114.855485,-9437.292334
972.917909,133.998066,114.855485,-9418.149754
972.918537,76.570323,114.855485,-9418.149754
972.919164,76.570323,114.855485,-9418.149754
972.919792,76.570323,114.855485,-9418.149754
972.920420,133.998066,114.855485,-9418.149754
972.921047,57.427742,95.712904,-9399.007173
972.921675,153.140646,133.998066,-9437.292334
972.922303,172.283227,76.570323,-9418.149754
972.922930,95.712904,114.855485,-9418.149754
972.923558,114.855485,95.712904,-9399.007173
972.924186,38.285162,114.855485,-9418.149754
972.924813,76.570323,114.855485,-9418.149754
972.925441,95.712904,95.712904,-9399.007173
972.926069,133.998066,172.283227,-9437.292334
972.926697,76.570323,172.283227,-9437.292334
972.927324,133.998066,114.855485,-9418.149754
972.927952,133.998066,114.855485,-9418.149754
972.928580,76.570323,114.855485,-9418.149754
972.929207,76.570323,114.855485,-9418.149754
972.929835,133.998066,172.283227,-9418.149754
972.930463,133.998066,172.283227,-9399.007173
972.931091,38.285162,114.855485,-9456.434915
972.931718,114.855485,172.283227,-9360.722011
972.932346,95.712904,133.998066,-9360.722011
972.932974,114.855485,133.998066,-9360.722011
972.933601,133.998066,114.855485,-9418.149754
972.934229,153.140646,172.283227,-9399.007173
972.934857,76.570323,153.140646,-9418.149754
972.935485,76.570323,172.283227,-9475.577496
972.936112,57.427742,172.283227,-9418.149754
972.936740,76.570323,114.855485,-9456.434915
972.937368,114.855485,95.712904,-9437.292334
972.937995,153.140646,172.283227,-9418.149754
972.938623,133.998066,114.855485,-9418.149754
972.939251,95.712904,114.855485,-9418.149754
972.939879,172.283227,114.855485,-9379.864592
972.940506,76.570323,114.855485,-9418.149754
972.941134,114.855485,133.998066,-9360.722011
972.941762,95.712904,133.998066,-9360.722011
972.942389,133.998066,76.570323,-9379.864592
972.943017,133.998066,114.855485,-9418.149754
972.943645,76.570323,114.855485,-9418.149754
972.944273,95.712904,114.855485,-9494.720077
972.944900,114.855485,95.712904,-9399.007173
972.945528,76.570323,114.855485,-9418.149754
972.946156,19.142581,114.855485,-9418.149754
972.946783,133.998066,153.140646,-9494.720077
972.947411,153.140646,133.998066,-9399.007173
972.948039,114.855485,133.998066,-9341.579430
972.948667,114.855485,191.425808,-9360.722011
972.949294,133.998066,153.140646,-9418.149754
972.949922,95.712904,172.283227,-9360.722011
972.950550,153.140646,133.998066,-9399.007173
972.951177,38.285162,114.855485,-9437.292334
972.951805,38.285162,172.283227,-9437.292334
972.952433,57.427742,133.998066,-9360.722011
972.953061,133.998066,153.140646,-9399.007173
972.953688,76.570323,114.855485,-9418.149754
972.954316,76.570323,114.855485,-9418.149754
972.954944,172.283227,76.570323,-9418.149754
972.955571,76.570323,153.140646,-9418.149754
972.956199,76.570323,114.855485,-9418.149754
972.956827,133.998066,172.283227,-9418.149754
972.957455,133.998066,114.855485,-9418.149754
972.958082,133.998066,133.998066,-9475.577496
972.958710,133.998066,114.855485,-9418.149754
972.959338,133.998066,153.140646,-9418.149754
972.959965,38.285162,210.568389,-9418.149754
972.960593,95.712904,114.855485,-9418.149754
972.961221,114.855485,172.283227,-9360.722011
972.961849,133.998066,114.855485,-9437.292334
972.962476,76.570323,153.140646,-9418.149754
972.963104,57.427742,133.998066,-9360.722011
972.963732,95.712904,114.855485,-9399.007173
972.964359,76.570323,172.283227,-9418.149754
972.964987,57.427742,191.425808,-9360.722011
972.965615,114.855485,153.140646,-9341.579430
972.966243,95.712904,133.998066,-9360.722011
972.966870,95.712904,95.712904,-9456.434915
972.967498,95.712904,210.568389,-9360.722011
972.968126,133.998066,210.568389,-9418.149754
972.968753,38.285162,114.855485,-9360.722011
972.969381,76.570323,114.855485,-9418.149754
972.970009,95.712904,76.570323,-9379.864592
972.970637,133.998066,114.855485,-9418.149754
972.971264,133.998066,114.855485,-9418.149754
972.971892,153.140646,133.998066,-9437.292334
972.972520,76.570323,210.568389,-9418.149754
972.973147,133.998066,133.998066,-9399.007173
972.973775,95.712904,95.712904,-9399.007173
972.974403,114.855485,133.998066,-9360.722011
972.975031,76.570323,114.855485,-9418.149754
972.975658,38.285162,172.283227,-9418.149754
972.976286,133.998066,133.998066,-9399.007173
972.976914,76.570323,114.855485,-9418.149754
972.977541,153.140646,133.998066,-9399.007173
972.978169,76.570323,114.855485,-9418.149754
972.978797,114.855485,114.855485,-9379.864592
972.979425,172.283227,114.855485,-9399.007173
972.980052,76.570323,114.855485,-9418.149754
972.980680,133.998066,172.283227,-9456.434915
972.981308,114.855485,133.998066,-9360.722011
972.981935,133.998066,114.855485,-9418.149754
972.982563,133.998066,133.998066,-9399.007173
972.983191,57.427742,133.998066,-9360.722011
972.983819,95.712904,133.998066,-9360.722011
972.984446,133.998066,133.998066,-9379.864592
972.985074,76.570323,153.140646,-9437.292334
972.985702,76.570323,114.855485,-9418.149754
972.986329,76.570323,114.855485,-9418.149754
972.986957,76.570323,114.855485,-9456.434915
972.987585,76.570323,172.283227,-9360.722011
972.988213,95.712904,153.140646,-9418.149754
972.988840,76.570323,114.855485,-9418.149754
972.989468,133.998066,114.855485,-9418.149754
972.990096,76.570323,153.140646,-9418.149754
972.990723,76.570323,172.283227,-9418.149754
972.991351,76.570323,114.855485,-9418.149754
972.991979,38.285162,114.855485,-9418.149754
972.992607,76.570323,153.140646,-9418.149754
972.993234,57.427742,133.998066,-9360.722011
972.993862,38.285162,114.855485,-9418.149754
972.994490,76.570323,114.855485,-9418.149754
972.995117,76.570323,114.855485,-9437.292334
972.995745,95.712904,133.998066,-9360.722011
972.996373,76.570323,114.855485,-9437.292334
972.997001,153.140646,114.855485,-9418.149754
972.997628,133.998066,172.283227,-9437.292334
972.998256,76.570323,210.568389,-9418.149754
972.998884,95.712904,95.712904,-9399.007173
972.999511,133.998066,172.283227,-9399.007173
973.000139,133.998066,114.855485,-9418.149754
973.000767,133.998066,114.855485,-9456.434915
973.001395,133.998066,114.855485,-9456.434915
973.002022,76.570323,114.855485,-9418.149754
973.002650,133.998066,133.998066,-9437.292334
973.003278,114.855485,153.140646,-9360.722011
973.003905,38.285162,153.140646,-9418.149754
973.004533,76.570323,114.855485,-9437.292334
973.005161,153.140646,114.855485,-9456.434915
973.005789,133.998066,133.998066,-9399.007173
973.006416,133.998066,153.140646,-9494.720077
973.007044,133.998066,114.855485,-9437.292334
973.007672,133.998066,114.855485,-9418.149754
973.008299,57.427742,133.998066,-9360.722011
973.008927,76.570323,114.855485,-9437.292334
973.009555,133.998066,114.855485,-9437.292334
973.010183,76.570323,114.855485,-9418.149754
973.010810,76.570323,172.283227,-9418.149754
973.011438,95.712904,114.855485,-9418.149754
973.012066,133.998066,172.283227,-9456.434915
973.012693,76.570323,153.140646,-9418.149754
973.013321,95.712904,95.712904,-9399.007173
973.013949,114.855485,95.712904,-9494.720077
973.014577,114.855485,95.712904,-9399.007173
973.015204,114.855485,133.998066,-9360.722011
973.015832,133.998066,114.855485,-9437.292334
973.016460,76.570323,172.283227,-9418.149754
973.017087,133.998066,172.283227,-9418.149754
973.017715,133.998066,114.855485,-9418.149754
973.018343,133.998066,114.855485,-9360.722011
973.018970,76.570323,153.140646,-9360.722011
973.019598,133.998066,76.570323,-9379.864592
973.020226,76.570323,114.855485,-9418.149754
973.020854,38.285162,153.140646,-9418.149754
973.021481,133.998066,210.568389,-9418.149754
973.022109,153.140646,172.283227,-9399.007173
973.022737,95.712904,153.140646,-9360.722011
973.023364,76.570323,153.140646,-9418.149754
973.023992,95.712904,172.283227,-9360.722011
973.024620,38.285162,114.855485,-9418.149754
973.025248,95.712904,172.283227,-9360.722011
973.025875,76.570323,191.425808,-9418.149754
973.026503,76.570323,114.855485,-9418.149754
973.027131,133.998066,172.283227,-9399.007173
973.027758,95.712904,95.712904,-9399.007173
973.028386,76.570323,114.855485,-9418.149754
973.029013,38.285162,153.140646,-9418.149754
973.029641,76.570323,172.283227,-9418.149754
973.030268,76.570323,114.855485,-9437.292334
973.030896,76.570323,114.855485,-9418.149754
973.031524,95.712904,95.712904,-9399.007173
973.032151,133.998066,114.855485,-9418.149754
973.032779,76.570323,114.855485,-9418.149754
973.033406,76.570323,114.855485,-9418.149754
973.034034,76.570323,76.570323,-9379.864592
973.034662,114.855485,133.998066,-9360.722011
973.035289,95.712904,114.855485,-9418.149754
973.035917,133.998066,172.283227,-9418.149754
973.036544,76.570323,114.855485,-9418.149754
973.037172,133.998066,114.855485,-9456.434915
973.037800,76.570323,114.855485,-9418.149754
973.038427,76.570323,114.855485,-9418.149754
973.039055,210.568389,133.998066,-9437.292334
973.039682,153.140646,133.998066,-9399.007173
973.040310,76.570323,153.140646,-9418.149754
973.040937,133.998066,114.855485,-9456.434915
973.041565,172.283227,133.998066,-9360.722011
973.042193,76.570323,172.283227,-9437.292334
973.042820,38.285162,114.855485,-9456.434915
973.043448,133.998066,114.855485,-9418.149754
973.044075,76.570323,114.855485,-9437.292334
973.044703,38.285162,114.855485,-9456.434915
973.045331,76.570323,114.855485,-9399.007173
973.045958,133.998066,114.855485,-9437.292334
973.046586,95.712904,95.712904,-9437.292334
973.047213,133.998066,153.140646,-9418.149754
973.047841,76.570323,114.855485,-9418.149754
973.048468,133.998066,172.283227,-9475.577496
973.049096,76.570323,114.855485,-9418.149754
973.049724,76.570323,114.855485,-9456.434915
973.050351,76.570323,114.855485,-9418.149754
973.050979,95.712904,153.140646,-9360.722011
973.051606,57.427742,172.283227,-9418.149754
973.052234,76.570323,114.855485,-9456.434915
973.052862,133.998066,114.855485,-9418.149754
973.053489,38.285162,95.712904,-9399.007173
973.054117,95.712904,153.140646,-9360.722011
973.054744,95.712904,153.140646,-9418.149754
973.055372,38.285162,172.283227,-9418.149754
973.056000,76.570323,153.140646,-9418.149754
973.056627,57.427742,95.712904,-9399.007173
973.057255,114.855485,172.283227,-9360.722011
973.057882,114.855485,133.998066,-9360.722011
973.058510,38.285162,172.283227,-9475.577496
973.059137,133.998066,114.855485,-9418.149754
973.059765,38.285162,114.855485,-9418.149754
973.060393,133.998066,114.855485,-9360.722011
973.061020,114.855485,95.712904,-9399.007173
973.061648,133.998066,153.140646,-9418.149754
973.062275,95.712904,172.283227,-9418.149754
973.062903,38.285162,153.140646,-9418.149754
973.063531,133.998066,172.283227,-9418.149754
973.064158,76.570323,114.855485,-9418.149754
973.064786,95.712904,95.712904,-9399.007173
973.065413,95.712904,95.712904,-9399.007173
973.066041,76.570323,114.855485,-9437.292334
973.066669,76.570323,114.855485,-9456.434915
973.067296,153.140646,153.140646,-9399.007173
973.067924,153.140646,95.712904,-9360.722011
973.068551,210.568389,114.855485,-9360.722011
973.069179,76.570323,153.140646,-9418.149754
973.069806,38.285162,114.855485,-9437.292334
973.070434,76.570323,114.855485,-9418.149754
973.071062,95.712904,114.855485,-9418.149754
973.071689,133.998066,114.855485,-9418.149754
973.072317,114.855485,114.855485,-9379.864592
973.072944,57.427742,76.570323,-9284.151688
973.073572,95.712904,114.855485,-9418.149754
973.074200,95.712904,153.140646,-9437.292334
973.074827,153.140646,191.425808,-9456.434915
973.075455,76.570323,114.855485,-9437.292334
973.076082,76.570323,114.855485,-9418.149754
973.076710,38.285162,114.855485,-9418.149754
973.077338,76.570323,172.283227,-9418.149754
973.077965,114.855485,133.998066,-9360.722011
973.078593,38.285162,133.998066,-9360.722011
973.079220,114.855485,172.283227,-9360.722011
973.079848,153.140646,133.998066,-9399.007173
973.080475,95.712904,95.712904,-9399.007173
973.081103,95.712904,95.712904,-9494.720077
973.081731,38.285162,114.855485,-9418.149754
973.082358,133.998066,114.855485,-9418.149754
973.082986,76.570323,153.140646,-9418.149754
973.083613,133.998066,114.855485,-9418.149754
973.084241,153.140646,95.712904,-9360.722011
973.084869,76.570323,114.855485,-9418.149754
973.085496,133.998066,248.853550,-9399.007173
973.086124,76.570323,210.568389,-9418.149754
973.086751,76.570323,114.855485,-9418.149754
973.087379,95.712904,153.140646,-9360.722011
973.088006,76.570323,172.283227,-9418.149754
973.088634,153.140646,133.998066,-9399.007173
973.089262,153.140646,114.855485,-9418.149754
973.089889,95.712904,133.998066,-9360.722011
973.090517,76.570323,114.855485,-9418.149754
973.091144,57.427742,95.712904,-9399.007173
973.091772,133.998066,114.855485,-9418.149754
973.092400,76.570323,114.855485,-9418.149754
973.093027,114.855485,95.712904,-9379.864592
973.093655,76.570323,114.855485,-9418.149754
973.094282,95.712904,153.140646,-9360.722011
973.094910,38.285162,114.855485,-9418.149754
973.095538,38.285162,114.855485,-9418.149754
973.096165,133.998066,114.855485,-9418.149754
973.096793,114.855485,133.998066,-9341.579430
973.097420,76.570323,114.855485,-9418.149754
973.098048,76.570323,133.998066,-9418.149754
973.098675,76.570323,114.855485,-9456.434915
973.099303,76.570323,172.283227,-9437.292334
973.099931,114.855485,133.998066,-9341.579430
973.100558,76.570323,172.283227,-9360.722011
973.101186,76.570323,191.425808,-9418.149754
973.101813,76.570323,172.283227,-9437.292334
973.102441,57.427742,133.998066,-9360.722011
973.103069,133.998066,114.855485,-9418.149754
973.103696,133.998066,172.283227,-9418.149754
973.104324,133.998066,114.855485,-9418.149754
973.104951,38.285162,114.855485,-9418.149754
973.105579,114.855485,153.140646,-9379.864592
973.106207,133.998066,114.855485,-9418.149754
973.106834,38.285162,210.568389,-9418.149754
973.107462,114.855485,133.998066,-9360.722011
973.108089,95.712904,191.425808,-9360.722011
973.108717,95.712904,133.998066,-9360.722011
973.109344,38.285162,133.998066,-9360.722011
973.109972,38.285162,172.283227,-9418.149754
973.110600,133.998066,210.568389,-9475.577496
973.111227,76.570323,172.283227,-9437.292334
973.111855,133.998066,172.283227,-9399.007173
973.112482,76.570323,114.855485,-9437.292334
973.113110,133.998066,114.855485,-9437.292334
973.113738,133.998066,210.568389,-9418.149754
973.114365,57.427742,153.140646,-9360.722011
973.114993,76.570323,172.283227,-9418.149754
973.115620,38.285162,210.568389,-9360.722011
973.116248,172.283227,172.283227,-9418.149754
973.116876,114.855485,172.283227,-9360.722011
973.117503,76.570323,172.283227,-9418.149754
973.118131,172.283227,210.568389,-9379.864592
973.118758,114.855485,191.425808,-9360.722011
973.119386,76.570323,153.140646,-9418.149754
973.120013,76.570323,114.855485,-9418.149754
973.120641,95.712904,95.712904,-9399.007173
973.121269,153.140646,133.998066,-9399.007173
973.121896,95.712904,114.855485,-9456.434915
973.122524,133.998066,114.855485,-9418.149754
973.123151,76.570323,114.855485,-9456.434915
973.123779,76.570323,114.855485,-9437.292334
973.124407,76.570323,114.855485,-9456.434915
973.125034,153.140646,133.998066,-9399.007173
973.125662,133.998066,133.998066,-9456.434915
973.126289,38.285162,153.140646,-9418.149754
973.126917,19.142581,153.140646,-9418.149754
973.127545,133.998066,114.855485,-9418.149754
973.128173,133.998066,114.855485,-9418.149754
973.128800,76.570323,210.568389,-9418.149754
973.129428,38.285162,172.283227,-9437.292334
973.130056,76.570323,114.855485,-9360.722011
973.130684,57.427742,133.998066,-9360.722011
973.131311,38.285162,114.855485,-9418.149754
973.131939,95.712904,133.998066,-9360.722011
973.132567,57.427742,114.855485,-9418.149754
973.133195,38.285162,153.140646,-9418.149754
973.133822,38.285162,172.283227,-9418.149754
973.134450,133.998066,210.568389,-9418.149754
973.135078,153.140646,133.998066,-9399.007173
973.135706,76.570323,114.855485,-9418.149754
973.136333,133.998066,133.998066,-9399.007173
973.136961,0.000000,114.855485,-9379.864592
973.137589,133.998066,172.283227,-9418.149754
973.138217,76.570323,114.855485,-9418.149754
973.138844,95.712904,172.283227,-9360.722011
973.139472,114.855485,153.140646,-9360.722011
973.140100,76.570323,172.283227,-9418.149754
973.140728,133.998066,114.855485,-9418.149754
973.141356,76.570323,172.283227,-9360.722011
973.141983,76.570323,114.855485,-9418.149754
973.142611,133.998066,114.855485,-9437.292334
973.143239,133.998066,133.998066,-9399.007173
973.143867,95.712904,95.712904,-9399.007173
973.144494,133.998066,114.855485,-9418.149754
973.145122,76.570323,114.855485,-9418.149754
973.145750,76.570323,153.140646,-9418.149754
973.146378,38.285162,153.140646,-9418.149754
973.147005,95.712904,95.712904,-9399.007173
973.147633,133.998066,229.710970,-9418.149754
973.148261,153.140646,133.998066,-9399.007173
973.148889,76.570323,172.283227,-9418.149754
973.149516,76.570323,114.855485,-9418.149754
973.150144,38.285162,114.855485,-9418.149754
973.150772,114.855485,114.855485,-9399.007173
973.151400,133.998066,210.568389,-9418.149754
973.152027,38.285162,114.855485,-9418.149754
973.152655,76.570323,114.855485,-9418.149754
973.153283,210.568389,172.283227,-9379.864592
973.153911,133.998066,114.855485,-9494.720077
973.154538,114.855485,95.712904,-9399.007173
973.155166,76.570323,114.855485,-9418.149754
973.155794,76.570323,153.140646,-9418.149754
973.156422,114.855485,153.140646,-9360.722011
973.157049,133.998066,114.855485,-9418.149754
973.157677,153.140646,172.283227,-9437.292334
973.158305,114.855485,133.998066,-9360.722011
973.158933,153.140646,191.425808,-9399.007173
973.159561,133.998066,153.140646,-9418.149754
973.160188,38.285162,114.855485,-9418.149754
973.160816,95.712904,76.570323,-9379.864592
973.161444,38.285162,114.855485,-9418.149754
973.162072,-19.142581,76.570323,-9418.149754
973.162699,114.855485,133.998066,-9360.722011
973.163327,114.855485,95.712904,-9399.007173
973.163955,133.998066,114.855485,-9418.149754
973.164583,95.712904,95.712904,-9399.007173
973.165210,133.998066,172.283227,-9456.434915
973.165838,133.998066,133.998066,-9399.007173
973.166466,95.712904,95.712904,-9399.007173
973.167094,95.712904,114.855485,-9418.149754
973.167721,76.570323,76.570323,-9379.864592
973.168349,76.570323,153.140646,-9418.149754
973.168977,133.998066,133.998066,-9399.007173
973.169605,114.855485,153.140646,-9360.722011
973.170232,95.712904,172.283227,-9418.149754
973.170860,38.285162,114.855485,-9418.149754
973.171488,133.998066,114.855485,-9418.149754
973.172116,133.998066,191.425808,-9418.149754
973.172743,114.855485,229.710970,-9399.007173
973.173371,95.712904,133.998066,-9360.722011
973.173999,114.855485,95.712904,-9399.007173
973.174627,57.427742,153.140646,-9360.722011
973.175254,133.998066,114.855485,-9418.149754
973.175882,133.998066,114.855485,-9456.434915
973.176510,38.285162,153.140646,-9418.149754
973.177138,114.855485,153.140646,-9341.579430
973.177766,114.855485,153.140646,-9360.722011
973.178393,133.998066,114.855485,-9418.149754
973.179021,133.998066,114.855485,-9437.292334
973.179649,133.998066,114.855485,-9418.149754
973.180277,57.427742,114.855485,-9437.292334
973.180904,19.142581,172.283227,-9456.434915
973.181532,95.712904,153.140646,-9418.149754
973.182160,95.712904,153.140646,-9418.149754
973.182788,76.570323,172.283227,-9418.149754
973.183415,153.140646,133.998066,-9399.007173
973.184043,38.285162,114.855485,-9418.149754
973.184671,133.998066,114.855485,-9418.149754
973.185299,153.140646,133.998066,-9399.007173
973.185926,172.283227,76.570323,-9418.149754
973.186554,133.998066,172.283227,-9418.149754
973.187182,76.570323,172.283227,-9418.149754
973.187810,133.998066,114.855485,-9418.149754
973.188437,76.570323,114.855485,-9418.149754
973.189065,76.570323,172.283227,-9418.149754
973.189693,133.998066,172.283227,-9494.720077
973.190321,133.998066,153.140646,-9456.434915
973.190948,76.570323,114.855485,-9418.149754
973.191576,133.998066,210.568389,-9437.292334
973.192204,114.855485,95.712904,-9379.864592
973.192832,76.570323,210.568389,-9418.149754
973.193459,76.570323,114.855485,-9418.149754
973.194087,95.712904,172.283227,-9456.434915
973.194715,133.998066,153.140646,-9418.149754
973.195343,114.855485,95.712904,-9494.720077
973.195971,153.140646,133.998066,-9399.007173
973.196598,133.998066,172.283227,-9437.292334
973.197226,76.570323,114.855485,-9418.149754
973.197854,133.998066,153.140646,-9437.292334
973.198482,76.570323,114.855485,-9418.149754
973.199109,95.712904,114.855485,-9418.149754
973.199737,76.570323,114.855485,-9475.577496
973.200365,76.570323,114.855485,-9437.292334
973.200993,114.855485,133.998066,-9418.149754
973.201620,95.712904,153.140646,-9360.722011
973.202248,76.570323,153.140646,-9418.149754
973.202876,76.570323,114.855485,-9418.149754
973.203504,76.570323,172.283227,-9418.149754
973.204131,76.570323,114.855485,-9418.149754
973.204759,76.570323,114.855485,-9418.149754
973.205387,38.285162,172.283227,-9418.149754
973.206015,95.712904,172.283227,-9418.149754
973.206642,76.570323,76.570323,-9379.864592
973.207270,57.427742,133.998066,-9360.722011
973.207898,0.000000,133.998066,-9360.722011
973.208526,76.570323,210.568389,-9418.149754
973.209153,76.570323,114.855485,-9418.149754
973.209781,95.712904,191.425808,-9360.722011
973.210409,76.570323,210.568389,-9437.292334
973.211037,76.570323,114.855485,-9437.292334
973.211664,114.855485,95.712904,-9399.007173
973.212292,133.998066,153.140646,-9399.007173
973.212920,76.570323,191.425808,-9360.722011
973.213548,133.998066,133.998066,-9399.007173
973.214176,133.998066,210.568389,-9437.292334
973.214803,114.855485,133.998066,-9360.722011
973.215431,76.570323,114.855485,-9418.149754
973.216059,76.570323,114.855485,-9456.434915
973.216687,133.998066,172.283227,-9418.149754
973.217314,38.285162,153.140646,-9418.149754
973.217942,38.285162,114.855485,-9418.149754
973.218570,114.855485,191.425808,-9360.722011
973.219198,133.998066,153.140646,-9399.007173
973.219825,38.285162,114.855485,-9418.149754
973.220453,133.998066,114.855485,-9475.577496
973.221081,133.998066,114.855485,-9418.149754
973.221709,57.427742,95.712904,-9399.007173
973.222336,95.712904,133.998066,-9360.722011
973.222964,76.570323,114.855485,-9418.149754
973.223592,133.998066,114.855485,-9418.149754
973.224220,153.140646,133.998066,-9399.007173
973.224847,114.855485,95.712904,-9399.007173
973.225475,76.570323,210.568389,-9418.149754
973.226103,57.427742,153.140646,-9360.722011
973.226731,76.570323,172.283227,-9437.292334
973.227359,76.570323,153.140646,-9360.722011
973.227986,133.998066,114.855485,-9418.149754
973.228614,76.570323,153.140646,-9456.434915
973.229242,76.570323,133.998066,-9360.722011
973.229870,76.570323,114.855485,-9418.149754
973.230497,76.570323,114.855485,-9456.434915
973.231125,95.712904,95.712904,-9399.007173
973.231753,95.712904,114.855485,-9418.149754
973.232381,133.998066,114.855485,-9418.149754
973.233008,57.427742,95.712904,-9399.007173
973.233636,38.285162,114.855485,-9418.149754
973.234264,133.998066,114.855485,-9418.149754
973.234892,133.998066,114.855485,-9456.434915
973.235520,153.140646,153.140646,-9437.292334
973.236147,76.570323,153.140646,-9418.149754
973.236775,38.285162,172.283227,-9418.149754
973.237403,133.998066,76.570323,-9379.864592
973.238031,133.998066,172.283227,-9399.007173
973.238658,133.998066,153.140646,-9418.149754
973.239286,95.712904,153.140646,-9360.722011
973.239914,76.570323,76.570323,-9379.864592
973.240542,114.855485,114.855485,-9399.007173
973.241169,172.283227,210.568389,-9379.864592
973.241797,153.140646,133.998066,-9456.434915
973.242425,114.855485,76.570323,-9418.149754
973.243053,76.570323,114.855485,-9418.149754
973.243680,76.570323,153.140646,-9418.149754
973.244308,114.855485,133.998066,-9360.722011
973.244936,133.998066,172.283227,-9418.149754
973.245564,133.998066,210.568389,-9418.149754
973.246192,133.998066,153.140646,-9418.149754
973.246819,133.998066,114.855485,-9418.149754
973.247447,76.570323,114.855485,-9418.149754
973.248075,95.712904,133.998066,-9360.722011
973.248703,133.998066,114.855485,-9418.149754
973.249330,57.427742,95.712904,-9399.007173
973.249958,76.570323,172.283227,-9418.149754
973.250586,0.000000,95.712904,-9399.007173
973.251214,133.998066,153.140646,-9399.007173
973.251841,153.140646,133.998066,-9399.007173
973.252469,133.998066,172.283227,-9437.292334
973.253097,114.855485,133.998066,-9360.722011
973.253725,133.998066,153.140646,-9418.149754
973.254353,76.570323,210.568389,-9418.149754
973.254980,114.855485,133.998066,-9360.722011
973.255608,38.285162,153.140646,-9418.149754
973.256236,57.427742,114.855485,-9418.149754
973.256864,133.998066,114.855485,-9418.149754
973.257491,95.712904,133.998066,-9418.149754
973.258119,153.140646,133.998066,-9379.864592
973.258747,114.855485,95.712904,-9399.007173
973.259375,95.712904,95.712904,-9399.007173
973.260002,57.427742,114.855485,-9437.292334
973.260630,38.285162,114.855485,-9533.005238
973.261258,76.570323,210.568389,-9418.149754
973.261886,133.998066,114.855485,-9418.149754
973.262514,153.140646,133.998066,-9379.864592
973.263141,133.998066,114.855485,-9437.292334
973.263769,153.140646,133.998066,-9399.007173
973.264397,76.570323,172.283227,-9418.149754
973.265025,114.855485,133.998066,-9360.722011
973.265652,114.855485,133.998066,-9418.149754
973.266280,76.570323,114.855485,-9418.149754
973.266908,95.712904,153.140646,-9360.722011
973.267536,95.712904,153.140646,-9418.149754
973.268163,38.285162,114.855485,-9418.149754
973.268791,133.998066,229.710970,-9418.149754
973.269419,38.285162,210.568389,-9456.434915
973.270047,114.855485,133.998066,-9418.149754
973.270674,172.283227,76.570323,-9418.149754
973.271302,76.570323,229.710970,-9418.149754
973.271930,153.140646,191.425808,-9456.434915
973.272558,153.140646,153.140646,-9399.007173
973.273186,76.570323,172.283227,-9418.149754
973.273813,76.570323,153.140646,-9418.149754
973.274441,76.570323,114.855485,-9418.149754
973.275069,76.570323,172.283227,-9418.149754
973.275697,133.998066,172.283227,-9399.007173
973.276324,76.570323,133.998066,-9360.722011
973.276952,153.140646,114.855485,-9418.149754
973.277580,172.283227,76.570323,-9418.149754
973.278208,114.855485,133.998066,-9360.722011
973.278835,133.998066,114.855485,-9418.149754
973.279463,57.427742,172.283227,-9418.149754
973.280091,114.855485,95.712904,-9399.007173
973.280719,76.570323,153.140646,-9456.434915
973.281347,76.570323,114.855485,-9456.434915
973.281974,153.140646,153.140646,-9418.149754
973.282602,153.140646,133.998066,-9399.007173
973.283230,153.140646,133.998066,-9399.007173
973.283858,133.998066,114.855485,-9360.722011
973.284485,133.998066,114.855485,-9418.149754
973.285113,114.855485,133.998066,-9360.722011
973.285741,172.283227,76.570323,-9418.149754
973.286369,95.712904,114.855485,-9399.007173
973.286996,76.570323,114.855485,-9475.577496
973.287624,76.570323,114.855485,-9418.149754
973.288252,133.998066,153.140646,-9456.434915
973.288880,133.998066,210.568389,-9418.149754
973.289508,133.998066,133.998066,-9456.434915
973.290135,76.570323,114.855485,-9418.149754
973.290763,38.285162,172.283227,-9418.149754
973.291391,38.285162,172.283227,-9418.149754
973.292019,133.998066,114.855485,-9418.149754
973.292646,95.712904,133.998066,-9360.722011
973.293274,38.285162,114.855485,-9418.149754
973.293902,133.998066,133.998066,-9399.007173
973.294530,133.998066,114.855485,-9418.149754
973.295157,133.998066,114.855485,-9418.149754
973.295785,95.712904,114.855485,-9418.149754
973.296413,133.998066,172.283227,-9379.864592
973.297041,38.285162,172.283227,-9418.149754
973.297668,95.712904,172.283227,-9360.722011
973.298296,133.998066,153.140646,-9418.149754
973.298924,95.712904,114.855485,-9399.007173
973.299552,114.855485,95.712904,-9399.007173
973.300180,95.712904,133.998066,-9360.722011
973.300807,133.998066,114.855485,-9418.149754
973.301435,133.998066,114.855485,-9418.149754
973.302063,114.855485,133.998066,-9360.722011
973.302691,76.570323,114.855485,-9418.149754
973.303318,153.140646,191.425808,-9399.007173
973.303946,133.998066,210.568389,-9456.434915
973.304574,76.570323,153.140646,-9418.149754
973.305202,76.570323,210.568389,-9418.149754
973.305829,133.998066,114.855485,-9418.149754
973.306457,153.140646,133.998066,-9399.007173
973.307085,133.998066,114.855485,-9418.149754
973.307713,133.998066,153.140646,-9418.149754
973.308341,38.285162,114.855485,-9418.149754
973.308968,76.570323,114.855485,-9418.149754
973.309596,95.712904,172.283227,-9418.149754
973.310224,76.570323,172.283227,-9418.149754
973.310852,38.285162,210.568389,-9456.434915
973.311479,76.570323,153.140646,-9418.149754
973.312107,133.998066,114.855485,-9456.434915
973.312735,133.998066,114.855485,-9437.292334
973.313363,76.570323,114.855485,-9418.149754
973.313990,76.570323,114.855485,-9418.149754
973.314618,133.998066,153.140646,-9418.149754
973.315246,114.855485,172.283227,-9360.722011
973.315874,210.568389,95.712904,-9360.722011
973.316502,95.712904,114.855485,-9360.722011
973.317129,76.570323,114.855485,-9418.149754
973.317757,95.712904,95.712904,-9399.007173
973.318385,133.998066,114.855485,-9418.149754
973.319013,76.570323,114.855485,-9418.149754
973.319640,114.855485,95.712904,-9399.007173
973.320268,95.712904,133.998066,-9360.722011
973.320896,153.140646,191.425808,-9456.434915
973.321524,133.998066,153.140646,-9456.434915
973.322151,133.998066,210.568389,-9437.292334
973.322779,133.998066,114.855485,-9418.149754
973.323407,76.570323,172.283227,-9418.149754
973.324035,114.855485,114.855485,-9399.007173
973.324662,76.570323,114.855485,-9418.149754
973.325290,95.712904,153.140646,-9418.149754
973.325918,133.998066,172.283227,-9418.149754
973.326546,76.570323,114.855485,-9418.149754
973.327174,38.285162,172.283227,-9456.434915
973.327801,76.570323,172.283227,-9418.149754
973.328428,114.855485,133.998066,-9418.149754
973.329056,76.570323,114.855485,-9418.149754
973.329683,133.998066,114.855485,-9418.149754
973.330311,133.998066,153.140646,-9456.434915
973.330938,76.570323,153.140646,-9418.149754
973.331565,76.570323,114.855485,-9418.149754
973.332193,76.570323,172.283227,-9360.722011
973.332820,76.570323,133.998066,-9360.722011
973.333448,133.998066,114.855485,-9456.434915
973.334075,133.998066,114.855485,-9418.149754
973.334702,153.140646,114.855485,-9418.149754
973.335330,153.140646,133.998066,-9456.434915
973.335957,76.570323,172.283227,-9418.149754
973.336585,38.285162,114.855485,-9418.149754
973.337212,76.570323,114.855485,-9418.149754
973.337839,153.140646,153.140646,-9399.007173
973.338467,133.998066,210.568389,-9437.292334
973.339094,95.712904,95.712904,-9456.434915
973.339722,133.998066,114.855485,-9418.149754
973.340349,95.712904,95.712904,-9399.007173
973.340977,76.570323,114.855485,-9437.292334
973.341604,95.712904,114.855485,-9418.149754
973.342231,133.998066,153.140646,-9418.149754
973.342859,76.570323,172.283227,-9437.292334
973.343486,133.998066,114.855485,-9360.722011
973.344114,133.998066,153.140646,-9399.007173
973.344741,133.998066,114.855485,-9418.149754
973.345368,114.855485,133.998066,-9360.722011
973.345996,38.285162,114.855485,-9418.149754
973.346623,76.570323,114.855485,-9418.149754
973.347251,133.998066,172.283227,-9437.292334
973.347878,133.998066,114.855485,-9437.292334
973.348505,76.570323,114.855485,-9418.149754
973.349133,133.998066,153.140646,-9399.007173
973.349760,133.998066,114.855485,-9418.149754
973.350388,76.570323,114.855485,-9418.149754
973.351015,133.998066,172.283227,-9456.434915
973.351642,133.998066,114.855485,-9418.149754
973.352270,133.998066,114.855485,-9418.149754
973.352897,114.855485,114.855485,-9399.007173
973.353525,95.712904,114.855485,-9418.149754
973.354152,133.998066,133.998066,-9399.007173
973.354779,76.570323,114.855485,-9418.149754
973.355407,133.998066,114.855485,-9418.149754
973.356034,76.570323,210.568389,-9418.149754
973.356662,95.712904,172.283227,-9399.007173
973.357289,57.427742,95.712904,-9399.007173
973.357916,76.570323,172.283227,-9418.149754
973.358544,133.998066,114.855485,-9341.579430
973.359171,153.140646,114.855485,-9418.149754
973.359799,57.427742,133.998066,-9360.722011
973.360426,133.998066,114.855485,-9418.149754
973.361054,114.855485,114.855485,-9379.864592
973.361681,153.140646,95.712904,-9360.722011
973.362308,114.855485,153.140646,-9360.722011
973.362936,133.998066,114.855485,-9418.149754
973.363563,133.998066,153.140646,-9418.149754
973.364191,76.570323,172.283227,-9437.292334
973.364818,38.285162,172.283227,-9418.149754
973.365445,76.570323,153.140646,-9437.292334
973.366073,133.998066,114.855485,-9456.434915
973.366700,76.570323,172.283227,-9418.149754
973.367328,76.570323,153.140646,-9418.149754
973.367955,133.998066,153.140646,-9360.722011
973.368582,76.570323,114.855485,-9418.149754
973.369210,19.142581,210.568389,-9418.149754
973.369837,76.570323,172.283227,-9418.149754
973.370465,76.570323,172.283227,-9418.149754
973.371092,57.427742,95.712904,-9399.007173
973.371719,153.140646,133.998066,-9399.007173
973.372347,133.998066,114.855485,-9418.149754
973.372974,133.998066,114.855485,-9418.149754
973.373602,76.570323,114.855485,-9418.149754
973.374229,153.140646,172.283227,-9399.007173
973.374856,38.285162,153.140646,-9418.149754
973.375484,114.855485,76.570323,-9418.149754
973.376111,76.570323,114.855485,-9437.292334
973.376739,133.998066,114.855485,-9418.149754
973.377366,76.570323,172.283227,-9418.149754
973.377993,76.570323,114.855485,-9418.149754
973.378621,133.998066,114.855485,-9418.149754
973.379248,76.570323,114.855485,-9418.149754
973.379876,95.712904,210.568389,-9341.579430
973.380503,153.140646,172.283227,-9456.434915
973.381131,133.998066,114.855485,-9418.149754
973.381758,133.998066,114.855485,-9418.149754
973.382385,133.998066,114.855485,-9437.292334
973.383013,76.570323,114.855485,-9418.149754
973.383640,114.855485,133.998066,-9360.722011
973.384268,153.140646,191.425808,-9456.434915
973.384895,114.855485,114.855485,-9379.864592
973.385522,95.712904,172.283227,-9360.722011
973.386150,76.570323,133.998066,-9360.722011
973.386777,114.855485,133.998066,-9360.722011
973.387405,76.570323,133.998066,-9360.722011
973.388032,114.855485,153.140646,-9341.579430
973.388659,133.998066,153.140646,-9418.149754
973.389287,133.998066,153.140646,-9418.149754
973.389914,153.140646,153.140646,-9399.007173
973.390542,76.570323,153.140646,-9418.149754
973.391169,57.427742,133.998066,-9360.722011
973.391796,133.998066,153.140646,-9437.292334
973.392424,133.998066,153.140646,-9418.149754
973.393051,153.140646,210.568389,-9399.007173
973.393679,133.998066,229.710970,-9418.149754
973.394306,133.998066,153.140646,-9418.149754
973.394933,38.285162,114.855485,-9418.149754
973.395561,114.855485,95.712904,-9399.007173
973.396188,172.283227,172.283227,-9379.864592
973.396816,76.570323,153.140646,-9418.149754
973.397443,153.140646,133.998066,-9399.007173
973.398071,95.712904,133.998066,-9360.722011
973.398698,76.570323,114.855485,-9418.149754
973.399325,133.998066,133.998066,-9456.434915
973.399953,133.998066,133.998066,-9399.007173
973.400580,153.140646,153.140646,-9494.720077
973.401208,133.998066,172.283227,-9399.007173
973.401835,133.998066,114.855485,-9418.149754
973.402462,133.998066,114.855485,-9418.149754
973.403090,133.998066,114.855485,-9418.149754
973.403717,114.855485,76.570323,-9418.149754
973.404345,95.712904,114.855485,-9456.434915
973.404972,76.570323,153.140646,-9418.149754
973.405599,76.570323,114.855485,-9494.720077
973.406227,57.427742,133.998066,-9360.722011
973.406854,38.285162,114.855485,-9418.149754
973.407482,153.140646,133.998066,-9399.007173
973.408109,76.570323,114.855485,-9494.720077
973.408736,95.712904,114.855485,-9418.149754
973.409364,95.712904,172.283227,-9360.722011
973.409991,133.998066,153.140646,-9456.434915
973.410619,76.570323,172.283227,-9418.149754
973.411246,133.998066,172.283227,-9418.149754
973.411873,133.998066,172.283227,-9437.292334
973.412501,133.998066,191.425808,-9399.007173
973.413128,133.998066,133.998066,-9399.007173
973.413756,95.712904,95.712904,-9399.007173
973.414383,114.855485,133.998066,-9360.722011
973.415010,76.570323,114.855485,-9418.149754
973.415638,76.570323,210.568389,-9418.149754
973.416265,133.998066,172.283227,-9399.007173
973.416893,76.570323,114.855485,-9437.292334
973.417520,76.570323,114.855485,-9418.149754
973.418148,95.712904,76.570323,-9399.007173
973.418775,76.570323,229.710970,-9418.149754
973.419402,38.285162,153.140646,-9418.149754
973.420030,76.570323,114.855485,-9418.149754
973.420657,76.570323,95.712904,-9399.007173
973.421285,95.712904,114.855485,-9437.292334
973.421912,76.570323,114.855485,-9418.149754
973.422539,76.570323,114.855485,-9418.149754
973.423167,76.570323,153.140646,-9456.434915
973.423794,76.570323,114.855485,-9418.149754
973.424422,133.998066,114.855485,-9418.149754
973.425049,114.855485,95.712904,-9437.292334
973.425676,133.998066,210.568389,-9418.149754
973.426304,95.712904,172.283227,-9360.722011
973.426931,133.998066,76.570323,-9379.864592
973.427559,76.570323,172.283227,-9360.722011
973.428186,95.712904,172.283227,-9360.722011
973.428813,133.998066,153.140646,-9418.149754
973.429441,114.855485,95.712904,-9399.007173
973.430068,114.855485,76.570323,-9418.149754
973.430696,114.855485,133.998066,-9360.722011
973.431323,76.570323,114.855485,-9418.149754
973.431950,76.570323,114.855485,-9418.149754
973.432578,95.712904,172.283227,-9418.149754
973.433205,95.712904,133.998066,-9360.722011
973.433833,38.285162,114.855485,-9418.149754
973.434461,38.285162,153.140646,-9418.149754
973.435088,38.285162,114.855485,-9437.292334
973.435716,114.855485,114.855485,-9399.007173
973.436344,114.855485,172.283227,-9360.722011
973.436971,38.285162,172.283227,-9418.149754
973.437599,38.285162,114.855485,-9418.149754
973.438226,76.570323,114.855485,-9418.149754
973.438854,38.285162,153.140646,-9418.149754
973.439482,133.998066,114.855485,-9418.149754
973.440109,133.998066,114.855485,-9437.292334
973.440737,76.570323,114.855485,-9418.149754
973.441364,153.140646,133.998066,-9399.007173
973.441992,38.285162,114.855485,-9418.149754
973.442620,133.998066,114.855485,-9418.149754
973.443247,133.998066,114.855485,-9418.149754
973.443875,114.855485,210.568389,-9341.579430
973.444502,95.712904,191.425808,-9418.149754
973.445130,95.712904,133.998066,-9360.722011
973.445758,133.998066,114.855485,-9418.149754
973.446385,76.570323,172.283227,-9418.149754
973.447013,133.998066,114.855485,-9418.149754
973.447640,95.712904,114.855485,-9437.292334
973.448268,95.712904,95.712904,-9456.434915
973.448896,133.998066,153.140646,-9437.292334
973.449523,38.285162,114.855485,-9418.149754
973.450151,76.570323,114.855485,-9418.149754
973.450779,76.570323,191.425808,-9456.434915
973.451406,76.570323,114.855485,-9418.149754
973.452034,133.998066,210.568389,-9418.149754
973.452661,95.712904,95.712904,-9437.292334
973.453289,57.427742,114.855485,-9418.149754
973.453917,76.570323,172.283227,-9418.149754
973.454544,76.570323,114.855485,-9360.722011
973.455172,57.427742,133.998066,-9360.722011
973.455799,19.142581,114.855485,-9418.149754
973.456427,133.998066,153.140646,-9437.292334
973.457055,114.855485,95.712904,-9399.007173
973.457682,76.570323,114.855485,-9418.149754
973.458310,95.712904,172.283227,-9418.149754
973.458937,114.855485,133.998066,-9360.722011
973.459565,95.712904,95.712904,-9399.007173
973.460193,95.712904,133.998066,-9360.722011
973.460820,133.998066,153.140646,-9418.149754
973.461448,133.998066,114.855485,-9418.149754
973.462075,76.570323,114.855485,-9418.149754
973.462703,114.855485,133.998066,-9360.722011
973.463331,133.998066,172.283227,-9418.149754
973.463958,114.855485,172.283227,-9360.722011
973.464586,133.998066,114.855485,-9418.149754
973.465214,38.285162,114.855485,-9418.149754
973.465841,95.712904,95.712904,-9399.007173
973.466469,114.855485,191.425808,-9360.722011
973.467096,76.570323,153.140646,-9418.149754
973.467724,133.998066,114.855485,-9418.149754
973.468352,114.855485,133.998066,-9360.722011
973.468979,114.855485,95.712904,-9399.007173
973.469607,76.570323,114.855485,-9418.149754
973.470234,76.570323,191.425808,-9418.149754
973.470862,133.998066,114.855485,-9418.149754
973.471490,95.712904,153.140646,-9418.149754
973.472117,133.998066,153.140646,-9418.149754
973.472745,153.140646,133.998066,-9399.007173
973.473372,95.712904,114.855485,-9418.149754
973.474000,114.855485,133.998066,-9360.722011
973.474628,76.570323,95.712904,-9399.007173
973.475255,76.570323,172.283227,-9418.149754
973.475883,172.283227,114.855485,-9379.864592
973.476510,133.998066,172.283227,-9437.292334
973.477138,76.570323,172.283227,-9418.149754
973.477766,76.570323,114.855485,-9418.149754
973.478393,114.855485,133.998066,-9360.722011
973.479021,76.570323,114.855485,-9418.149754
973.479649,76.570323,114.855485,-9418.149754
973.480276,57.427742,114.855485,-9418.149754
973.480904,76.570323,172.283227,-9418.149754
973.481531,38.285162,114.855485,-9418.149754
973.482159,133.998066,114.855485,-9418.149754
973.482787,133.998066,153.140646,-9418.149754
973.483414,38.285162,114.855485,-9418.149754
973.484042,19.142581,114.855485,-9475.577496
973.484669,38.285162,114.855485,-9437.292334
973.485297,114.855485,133.998066,-9360.722011
973.485925,76.570323,114.855485,-9418.149754
973.486552,76.570323,210.568389,-9418.149754
973.487180,76.570323,114.855485,-9437.292334
973.487807,133.998066,172.283227,-9418.149754
973.488435,76.570323,114.855485,-9418.149754
973.489063,38.285162,114.855485,-9418.149754
973.489690,76.570323,210.568389,-9494.720077
973.490318,133.998066,133.998066,-9456.434915
973.490945,76.570323,114.855485,-9418.149754
973.491573,76.570323,114.855485,-9437.292334
973.492201,76.570323,114.855485,-9437.292334
973.492828,76.570323,172.283227,-9418.149754
973.493456,57.427742,114.855485,-9418.149754
973.494083,133.998066,114.855485,-9418.149754
973.494711,153.140646,133.998066,-9399.007173
973.495339,133.998066,114.855485,-9418.149754
973.495966,114.855485,76.570323,-9418.149754
973.496594,38.285162,153.140646,-9456.434915
973.497222,114.855485,133.998066,-9360.722011
973.497849,95.712904,133.998066,-9360.722011
973.498477,38.285162,114.855485,-9437.292334
973.499104,95.712904,95.712904,-9399.007173
973.499732,76.570323,210.568389,-9418.149754
973.500360,133.998066,114.855485,-9418.149754
973.500987,76.570323,114.855485,-9418.149754
973.501615,38.285162,114.855485,-9418.149754
973.502242,95.712904,114.855485,-9456.434915
973.502870,133.998066,114.855485,-9418.149754
973.503498,76.570323,114.855485,-9418.149754
973.504125,133.998066,114.855485,-9418.149754
973.504753,133.998066,114.855485,-9475.577496
973.505380,153.140646,133.998066,-9456.434915
973.506008,76.570323,114.855485,-9456.434915
973.506636,133.998066,172.283227,-9418.149754
973.507263,172.283227,114.855485,-9379.864592
973.507891,76.570323,114.855485,-9494.720077
973.508518,133.998066,114.855485,-9418.149754
973.509146,95.712904,133.998066,-9360.722011
973.509774,133.998066,153.140646,-9437.292334
973.510401,133.998066,172.283227,-9399.007173
973.511029,76.570323,114.855485,-9418.149754
973.511657,133.998066,114.855485,-9418.149754
973.512284,57.427742,172.283227,-9418.149754
973.512912,57.427742,133.998066,-9360.722011
973.513539,57.427742,114.855485,-9399.007173
973.514167,114.855485,95.712904,-9399.007173
973.514795,133.998066,153.140646,-9360.722011
973.515422,133.998066,153.140646,-9418.149754
973.516050,133.998066,114.855485,-9418.149754
973.516677,76.570323,153.140646,-9418.149754
973.517305,76.570323,210.568389,-9418.149754
973.517933,95.712904,133.998066,-9341.579430
973.518560,114.855485,153.140646,-9360.722011
973.519188,76.570323,114.855485,-9418.149754
973.519815,133.998066,114.855485,-9418.149754
973.520443,114.855485,133.998066,-9360.722011
973.521071,172.283227,114.855485,-9379.864592
973.521698,133.998066,172.283227,-9437.292334
973.522326,133.998066,172.283227,-9418.149754
973.522953,133.998066,172.283227,-9418.149754
973.523581,76.570323,172.283227,-9456.434915
973.524209,95.712904,191.425808,-9418.149754
973.524836,133.998066,114.855485,-9418.149754
973.525464,76.570323,210.568389,-9437.292334
973.526092,153.140646,153.140646,-9379.864592
973.526719,76.570323,153.140646,-9418.149754
973.527347,76.570323,229.710970,-9418.149754
973.527974,133.998066,114.855485,-9418.149754
973.528602,114.855485,114.855485,-9379.864592
973.529230,95.712904,114.855485,-9418.149754
973.529857,38.285162,114.855485,-9418.149754
973.530485,114.855485,95.712904,-9399.007173
973.531112,38.285162,114.855485,-9418.149754
973.531740,153.140646,172.283227,-9418.149754
973.532368,133.998066,114.855485,-9418.149754
973.532995,114.855485,153.140646,-9360.722011
973.533623,153.140646,133.998066,-9399.007173
973.534250,76.570323,114.855485,-9418.149754
973.534877,172.283227,153.140646,-9360.722011
973.535505,133.998066,133.998066,-9399.007173
973.536132,114.855485,133.998066,-9360.722011
973.536759,133.998066,114.855485,-9475.577496
973.537387,133.998066,133.998066,-9399.007173
973.538014,76.570323,114.855485,-9418.149754
973.538642,95.712904,95.712904,-9399.007173
973.539269,133.998066,210.568389,-9418.149754
973.539896,114.855485,114.855485,-9379.864592
973.540524,76.570323,114.855485,-9418.149754
973.541151,76.570323,172.283227,-9360.722011
973.541778,95.712904,114.855485,-9418.149754
973.542406,38.285162,114.855485,-9418.149754
973.543033,38.285162,114.855485,-9418.149754
973.543661,57.427742,133.998066,-9360.722011
973.544288,76.570323,114.855485,-9418.149754
973.544915,133.998066,114.855485,-9418.149754
973.545543,133.998066,133.998066,-9399.007173
973.546170,76.570323,114.855485,-9360.722011
973.546797,0.000000,133.998066,-9360.722011
973.547425,76.570323,114.855485,-9456.434915
973.548052,133.998066,114.855485,-9437.292334
973.548680,95.712904,114.855485,-9475.577496
973.549307,114.855485,95.712904,-9399.007173
973.549934,133.998066,95.712904,-9360.722011
973.550562,114.855485,133.998066,-9360.722011
973.551189,95.712904,95.712904,-9399.007173
973.551816,133.998066,114.855485,-9418.149754
973.552444,114.855485,76.570323,-9418.149754
973.553071,76.570323,114.855485,-9418.149754
973.553699,114.855485,95.712904,-9399.007173
973.554326,76.570323,114.855485,-9418.149754
973.554953,76.570323,153.140646,-9418.149754
973.555581,76.570323,172.283227,-9418.149754
973.556208,95.712904,133.998066,-9360.722011
973.556835,76.570323,172.283227,-9418.149754
973.557463,153.140646,172.283227,-9399.007173
973.558090,133.998066,153.140646,-9418.149754
973.558718,76.570323,153.140646,-9418.149754
973.559345,95.712904,153.140646,-9360.722011
973.559972,133.998066,114.855485,-9494.720077
973.560600,95.712904,95.712904,-9399.007173
973.561227,38.285162,114.855485,-9418.149754
973.561854,153.140646,114.855485,-9437.292334
973.562482,172.283227,210.568389,-9379.864592
973.563109,95.712904,287.138712,-9399.007173
973.563737,76.570323,114.855485,-9418.149754
973.564364,95.712904,95.712904,-9399.007173
973.564991,133.998066,114.855485,-9437.292334
973.565619,114.855485,133.998066,-9418.149754
973.566246,95.712904,114.855485,-9437.292334
973.566874,76.570323,114.855485,-9418.149754
973.567501,76.570323,172.283227,-9456.434915
973.568128,57.427742,153.140646,-9418.149754
973.568756,38.285162,172.283227,-9418.149754
973.569383,95.712904,114.855485,-9399.007173
973.570010,95.712904,114.855485,-9418.149754
973.570638,133.998066,114.855485,-9418.149754
973.571265,95.712904,114.855485,-9399.007173
973.571893,133.998066,114.855485,-9360.722011
973.572520,133.998066,210.568389,-9494.720077
973.573147,133.998066,114.855485,-9418.149754
973.573775,57.427742,133.998066,-9360.722011
973.574402,76.570323,114.855485,-9418.149754
973.575029,133.998066,114.855485,-9418.149754
973.575657,76.570323,114.855485,-9456.434915
973.576284,172.283227,133.998066,-9360.722011
973.576912,133.998066,153.140646,-9418.149754
973.577539,95.712904,153.140646,-9418.149754
973.578166,57.427742,114.855485,-9418.149754
973.578794,57.427742,95.712904,-9437.292334
973.579421,133.998066,114.855485,-9418.149754
973.580048,57.427742,133.998066,-9360.722011
973.580676,57.427742,114.855485,-9418.149754
973.581303,133.998066,114.855485,-9418.149754
973.581931,76.570323,114.855485,-9456.434915
973.582558,76.570323,114.855485,-9418.149754
973.583185,95.712904,133.998066,-9360.722011
973.583813,76.570323,114.855485,-9418.149754
973.584440,133.998066,114.855485,-9418.149754
973.585067,57.427742,133.998066,-9360.722011
973.585695,133.998066,172.283227,-9418.149754
973.586322,76.570323,114.855485,-9418.149754
973.586950,133.998066,114.855485,-9418.149754
973.587577,38.285162,153.140646,-9418.149754
973.588204,76.570323,172.283227,-9437.292334
973.588832,38.285162,114.855485,-9437.292334
973.589459,76.570323,114.855485,-9418.149754
973.590086,76.570323,210.568389,-9418.149754
973.590714,38.285162,153.140646,-9418.149754
973.591341,76.570323,114.855485,-9418.149754
973.591969,38.285162,114.855485,-9418.149754
973.592596,95.712904,114.855485,-9456.434915
973.593223,76.570323,210.568389,-9418.149754
973.593851,133.998066,114.855485,-9418.149754
973.594478,95.712904,172.283227,-9360.722011
973.595105,114.855485,95.712904,-9456.434915
973.595733,95.712904,76.570323,-9379.864592
973.596360,114.855485,133.998066,-9360.722011
973.596988,153.140646,133.998066,-9456.434915
973.597615,153.140646,133.998066,-9456.434915
973.598242,38.285162,153.140646,-9418.149754
973.598870,38.285162,210.568389,-9418.149754
973.599497,38.285162,191.425808,-9360.722011
973.600124,76.570323,114.855485,-9437.292334
973.600752,133.998066,153.140646,-9418.149754
973.601379,133.998066,191.425808,-9418.149754
973.602007,95.712904,248.853550,-9360.722011
973.602634,95.712904,172.283227,-9418.149754
973.603261,95.712904,95.712904,-9456.434915
973.603889,76.570323,172.283227,-9418.149754
973.604516,76.570323,114.855485,-9418.149754
973.605143,76.570323,114.855485,-9456.434915
973.605771,38.285162,153.140646,-9360.722011
973.606398,133.998066,114.855485,-9418.149754
973.607026,172.283227,76.570323,-9418.149754
973.607653,38.285162,114.855485,-9456.434915
973.608280,38.285162,114.855485,-9418.149754
973.608908,76.570323,114.855485,-9418.149754
973.609535,76.570323,114.855485,-9418.149754
973.610162,76.570323,153.140646,-9418.149754
973.610790,133.998066,210.568389,-9437.292334
973.611417,76.570323,191.425808,-9456.434915
973.612045,133.998066,153.140646,-9418.149754
973.612672,114.855485,114.855485,-9379.864592
973.613299,76.570323,114.855485,-9418.149754
973.613927,133.998066,114.855485,-9418.149754
973.614554,133.998066,172.283227,-9437.292334
973.615181,76.570323,114.855485,-9418.149754
973.615809,76.570323,114.855485,-9437.292334
973.616436,95.712904,95.712904,-9399.007173
973.617064,38.285162,153.140646,-9418.149754
973.617691,114.855485,95.712904,-9437.292334
973.618318,95.712904,114.855485,-9418.149754
