#time,accel_x,accel_y,accel_z
941.542344,95.712904,153.140646,-9418.149754
941.542971,133.998066,114.855485,-9418.149754
941.543598,76.570323,95.712904,-9494.720077
941.544225,133.998066,114.855485,-9418.149754
941.544852,114.855485,95.712904,-9399.007173
941.545479,76.570323,114.855485,-9418.149754
941.546106,76.570323,114.855485,-9456.434915
941.546733,57.427742,114.855485,-9437.292334
941.547359,76.570323,114.855485,-9418.149754
941.547986,133.998066,153.140646,-9418.149754
941.548613,38.285162,172.283227,-9418.149754
941.549240,76.570323,114.855485,-9418.149754
941.549867,76.570323,114.855485,-9418.149754
941.550494,38.285162,114.855485,-9456.434915
941.551121,76.570323,114.855485,-9418.149754
941.551748,114.855485,133.998066,-9360.722011
941.552375,133.998066,172.283227,-9475.577496
941.553002,133.998066,210.568389,-9418.149754
941.553628,133.998066,210.568389,-9437.292334
941.554255,133.998066,114.855485,-9418.149754
941.554882,153.140646,133.998066,-9399.007173
941.555509,114.855485,76.570323,-9418.149754
941.556136,95.712904,95.712904,-9399.007173
941.556763,76.570323,114.855485,-9418.149754
941.557390,38.285162,114.855485,-9418.149754
941.558017,133.998066,153.140646,-9418.149754
941.558644,76.570323,210.568389,-9418.149754
941.559271,76.570323,191.425808,-9418.149754
941.559897,95.712904,172.283227,-9360.722011
941.560524,38.285162,114.855485,-9418.149754
941.561151,95.712904,95.712904,-9399.007173
941.561778,95.712904,133.998066,-9360.722011
941.562405,133.998066,114.855485,-9533.005238
941.563032,76.570323,153.140646,-9418.149754
941.563659,153.140646,133.998066,-9399.007173
941.564286,95.712904,114.855485,-9418.149754
941.564913,76.570323,153.140646,-9418.149754
941.565540,76.570323,191.425808,-9418.149754
941.566167,133.998066,210.568389,-9418.149754
941.566793,76.570323,114.855485,-9456.434915
941.567420,76.570323,191.425808,-9418.149754
941.568047,38.285162,153.140646,-9456.434915
941.568674,95.712904,114.855485,-9418.149754
941.569301,133.998066,153.140646,-9456.434915
941.569928,38.285162,153.140646,-9437.292334
941.570555,76.570323,114.855485,-9475.577496
941.571182,114.855485,95.712904,-9399.007173
941.571809,172.283227,114.855485,-9379.864592
941.572436,133.998066,153.140646,-9494.720077
941.573062,76.570323,114.855485,-9418.149754
941.573689,76.570323,114.855485,-9475.577496
941.574316,95.712904,172.283227,-9437.292334
941.574943,76.570323,114.855485,-9456.434915
941.575570,76.570323,172.283227,-9418.149754
941.576197,38.285162,114.855485,-9456.434915
941.576824,76.570323,191.425808,-9456.434915
941.577451,95.712904,114.855485,-9456.434915
941.578078,133.998066,114.855485,-9437.292334
941.578705,95.712904,172.283227,-9475.577496
941.579331,153.140646,153.140646,-9399.007173
941.579958,133.998066,210.568389,-9418.149754
941.580585,133.998066,172.283227,-9475.577496
941.581212,76.570323,191.425808,-9360.722011
941.581839,133.998066,114.855485,-9437.292334
941.582466,153.140646,114.855485,-9418.149754
941.583093,210.568389,133.998066,-9399.007173
941.583720,114.855485,95.712904,-9399.007173
941.584347,57.427742,153.140646,-9360.722011
941.584974,133.998066,114.855485,-9418.149754
941.585600,133.998066,172.283227,-9456.434915
941.586227,76.570323,114.855485,-9418.149754
941.586854,38.285162,210.568389,-9418.149754
941.587481,57.427742,95.712904,-9399.007173
941.588108,153.140646,133.998066,-9494.720077
941.588735,76.570323,114.855485,-9360.722011
941.589362,133.998066,114.855485,-9418.149754
941.589989,95.712904,76.570323,-9475.577496
941.590616,38.285162,114.855485,-9418.149754
941.591243,76.570323,114.855485,-9418.149754
941.591869,38.285162,114.855485,-9418.149754
941.592496,76.570323,114.855485,-9475.577496
941.593123,114.855485,95.712904,-9456.434915
941.593750,133.998066,114.855485,-9437.292334
941.594377,153.140646,133.998066,-9399.007173
941.595004,76.570323,114.855485,-9456.434915
941.595632,76.570323,114.855485,-9418.149754
941.596259,38.285162,172.283227,-9418.149754
941.596886,95.712904,95.712904,-9399.007173
941.597514,133.998066,172.283227,-9456.434915
941.598141,133.998066,114.855485,-9456.434915
941.598768,133.998066,114.855485,-9418.149754
941.599396,172.283227,114.855485,-9379.864592
941.600023,133.998066,114.855485,-9437.292334
941.600650,76.570323,114.855485,-9418.149754
941.601278,76.570323,114.855485,-9418.149754
941.601905,114.855485,133.998066,-9418.149754
941.602532,133.998066,114.855485,-9437.292334
941.603160,114.855485,95.712904,-9399.007173
941.603787,76.570323,114.855485,-9418.149754
941.604414,76.570323,114.855485,-9418.149754
941.605042,76.570323,172.283227,-9360.722011
941.605669,133.998066,210.568389,-9418.149754
941.606296,95.712904,229.710970,-9456.434915
941.606924,133.998066,210.568389,-9437.292334
941.607551,133.998066,172.283227,-9418.149754
941.608178,76.570323,114.855485,-9418.149754
941.608806,153.140646,133.998066,-9399.007173
941.609433,95.712904,191.425808,-9360.722011
941.610060,38.285162,114.855485,-9418.149754
941.610688,76.570323,210.568389,-9437.292334
941.611315,133.998066,153.140646,-9418.149754
941.611942,76.570323,210.568389,-9418.149754
941.612570,76.570323,191.425808,-9418.149754
941.613197,76.570323,172.283227,-9456.434915
941.613824,38.285162,114.855485,-9418.149754
941.614452,172.283227,76.570323,-9437.292334
941.615079,95.712904,114.855485,-9418.149754
941.615706,76.570323,76.570323,-9399.007173
941.616334,153.140646,153.140646,-9399.007173
941.616961,95.712904,95.712904,-9437.292334
941.617588,133.998066,114.855485,-9418.149754
941.618216,133.998066,114.855485,-9418.149754
941.618843,153.140646,191.425808,-9399.007173
941.619470,133.998066,172.283227,-9418.149754
941.620098,76.570323,153.140646,-9418.149754
941.620725,76.570323,153.140646,-9418.149754
941.621352,133.998066,114.855485,-9437.292334
941.621980,153.140646,153.140646,-9494.720077
941.622607,76.570323,114.855485,-9437.292334
941.623234,133.998066,114.855485,-9475.577496
941.623862,153.140646,133.998066,-9399.007173
941.624489,76.570323,95.712904,-9456.434915
941.625116,76.570323,114.855485,-9418.149754
941.625744,38.285162,153.140646,-9456.434915
941.626371,76.570323,114.855485,-9456.434915
941.626998,133.998066,114.855485,-9418.149754
941.627626,76.570323,172.283227,-9418.149754
941.628253,133.998066,114.855485,-9418.149754
941.628880,95.712904,210.568389,-9399.007173
941.629508,95.712904,95.712904,-9399.007173
941.630135,38.285162,114.855485,-9418.149754
941.630762,95.712904,172.283227,-9418.149754
941.631390,133.998066,172.283227,-9437.292334
941.632017,153.140646,153.140646,-9494.720077
941.632644,153.140646,153.140646,-9437.292334
941.633272,133.998066,172.283227,-9360.722011
941.633899,76.570323,172.283227,-9456.434915
941.634526,153.140646,172.283227,-9456.434915
941.635154,38.285162,114.855485,-9437.292334
941.635781,76.570323,114.855485,-9456.434915
941.636408,133.998066,153.140646,-9437.292334
941.637036,76.570323,114.855485,-9437.292334
941.637663,153.140646,133.998066,-9399.007173
941.638290,133.998066,114.855485,-9418.149754
941.638918,153.140646,133.998066,-9399.007173
941.639545,76.570323,229.710970,-9418.149754
941.640172,133.998066,153.140646,-9456.434915
941.640800,38.285162,172.283227,-9418.149754
941.641427,95.712904,95.712904,-9399.007173
941.642054,76.570323,153.140646,-9475.577496
941.642682,133.998066,114.855485,-9494.720077
941.643309,133.998066,114.855485,-9456.434915
941.643936,76.570323,114.855485,-9418.149754
941.644564,133.998066,114.855485,-9418.149754
941.645191,76.570323,153.140646,-9494.720077
941.645818,57.427742,95.712904,-9494.720077
941.646446,76.570323,172.283227,-9456.434915
941.647073,133.998066,114.855485,-9437.292334
941.647700,38.285162,172.283227,-9437.292334
941.648328,114.855485,114.855485,-9513.862658
941.648955,133.998066,114.855485,-9475.577496
941.649582,133.998066,114.855485,-9418.149754
941.650210,172.283227,76.570323,-9437.292334
941.650837,133.998066,210.568389,-9418.149754
941.651464,114.855485,153.140646,-9379.864592
941.652092,38.285162,153.140646,-9456.434915
941.652719,133.998066,153.140646,-9418.149754
941.653346,95.712904,133.998066,-9360.722011
941.653974,133.998066,114.855485,-9418.149754
941.654601,133.998066,172.283227,-9418.149754
941.655228,133.998066,114.855485,-9418.149754
941.655855,76.570323,172.283227,-9360.722011
941.656483,38.285162,210.568389,-9456.434915
941.657110,133.998066,153.140646,-9399.007173
941.657737,76.570323,114.855485,-9456.434915
941.658365,76.570323,114.855485,-9437.292334
941.658992,76.570323,114.855485,-9418.149754
941.659619,172.283227,76.570323,-9418.149754
941.660247,57.427742,114.855485,-9418.149754
941.660874,76.570323,114.855485,-9418.149754
941.661501,76.570323,114.855485,-9437.292334
941.662129,133.998066,114.855485,-9456.434915
941.662756,114.855485,172.283227,-9360.722011
941.663383,153.140646,153.140646,-9399.007173
941.664011,133.998066,133.998066,-9399.007173
941.664638,133.998066,153.140646,-9418.149754
941.665265,38.285162,210.568389,-9418.149754
941.665893,95.712904,210.568389,-9437.292334
941.666520,133.998066,153.140646,-9418.149754
941.667147,114.855485,133.998066,-9360.722011
941.667775,76.570323,210.568389,-9437.292334
941.668402,133.998066,114.855485,-9418.149754
941.669029,133.998066,172.283227,-9418.149754
941.669657,133.998066,114.855485,-9418.149754
941.670284,133.998066,153.140646,-9418.149754
941.670911,114.855485,95.712904,-9399.007173
941.671539,153.140646,95.712904,-9360.722011
941.672166,114.855485,76.570323,-9475.577496
941.672793,114.855485,95.712904,-9494.720077
941.673421,38.285162,114.855485,-9418.149754
941.674048,133.998066,172.283227,-9418.149754
941.674675,57.427742,153.140646,-9418.149754
941.675303,76.570323,114.855485,-9437.292334
941.675930,76.570323,114.855485,-9437.292334
941.676557,133.998066,114.855485,-9418.149754
941.677185,133.998066,114.855485,-9437.292334
941.677812,76.570323,114.855485,-9456.434915
941.678439,76.570323,114.855485,-9437.292334
941.679067,76.570323,114.855485,-9418.149754
941.679694,133.998066,114.855485,-9456.434915
941.680321,95.712904,95.712904,-9399.007173
941.680949,133.998066,153.140646,-9418.149754
941.681576,114.855485,210.568389,-9379.864592
941.682203,76.570323,114.855485,-9475.577496
941.682831,38.285162,172.283227,-9418.149754
941.683458,95.712904,114.855485,-9437.292334
941.684085,133.998066,229.710970,-9418.149754
941.684713,133.998066,172.283227,-9418.149754
941.685340,133.998066,153.140646,-9418.149754
941.685967,153.140646,133.998066,-9437.292334
941.686595,153.140646,172.283227,-9418.149754
941.687222,133.998066,114.855485,-9456.434915
941.687849,76.570323,210.568389,-9418.149754
941.688477,95.712904,172.283227,-9418.149754
941.689104,133.998066,114.855485,-9475.577496
941.689731,76.570323,95.712904,-9437.292334
941.690359,76.570323,114.855485,-9437.292334
941.690986,76.570323,153.140646,-9418.149754
941.691613,95.712904,114.855485,-9418.149754
941.692241,153.140646,133.998066,-9399.007173
941.692868,76.570323,114.855485,-9475.577496
941.693495,76.570323,114.855485,-9418.149754
941.694123,133.998066,114.855485,-9418.149754
941.694750,76.570323,114.855485,-9437.292334
941.695377,114.855485,133.998066,-9360.722011
941.696004,114.855485,210.568389,-9437.292334
941.696631,133.998066,153.140646,-9437.292334
941.697258,76.570323,153.140646,-9418.149754
941.697885,76.570323,114.855485,-9418.149754
941.698512,95.712904,95.712904,-9437.292334
941.699139,76.570323,114.855485,-9437.292334
941.699766,38.285162,153.140646,-9437.292334
941.700393,114.855485,95.712904,-9399.007173
941.701020,76.570323,114.855485,-9456.434915
941.701647,133.998066,114.855485,-9418.149754
941.702274,76.570323,153.140646,-9418.149754
941.702901,76.570323,95.712904,-9399.007173
941.703528,57.427742,95.712904,-9399.007173
941.704155,76.570323,114.855485,-9418.149754
941.704782,76.570323,114.855485,-9418.149754
941.705409,76.570323,114.855485,-9418.149754
941.706036,133.998066,172.283227,-9475.577496
941.706662,153.140646,133.998066,-9437.292334
941.707289,133.998066,153.140646,-9418.149754
941.707916,76.570323,114.855485,-9437.292334
941.708543,133.998066,114.855485,-9437.292334
941.709170,133.998066,114.855485,-9418.149754
941.709797,133.998066,133.998066,-9456.434915
941.710424,57.427742,95.712904,-9399.007173
941.711051,95.712904,114.855485,-9418.149754
941.711678,133.998066,114.855485,-9418.149754
941.712305,133.998066,114.855485,-9418.149754
941.712932,76.570323,153.140646,-9437.292334
941.713559,133.998066,114.855485,-9418.149754
941.714186,133.998066,210.568389,-9379.864592
941.714813,76.570323,172.283227,-9418.149754
941.715440,153.140646,172.283227,-9399.007173
941.716067,76.570323,153.140646,-9437.292334
941.716694,114.855485,172.283227,-9418.149754
941.717321,114.855485,133.998066,-9418.149754
941.717948,95.712904,95.712904,-9399.007173
941.718575,95.712904,153.140646,-9418.149754
941.719202,95.712904,172.283227,-9456.434915
941.719829,95.712904,114.855485,-9418.149754
941.720456,76.570323,114.855485,-9418.149754
941.721083,76.570323,114.855485,-9494.720077
941.721710,76.570323,114.855485,-9418.149754
941.722337,133.998066,153.140646,-9418.149754
941.722964,76.570323,172.283227,-9418.149754
941.723591,133.998066,114.855485,-9418.149754
941.724218,95.712904,210.568389,-9418.149754
941.724845,76.570323,210.568389,-9456.434915
941.725472,133.998066,172.283227,-9418.149754
941.726099,114.855485,133.998066,-9360.722011
941.726726,114.855485,95.712904,-9399.007173
941.727353,76.570323,153.140646,-9418.149754
941.727980,153.140646,133.998066,-9399.007173
941.728607,133.998066,114.855485,-9437.292334
941.729233,133.998066,153.140646,-9418.149754
941.729860,133.998066,114.855485,-9418.149754
941.730487,76.570323,114.855485,-9418.149754
941.731114,38.285162,114.855485,-9475.577496
941.731741,57.427742,114.855485,-9418.149754
941.732368,38.285162,153.140646,-9418.149754
941.732995,95.712904,133.998066,-9360.722011
941.733622,172.283227,76.570323,-9418.149754
941.734249,76.570323,114.855485,-9418.149754
941.734876,191.425808,172.283227,-9399.007173
941.735503,153.140646,133.998066,-9475.577496
941.736130,153.140646,133.998066,-9399.007173
941.736757,95.712904,172.283227,-9475.577496
941.737384,76.570323,114.855485,-9418.149754
941.738011,76.570323,95.712904,-9399.007173
941.738638,38.285162,114.855485,-9456.434915
941.739265,76.570323,114.855485,-9456.434915
941.739892,38.285162,114.855485,-9418.149754
941.740519,133.998066,172.283227,-9475.577496
941.741146,57.427742,95.712904,-9399.007173
941.741773,114.855485,133.998066,-9360.722011
941.742400,19.142581,172.283227,-9418.149754
941.743027,133.998066,153.140646,-9418.149754
941.743654,76.570323,172.283227,-9418.149754
941.744281,133.998066,114.855485,-9437.292334
941.744908,76.570323,153.140646,-9418.149754
941.745535,133.998066,76.570323,-9513.862658
941.746162,133.998066,114.855485,-9437.292334
941.746789,76.570323,210.568389,-9494.720077
941.747416,57.427742,95.712904,-9399.007173
941.748043,95.712904,153.140646,-9360.722011
941.748670,76.570323,172.283227,-9360.722011
941.749297,133.998066,114.855485,-9418.149754
941.749924,95.712904,133.998066,-9360.722011
941.750551,38.285162,114.855485,-9494.720077
941.751178,76.570323,114.855485,-9418.149754
941.751804,95.712904,114.855485,-9418.149754
941.752431,133.998066,114.855485,-9418.149754
941.753058,133.998066,114.855485,-9456.434915
941.753685,133.998066,114.855485,-9418.149754
941.754312,114.855485,95.712904,-9399.007173
941.754939,133.998066,133.998066,-9399.007173
941.755566,76.570323,114.855485,-9418.149754
941.756193,76.570323,172.283227,-9418.149754
941.756820,133.998066,210.568389,-9418.149754
941.757447,133.998066,133.998066,-9456.434915
941.758074,133.998066,114.855485,-9456.434915
941.758701,38.285162,153.140646,-9418.149754
941.759328,133.998066,114.855485,-9418.149754
941.759955,76.570323,114.855485,-9437.292334
941.760582,133.998066,114.855485,-9456.434915
941.761209,95.712904,114.855485,-9494.720077
941.761836,76.570323,114.855485,-9456.434915
941.762463,133.998066,153.140646,-9437.292334
941.763090,76.570323,114.855485,-9418.149754
941.763717,76.570323,172.283227,-9418.149754
941.764344,133.998066,172.283227,-9437.292334
941.764971,133.998066,153.140646,-9475.577496
941.765598,76.570323,114.855485,-9475.577496
941.766225,133.998066,114.855485,-9437.292334
941.766852,133.998066,114.855485,-9437.292334
941.767479,76.570323,172.283227,-9418.149754
941.768106,38.285162,114.855485,-9437.292334
941.768733,38.285162,114.855485,-9418.149754
941.769360,57.427742,95.712904,-9399.007173
941.769987,76.570323,172.283227,-9418.149754
941.770614,133.998066,133.998066,-9360.722011
941.771241,153.140646,133.998066,-9399.007173
941.771868,133.998066,114.855485,-9418.149754
941.772495,95.712904,172.283227,-9418.149754
941.773122,76.570323,114.855485,-9418.149754
941.773749,76.570323,114.855485,-9418.149754
941.774375,38.285162,114.855485,-9437.292334
941.775002,76.570323,114.855485,-9456.434915
941.775629,133.998066,172.283227,-9437.292334
941.776256,76.570323,172.283227,-9360.722011
941.776883,76.570323,172.283227,-9418.149754
941.777510,133.998066,114.855485,-9475.577496
941.778137,133.998066,191.425808,-9437.292334
941.778764,76.570323,114.855485,-9418.149754
941.779391,133.998066,172.283227,-9418.149754
941.780018,153.140646,153.140646,-9418.149754
941.780645,133.998066,114.855485,-9418.149754
941.781272,95.712904,153.140646,-9360.722011
941.781899,38.285162,172.283227,-9437.292334
941.782526,95.712904,210.568389,-9456.434915
941.783153,38.285162,172.283227,-9418.149754
941.783780,76.570323,114.855485,-9418.149754
941.784407,133.998066,114.855485,-9418.149754
941.785034,57.427742,95.712904,-9456.434915
941.785661,95.712904,133.998066,-9360.722011
941.786288,57.427742,133.998066,-9360.722011
941.786915,76.570323,114.855485,-9437.292334
941.787542,114.855485,95.712904,-9399.007173
941.788169,133.998066,133.998066,-9399.007173
941.788796,133.998066,153.140646,-9456.434915
941.789423,95.712904,229.710970,-9437.292334
941.790050,76.570323,191.425808,-9437.292334
941.790677,95.712904,229.710970,-9399.007173
941.791304,95.712904,229.710970,-9437.292334
941.791931,95.712904,95.712904,-9399.007173
941.792558,76.570323,114.855485,-9437.292334
941.793185,210.568389,153.140646,-9399.007173
941.793812,133.998066,114.855485,-9418.149754
941.794439,76.570323,153.140646,-9494.720077
941.795066,153.140646,114.855485,-9418.149754
941.795693,133.998066,153.140646,-9399.007173
941.796319,153.140646,172.283227,-9399.007173
941.796946,133.998066,114.855485,-9456.434915
941.797573,172.283227,114.855485,-9379.864592
941.798200,38.285162,114.855485,-9437.292334
941.798827,133.998066,172.283227,-9456.434915
941.799454,76.570323,172.283227,-9418.149754
941.800081,76.570323,114.855485,-9418.149754
941.800709,76.570323,153.140646,-9437.292334
941.801336,38.285162,114.855485,-9418.149754
941.801964,133.998066,114.855485,-9418.149754
941.802591,76.570323,114.855485,-9418.149754
941.803218,76.570323,172.283227,-9418.149754
941.803846,76.570323,114.855485,-9418.149754
941.804473,38.285162,114.855485,-9418.149754
941.805101,38.285162,172.283227,-9437.292334
941.805728,95.712904,114.855485,-9437.292334
941.806355,95.712904,153.140646,-9533.005238
941.806983,95.712904,114.855485,-9475.577496
941.807610,76.570323,153.140646,-9418.149754
941.808238,57.427742,248.853550,-9360.722011
941.808865,95.712904,172.283227,-9456.434915
941.809492,76.570323,172.283227,-9418.149754
941.810120,95.712904,114.855485,-9418.149754
941.810747,153.140646,133.998066,-9379.864592
941.811375,76.570323,172.283227,-9533.005238
941.812002,76.570323,172.283227,-9456.434915
941.812630,57.427742,95.712904,-9494.720077
941.813257,38.285162,114.855485,-9418.149754
941.813884,38.285162,172.283227,-9475.577496
941.814512,38.285162,229.710970,-9418.149754
941.815139,133.998066,153.140646,-9533.005238
941.815767,57.427742,95.712904,-9399.007173
941.816394,76.570323,95.712904,-9475.577496
941.817021,133.998066,172.283227,-9418.149754
941.817649,133.998066,114.855485,-9418.149754
941.818276,133.998066,153.140646,-9418.149754
941.818904,76.570323,114.855485,-9456.434915
941.819531,76.570323,153.140646,-9418.149754
941.820158,38.285162,172.283227,-9437.292334
941.820786,133.998066,172.283227,-9456.434915
941.821413,133.998066,153.140646,-9418.149754
941.822041,76.570323,114.855485,-9418.149754
941.822668,76.570323,114.855485,-9475.577496
941.823296,57.427742,95.712904,-9399.007173
941.823923,133.998066,114.855485,-9437.292334
941.824550,133.998066,114.855485,-9475.577496
941.825178,133.998066,153.140646,-9456.434915
941.825805,76.570323,114.855485,-9418.149754
941.826433,114.855485,133.998066,-9360.722011
941.827060,76.570323,172.283227,-9418.149754
941.827687,133.998066,153.140646,-9399.007173
941.828315,133.998066,172.283227,-9437.292334
941.828942,133.998066,133.998066,-9379.864592
941.829570,133.998066,210.568389,-9418.149754
941.830197,38.285162,114.855485,-9418.149754
941.830824,76.570323,114.855485,-9456.434915
941.831452,38.285162,114.855485,-9418.149754
941.832079,76.570323,114.855485,-9418.149754
941.832707,133.998066,153.140646,-9418.149754
941.833334,133.998066,114.855485,-9418.149754
941.833962,153.140646,133.998066,-9399.007173
941.834589,153.140646,153.140646,-9437.292334
941.835216,133.998066,114.855485,-9418.149754
941.835844,38.285162,210.568389,-9418.149754
941.836471,95.712904,172.283227,-9418.149754
941.837099,133.998066,153.140646,-9399.007173
941.837726,19.142581,153.140646,-9437.292334
941.838353,95.712904,153.140646,-9418.149754
941.838981,114.855485,153.140646,-9379.864592
941.839608,133.998066,153.140646,-9418.149754
941.840236,114.855485,229.710970,-9379.864592
941.840863,133.998066,153.140646,-9418.149754
941.841490,76.570323,153.140646,-9437.292334
941.842118,76.570323,172.283227,-9418.149754
941.842745,76.570323,114.855485,-9437.292334
941.843373,76.570323,172.283227,-9418.149754
941.844000,38.285162,114.855485,-9437.292334
941.844628,95.712904,172.283227,-9418.149754
941.845255,76.570323,210.568389,-9418.149754
941.845882,133.998066,114.855485,-9418.149754
941.846510,95.712904,95.712904,-9475.577496
941.847137,76.570323,114.855485,-9437.292334
941.847765,133.998066,114.855485,-9418.149754
941.848392,133.998066,172.283227,-9418.149754
941.849019,133.998066,114.855485,-9437.292334
941.849647,114.855485,76.570323,-9475.577496
941.850274,114.855485,133.998066,-9418.149754
941.850902,76.570323,114.855485,-9456.434915
941.851529,133.998066,114.855485,-9456.434915
941.852156,76.570323,114.855485,-9418.149754
941.852784,133.998066,114.855485,-9437.292334
941.853411,76.570323,114.855485,-9418.149754
941.854039,76.570323,114.855485,-9437.292334
941.854666,133.998066,210.568389,-9360.722011
941.855293,153.140646,133.998066,-9399.007173
941.855921,133.998066,114.855485,-9475.577496
941.856548,114.855485,114.855485,-9418.149754
941.857176,76.570323,210.568389,-9437.292334
941.857803,95.712904,95.712904,-9437.292334
941.858431,95.712904,114.855485,-9418.149754
941.859058,76.570323,172.283227,-9418.149754
941.859685,76.570323,172.283227,-9418.149754
941.860313,133.998066,153.140646,-9418.149754
941.860940,133.998066,172.283227,-9418.149754
941.861568,76.570323,172.283227,-9456.434915
941.862195,76.570323,114.855485,-9437.292334
941.862822,76.570323,114.855485,-9456.434915
941.863450,76.570323,114.855485,-9418.149754
941.864077,133.998066,114.855485,-9437.292334
941.864705,133.998066,114.855485,-9437.292334
941.865332,133.998066,114.855485,-9456.434915
941.865959,133.998066,153.140646,-9418.149754
941.866587,133.998066,114.855485,-9418.149754
941.867214,76.570323,114.855485,-9456.434915
941.867842,76.570323,114.855485,-9456.434915
941.868469,76.570323,114.855485,-9418.149754
941.869097,38.285162,114.855485,-9418.149754
941.869724,95.712904,114.855485,-9399.007173
941.870351,76.570323,114.855485,-9418.149754
941.870979,114.855485,95.712904,-9399.007173
941.871606,76.570323,210.568389,-9437.292334
941.872234,114.855485,95.712904,-9456.434915
941.872861,133.998066,153.140646,-9418.149754
941.873488,153.140646,133.998066,-9399.007173
941.874116,133.998066,153.140646,-9418.149754
941.874743,133.998066,133.998066,-9456.434915
941.875371,76.570323,95.712904,-9399.007173
941.875998,38.285162,114.855485,-9456.434915
941.876625,76.570323,114.855485,-9418.149754
941.877253,76.570323,114.855485,-9418.149754
941.877880,76.570323,153.140646,-9418.149754
941.878508,95.712904,114.855485,-9437.292334
941.879135,76.570323,114.855485,-9456.434915
941.879763,76.570323,114.855485,-9418.149754
941.880390,95.712904,114.855485,-9399.007173
941.881017,114.855485,133.998066,-9360.722011
941.881645,114.855485,95.712904,-9399.007173
941.882272,133.998066,133.998066,-9399.007173
941.882900,76.570323,114.855485,-9418.149754
941.883527,95.712904,172.283227,-9418.149754
941.884154,76.570323,210.568389,-9437.292334
941.884782,76.570323,153.140646,-9475.577496
941.885409,76.570323,191.425808,-9418.149754
941.886037,133.998066,191.425808,-9418.149754
941.886664,76.570323,172.283227,-9494.720077
941.887291,133.998066,133.998066,-9399.007173
941.887919,76.570323,114.855485,-9456.434915
941.888546,76.570323,114.855485,-9418.149754
941.889174,114.855485,95.712904,-9399.007173
941.889801,133.998066,153.140646,-9418.149754
941.890429,95.712904,133.998066,-9341.579430
941.891056,76.570323,114.855485,-9399.007173
941.891683,76.570323,172.283227,-9456.434915
941.892311,76.570323,114.855485,-9418.149754
941.892938,133.998066,153.140646,-9437.292334
941.893566,114.855485,95.712904,-9399.007173
941.894193,153.140646,133.998066,-9437.292334
941.894820,133.998066,114.855485,-9475.577496
941.895448,38.285162,114.855485,-9475.577496
941.896075,133.998066,114.855485,-9418.149754
941.896703,133.998066,114.855485,-9418.149754
941.897330,76.570323,114.855485,-9418.149754
941.897957,133.998066,133.998066,-9456.434915
941.898585,133.998066,114.855485,-9418.149754
941.899212,133.998066,114.855485,-9418.149754
941.899840,133.998066,153.140646,-9437.292334
941.900467,76.570323,114.855485,-9475.577496
941.901094,57.427742,95.712904,-9456.434915
941.901722,95.712904,95.712904,-9399.007173
941.902349,133.998066,114.855485,-9360.722011
941.902976,76.570323,153.140646,-9418.149754
941.903603,114.855485,95.712904,-9379.864592
941.904231,133.998066,114.855485,-9418.149754
941.904858,76.570323,114.855485,-9437.292334
941.905485,153.140646,210.568389,-9399.007173
941.906112,133.998066,172.283227,-9418.149754
941.906740,133.998066,210.568389,-9418.149754
941.907367,133.998066,191.425808,-9418.149754
941.907994,38.285162,153.140646,-9418.149754
941.908622,133.998066,114.855485,-9437.292334
941.909249,133.998066,114.855485,-9475.577496
941.909876,133.998066,114.855485,-9418.149754
941.910503,76.570323,172.283227,-9475.577496
941.911131,76.570323,114.855485,-9418.149754
941.911758,153.140646,133.998066,-9399.007173
941.912385,133.998066,133.998066,-9437.292334
941.913012,133.998066,114.855485,-9437.292334
941.913640,76.570323,114.855485,-9418.149754
941.914267,76.570323,153.140646,-9437.292334
941.914894,95.712904,172.283227,-9418.149754
941.915521,95.712904,172.283227,-9418.149754
941.916149,76.570323,172.283227,-9418.149754
941.916776,76.570323,114.855485,-9418.149754
941.917403,95.712904,114.855485,-9418.149754
941.918030,76.570323,172.283227,-9418.149754
941.918658,114.855485,153.140646,-9360.722011
941.919285,95.712904,153.140646,-9418.149754
941.919912,76.570323,210.568389,-9418.149754
941.920540,133.998066,114.855485,-9418.149754
941.921167,133.998066,114.855485,-9437.292334
941.921794,153.140646,133.998066,-9399.007173
941.922421,133.998066,114.855485,-9418.149754
941.923049,133.998066,172.283227,-9418.149754
941.923676,76.570323,114.855485,-9418.149754
941.924303,133.998066,114.855485,-9494.720077
941.924930,76.570323,153.140646,-9475.577496
941.925558,19.142581,172.283227,-9456.434915
941.926185,133.998066,114.855485,-9456.434915
941.926812,153.140646,153.140646,-9399.007173
941.927439,153.140646,114.855485,-9360.722011
941.928067,133.998066,114.855485,-9418.149754
941.928694,114.855485,95.712904,-9399.007173
941.929321,76.570323,172.283227,-9418.149754
941.929948,76.570323,172.283227,-9418.149754
941.930576,95.712904,172.283227,-9418.149754
941.931203,133.998066,172.283227,-9437.292334
941.931830,76.570323,114.855485,-9418.149754
941.932458,114.855485,95.712904,-9456.434915
941.933085,76.570323,114.855485,-9418.149754
941.933712,76.570323,172.283227,-9418.149754
941.934339,76.570323,114.855485,-9360.722011
941.934967,114.855485,133.998066,-9360.722011
941.935594,133.998066,210.568389,-9360.722011
941.936221,133.998066,172.283227,-9418.149754
941.936848,153.140646,133.998066,-9399.007173
941.937476,133.998066,114.855485,-9418.149754
941.938103,133.998066,114.855485,-9418.149754
941.938730,95.712904,95.712904,-9437.292334
941.939357,95.712904,95.712904,-9399.007173
941.939985,76.570323,172.283227,-9418.149754
941.940612,95.712904,95.712904,-9399.007173
941.941239,114.855485,95.712904,-9399.007173
941.941866,172.283227,76.570323,-9475.577496
941.942494,114.855485,133.998066,-9475.577496
941.943121,57.427742,114.855485,-9418.149754
941.943748,95.712904,153.140646,-9456.434915
941.944376,133.998066,133.998066,-9456.434915
941.945003,133.998066,114.855485,-9533.005238
941.945630,172.283227,76.570323,-9437.292334
941.946257,38.285162,114.855485,-9456.434915
941.946885,133.998066,114.855485,-9475.577496
941.947512,133.998066,114.855485,-9456.434915
941.948139,133.998066,229.710970,-9437.292334
941.948766,95.712904,210.568389,-9475.577496
941.949394,133.998066,153.140646,-9418.149754
941.950021,133.998066,172.283227,-9437.292334
941.950648,133.998066,114.855485,-9418.149754
941.951275,133.998066,114.855485,-9418.149754
941.951903,133.998066,133.998066,-9456.434915
941.952530,76.570323,172.283227,-9418.149754
941.953157,76.570323,172.283227,-9437.292334
941.953785,133.998066,114.855485,-9475.577496
941.954412,76.570323,114.855485,-9456.434915
941.955039,133.998066,153.140646,-9418.149754
941.955666,76.570323,114.855485,-9418.149754
941.956294,57.427742,172.283227,-9360.722011
941.956921,76.570323,114.855485,-9456.434915
941.957548,133.998066,114.855485,-9418.149754
941.958175,76.570323,210.568389,-9437.292334
941.958803,133.998066,153.140646,-9418.149754
941.959430,76.570323,114.855485,-9475.577496
941.960057,95.712904,114.855485,-9418.149754
941.960684,133.998066,114.855485,-9437.292334
941.961312,95.712904,95.712904,-9437.292334
941.961939,76.570323,153.140646,-9418.149754
941.962566,38.285162,210.568389,-9475.577496
941.963193,76.570323,114.855485,-9418.149754
941.963821,76.570323,114.855485,-9418.149754
941.964448,133.998066,172.283227,-9418.149754
941.965075,153.140646,210.568389,-9399.007173
941.965703,76.570323,210.568389,-9418.149754
941.966330,153.140646,133.998066,-9399.007173
941.966957,95.712904,114.855485,-9418.149754
941.967584,95.712904,229.710970,-9418.149754
941.968212,95.712904,114.855485,-9418.149754
941.968839,57.427742,191.425808,-9360.722011
941.969466,114.855485,172.283227,-9418.149754
941.970093,95.712904,95.712904,-9399.007173
941.970721,76.570323,114.855485,-9418.149754
941.971348,172.283227,76.570323,-9418.149754
941.971975,153.140646,133.998066,-9399.007173
941.972602,153.140646,133.998066,-9399.007173
941.973230,38.285162,172.283227,-9418.149754
941.973857,153.140646,133.998066,-9494.720077
941.974484,133.998066,153.140646,-9418.149754
941.975111,133.998066,114.855485,-9418.149754
941.975739,153.140646,133.998066,-9399.007173
941.976366,133.998066,133.998066,-9399.007173
941.976993,76.570323,114.855485,-9418.149754
941.977621,95.712904,95.712904,-9513.862658
941.978248,133.998066,114.855485,-9475.577496
941.978875,95.712904,114.855485,-9418.149754
941.979502,133.998066,114.855485,-9418.149754
941.980130,76.570323,153.140646,-9437.292334
941.980757,114.855485,191.425808,-9360.722011
941.981384,133.998066,114.855485,-9418.149754
941.982011,95.712904,153.140646,-9418.149754
941.982639,76.570323,153.140646,-9418.149754
941.983266,133.998066,114.855485,-9418.149754
941.983893,133.998066,114.855485,-9437.292334
941.984520,76.570323,114.855485,-9475.577496
941.985148,76.570323,95.712904,-9399.007173
941.985775,76.570323,114.855485,-9418.149754
941.986402,76.570323,153.140646,-9418.149754
941.987029,114.855485,153.140646,-9360.722011
941.987657,95.712904,114.855485,-9418.149754
941.988284,133.998066,172.283227,-9437.292334
941.988911,133.998066,172.283227,-9456.434915
941.989539,114.855485,114.855485,-9418.149754
941.990166,133.998066,172.283227,-9399.007173
941.990793,38.285162,210.568389,-9456.434915
941.991420,133.998066,191.425808,-9418.149754
941.992048,38.285162,172.283227,-9418.149754
941.992675,95.712904,114.855485,-9418.149754
941.993302,76.570323,114.855485,-9456.434915
941.993929,76.570323,114.855485,-9418.149754
941.994557,133.998066,172.283227,-9437.292334
941.995184,133.998066,172.283227,-9418.149754
941.995811,133.998066,114.855485,-9418.149754
941.996438,95.712904,153.140646,-9360.722011
941.997066,76.570323,114.855485,-9456.434915
941.997693,57.427742,114.855485,-9418.149754
941.998320,38.285162,114.855485,-9418.149754
941.998947,133.998066,133.998066,-9437.292334
941.999575,133.998066,114.855485,-9437.292334
942.000202,95.712904,95.712904,-9399.007173
942.000829,76.570323,172.283227,-9437.292334
942.001457,76.570323,172.283227,-9456.434915
942.002085,38.285162,114.855485,-9418.149754
942.002712,95.712904,95.712904,-9456.434915
942.003340,57.427742,114.855485,-9418.149754
942.003968,38.285162,114.855485,-9437.292334
942.004596,133.998066,172.283227,-9399.007173
942.005223,133.998066,133.998066,-9399.007173
942.005851,76.570323,114.855485,-9418.149754
942.006479,76.570323,153.140646,-9437.292334
942.007106,133.998066,114.855485,-9437.292334
942.007734,133.998066,114.855485,-9475.577496
942.008362,57.427742,133.998066,-9360.722011
942.008989,133.998066,153.140646,-9475.577496
942.009617,76.570323,114.855485,-9437.292334
942.010245,133.998066,114.855485,-9418.149754
942.010873,153.140646,133.998066,-9379.864592
942.011500,76.570323,210.568389,-9418.149754
942.012128,153.140646,133.998066,-9456.434915
942.012756,133.998066,153.140646,-9494.720077
942.013383,76.570323,114.855485,-9418.149754
942.014011,133.998066,191.425808,-9418.149754
942.014639,133.998066,114.855485,-9456.434915
942.015267,133.998066,153.140646,-9456.434915
942.015894,76.570323,114.855485,-9418.149754
942.016522,153.140646,114.855485,-9437.292334
942.017150,76.570323,153.140646,-9456.434915
942.017777,76.570323,114.855485,-9437.292334
942.018405,95.712904,95.712904,-9456.434915
942.019033,172.283227,76.570323,-9418.149754
942.019661,133.998066,153.140646,-9437.292334
942.020288,76.570323,114.855485,-9533.005238
942.020916,76.570323,114.855485,-9475.577496
942.021544,76.570323,153.140646,-9437.292334
942.022171,95.712904,153.140646,-9437.292334
942.022799,114.855485,76.570323,-9418.149754
942.023427,95.712904,95.712904,-9437.292334
942.024054,76.570323,153.140646,-9418.149754
942.024682,76.570323,172.283227,-9437.292334
942.025310,76.570323,114.855485,-9418.149754
942.025938,76.570323,114.855485,-9418.149754
942.026565,114.855485,76.570323,-9418.149754
942.027193,133.998066,114.855485,-9418.149754
942.027821,133.998066,133.998066,-9399.007173
942.028448,95.712904,191.425808,-9360.722011
942.029076,38.285162,172.283227,-9437.292334
942.029704,76.570323,114.855485,-9418.149754
942.030332,76.570323,114.855485,-9418.149754
942.030959,57.427742,114.855485,-9418.149754
942.031587,95.712904,210.568389,-9418.149754
942.032215,38.285162,153.140646,-9418.149754
942.032842,76.570323,114.855485,-9475.577496
942.033470,95.712904,95.712904,-9399.007173
942.034098,133.998066,133.998066,-9399.007173
942.034725,76.570323,172.283227,-9475.577496
942.035353,76.570323,210.568389,-9418.149754
942.035981,38.285162,114.855485,-9475.577496
942.036609,114.855485,95.712904,-9437.292334
942.037236,76.570323,114.855485,-9418.149754
942.037864,153.140646,114.855485,-9437.292334
942.038492,153.140646,133.998066,-9399.007173
942.039119,133.998066,114.855485,-9418.149754
942.039747,76.570323,229.710970,-9437.292334
942.040375,172.283227,248.853550,-9418.149754
942.041003,133.998066,114.855485,-9456.434915
942.041630,95.712904,172.283227,-9418.149754
942.042258,38.285162,114.855485,-9418.149754
942.042886,38.285162,153.140646,-9418.149754
942.043513,76.570323,114.855485,-9437.292334
942.044141,57.427742,133.998066,-9360.722011
942.044769,114.855485,95.712904,-9399.007173
942.045396,133.998066,114.855485,-9456.434915
942.046024,133.998066,114.855485,-9456.434915
942.046652,76.570323,76.570323,-9379.864592
942.047280,133.998066,153.140646,-9437.292334
942.047907,38.285162,114.855485,-9418.149754
942.048535,76.570323,172.283227,-9418.149754
942.049163,133.998066,153.140646,-9437.292334
942.049790,133.998066,133.998066,-9437.292334
942.050418,133.998066,114.855485,-9418.149754
942.051046,76.570323,114.855485,-9418.149754
942.051674,153.140646,133.998066,-9399.007173
942.052301,76.570323,114.855485,-9437.292334
942.052929,133.998066,114.855485,-9418.149754
942.053557,76.570323,114.855485,-9418.149754
942.054184,133.998066,153.140646,-9418.149754
942.054812,133.998066,114.855485,-9437.292334
942.055440,133.998066,114.855485,-9418.149754
942.056068,133.998066,172.283227,-9418.149754
942.056695,153.140646,191.425808,-9437.292334
942.057323,133.998066,172.283227,-9418.149754
942.057951,95.712904,153.140646,-9418.149754
942.058578,114.855485,133.998066,-9360.722011
942.059206,153.140646,133.998066,-9399.007173
942.059834,133.998066,172.283227,-9418.149754
942.060461,114.855485,172.283227,-9360.722011
942.061089,76.570323,153.140646,-9418.149754
942.061717,153.140646,153.140646,-9399.007173
942.062345,76.570323,172.283227,-9437.292334
942.062972,76.570323,153.140646,-9418.149754
942.063600,133.998066,114.855485,-9418.149754
942.064228,133.998066,114.855485,-9418.149754
942.064855,153.140646,153.140646,-9456.434915
942.065483,38.285162,114.855485,-9418.149754
942.066111,76.570323,114.855485,-9437.292334
942.066739,38.285162,114.855485,-9418.149754
942.067366,95.712904,172.283227,-9456.434915
942.067994,76.570323,114.855485,-9437.292334
942.068622,95.712904,172.283227,-9437.292334
942.069249,133.998066,172.283227,-9418.149754
942.069877,153.140646,133.998066,-9399.007173
942.070505,76.570323,114.855485,-9418.149754
942.071132,76.570323,114.855485,-9418.149754
942.071760,114.855485,114.855485,-9379.864592
942.072388,95.712904,95.712904,-9399.007173
942.073016,76.570323,114.855485,-9437.292334
942.073643,76.570323,114.855485,-9418.149754
942.074271,133.998066,172.283227,-9418.149754
942.074899,76.570323,114.855485,-9456.434915
942.075526,133.998066,114.855485,-9437.292334
942.076154,153.140646,153.140646,-9494.720077
942.076782,76.570323,114.855485,-9437.292334
942.077410,153.140646,153.140646,-9399.007173
942.078037,76.570323,114.855485,-9456.434915
942.078665,76.570323,153.140646,-9418.149754
942.079293,38.285162,153.140646,-9418.149754
942.079920,38.285162,114.855485,-9418.149754
942.080548,76.570323,153.140646,-9418.149754
942.081176,153.140646,133.998066,-9399.007173
942.081803,153.140646,172.283227,-9399.007173
942.082431,76.570323,172.283227,-9418.149754
942.083059,133.998066,172.283227,-9418.149754
942.083687,76.570323,114.855485,-9437.292334
942.084314,114.855485,76.570323,-9418.149754
942.084942,76.570323,172.283227,-9418.149754
942.085570,133.998066,153.140646,-9418.149754
942.086197,38.285162,114.855485,-9494.720077
942.086825,133.998066,172.283227,-9418.149754
942.087453,76.570323,153.140646,-9437.292334
942.088081,133.998066,229.710970,-9418.149754
942.088708,133.998066,210.568389,-9456.434915
942.089336,76.570323,114.855485,-9418.149754
942.089964,114.855485,133.998066,-9360.722011
942.090591,133.998066,114.855485,-9456.434915
942.091219,114.855485,114.855485,-9399.007173
942.091847,133.998066,114.855485,-9418.149754
942.092475,76.570323,153.140646,-9456.434915
942.093102,76.570323,114.855485,-9418.149754
942.093730,76.570323,114.855485,-9418.149754
942.094358,133.998066,210.568389,-9418.149754
942.094985,133.998066,133.998066,-9399.007173
942.095613,76.570323,172.283227,-9418.149754
942.096241,133.998066,114.855485,-9437.292334
942.096868,133.998066,133.998066,-9475.577496
942.097496,38.285162,114.855485,-9418.149754
942.098124,57.427742,114.855485,-9418.149754
942.098752,95.712904,95.712904,-9399.007173
942.099379,57.427742,95.712904,-9399.007173
942.100007,76.570323,114.855485,-9456.434915
942.100635,133.998066,114.855485,-9494.720077
942.101262,76.570323,95.712904,-9399.007173
942.101890,133.998066,172.283227,-9418.149754
942.102517,133.998066,172.283227,-9418.149754
942.103144,38.285162,114.855485,-9418.149754
942.103772,95.712904,153.140646,-9437.292334
942.104399,114.855485,95.712904,-9399.007173
942.105027,38.285162,114.855485,-9456.434915
942.105654,38.285162,172.283227,-9418.149754
942.106281,38.285162,114.855485,-9418.149754
942.106909,76.570323,210.568389,-9437.292334
942.107536,76.570323,153.140646,-9418.149754
942.108163,76.570323,114.855485,-9437.292334
942.108791,38.285162,114.855485,-9456.434915
942.109418,57.427742,114.855485,-9456.434915
942.110045,95.712904,95.712904,-9437.292334
942.110673,38.285162,114.855485,-9418.149754
942.111300,133.998066,114.855485,-9360.722011
942.111928,57.427742,133.998066,-9360.722011
942.112555,133.998066,114.855485,-9437.292334
942.113182,95.712904,114.855485,-9475.577496
942.113810,76.570323,114.855485,-9437.292334
942.114437,114.855485,153.140646,-9360.722011
942.115064,76.570323,153.140646,-9418.149754
942.115692,38.285162,114.855485,-9437.292334
942.116319,0.000000,153.140646,-9418.149754
942.116946,76.570323,172.283227,-9456.434915
942.117574,76.570323,114.855485,-9437.292334
942.118201,133.998066,133.998066,-9399.007173
942.118829,76.570323,114.855485,-9418.149754
942.119456,76.570323,114.855485,-9418.149754
942.120083,76.570323,114.855485,-9418.149754
942.120711,38.285162,153.140646,-9418.149754
942.121338,76.570323,114.855485,-9360.722011
942.121965,133.998066,210.568389,-9399.007173
942.122593,133.998066,114.855485,-9437.292334
942.123220,95.712904,95.712904,-9437.292334
942.123847,76.570323,114.855485,-9437.292334
942.124475,133.998066,153.140646,-9456.434915
942.125102,76.570323,153.140646,-9456.434915
942.125730,153.140646,172.283227,-9399.007173
942.126357,76.570323,153.140646,-9475.577496
942.126984,76.570323,153.140646,-9456.434915
942.127612,38.285162,153.140646,-9437.292334
942.128239,57.427742,95.712904,-9399.007173
942.128866,38.285162,114.855485,-9437.292334
942.129494,133.998066,153.140646,-9437.292334
942.130121,133.998066,114.855485,-9437.292334
942.130748,76.570323,114.855485,-9418.149754
942.131376,95.712904,210.568389,-9456.434915
942.132003,76.570323,153.140646,-9418.149754
942.132631,133.998066,114.855485,-9418.149754
942.133258,38.285162,153.140646,-9456.434915
942.133885,133.998066,133.998066,-9399.007173
942.134513,76.570323,114.855485,-9456.434915
942.135140,38.285162,153.140646,-9475.577496
942.135767,133.998066,210.568389,-9418.149754
942.136395,153.140646,133.998066,-9399.007173
942.137022,76.570323,114.855485,-9418.149754
942.137650,133.998066,114.855485,-9418.149754
942.138277,76.570323,114.855485,-9418.149754
942.138904,38.285162,172.283227,-9418.149754
942.139532,76.570323,210.568389,-9437.292334
942.140159,133.998066,114.855485,-9456.434915
942.140786,76.570323,153.140646,-9418.149754
942.141414,76.570323,114.855485,-9418.149754
942.142041,38.285162,114.855485,-9418.149754
942.142668,133.998066,114.855485,-9437.292334
942.143296,133.998066,133.998066,-9437.292334
942.143923,76.570323,76.570323,-9379.864592
942.144551,76.570323,114.855485,-9456.434915
942.145178,133.998066,133.998066,-9399.007173
942.145805,133.998066,210.568389,-9418.149754
942.146433,153.140646,133.998066,-9399.007173
942.147060,76.570323,172.283227,-9418.149754
942.147687,38.285162,172.283227,-9456.434915
942.148315,76.570323,114.855485,-9418.149754
942.148942,95.712904,210.568389,-9418.149754
942.149569,76.570323,153.140646,-9399.007173
942.150197,133.998066,172.283227,-9418.149754
942.150824,76.570323,114.855485,-9437.292334
942.151452,95.712904,95.712904,-9399.007173
942.152079,133.998066,114.855485,-9418.149754
942.152706,133.998066,114.855485,-9418.149754
942.153334,133.998066,172.283227,-9418.149754
942.153961,114.855485,114.855485,-9399.007173
942.154588,76.570323,114.855485,-9456.434915
942.155216,133.998066,133.998066,-9399.007173
942.155843,76.570323,114.855485,-9437.292334
942.156470,57.427742,133.998066,-9360.722011
942.157098,76.570323,95.712904,-9437.292334
942.157725,133.998066,114.855485,-9456.434915
942.158353,76.570323,172.283227,-9437.292334
942.158980,76.570323,114.855485,-9418.149754
942.159607,19.142581,210.568389,-9418.149754
942.160235,76.570323,172.283227,-9475.577496
942.160862,76.570323,114.855485,-9418.149754
942.161489,133.998066,114.855485,-9418.149754
942.162117,133.998066,114.855485,-9475.577496
942.162744,114.855485,114.855485,-9399.007173
942.163371,76.570323,114.855485,-9418.149754
942.163999,114.855485,114.855485,-9399.007173
942.164626,153.140646,133.998066,-9399.007173
942.165254,76.570323,172.283227,-9418.149754
942.165881,76.570323,114.855485,-9418.149754
942.166508,76.570323,114.855485,-9418.149754
942.167136,19.142581,153.140646,-9456.434915
942.167763,95.712904,172.283227,-9360.722011
942.168390,95.712904,229.710970,-9475.577496
942.169018,153.140646,172.283227,-9399.007173
942.169645,153.140646,153.140646,-9399.007173
942.170273,133.998066,153.140646,-9418.149754
942.170900,133.998066,153.140646,-9437.292334
942.171527,133.998066,133.998066,-9399.007173
942.172155,114.855485,95.712904,-9399.007173
942.172782,76.570323,210.568389,-9418.149754
942.173409,133.998066,172.283227,-9494.720077
942.174037,133.998066,114.855485,-9418.149754
942.174664,133.998066,114.855485,-9418.149754
942.175291,153.140646,133.998066,-9456.434915
942.175919,76.570323,114.855485,-9437.292334
942.176546,114.855485,114.855485,-9379.864592
942.177174,38.285162,153.140646,-9418.149754
942.177801,38.285162,153.140646,-9456.434915
942.178428,38.285162,191.425808,-9418.149754
942.179056,133.998066,114.855485,-9418.149754
942.179683,76.570323,172.283227,-9418.149754
942.180310,133.998066,153.140646,-9418.149754
942.180938,76.570323,172.283227,-9418.149754
942.181565,38.285162,172.283227,-9418.149754
942.182192,76.570323,114.855485,-9418.149754
942.182820,133.998066,153.140646,-9437.292334
942.183447,114.855485,95.712904,-9494.720077
942.184075,133.998066,114.855485,-9456.434915
942.184702,76.570323,114.855485,-9456.434915
942.185329,114.855485,172.283227,-9360.722011
942.185957,95.712904,133.998066,-9418.149754
942.186584,114.855485,95.712904,-9399.007173
942.187211,133.998066,153.140646,-9418.149754
942.187839,76.570323,114.855485,-9418.149754
942.188466,153.140646,172.283227,-9418.149754
942.189093,76.570323,114.855485,-9418.149754
942.189721,95.712904,133.998066,-9360.722011
942.190348,76.570323,114.855485,-9475.577496
942.190976,133.998066,95.712904,-9418.149754
942.191603,114.855485,133.998066,-9360.722011
942.192230,133.998066,172.283227,-9418.149754
942.192858,133.998066,114.855485,-9418.149754
942.193485,19.142581,172.283227,-9418.149754
942.194112,0.000000,153.140646,-9360.722011
942.194740,76.570323,114.855485,-9437.292334
942.195367,76.570323,172.283227,-9418.149754
942.195994,76.570323,114.855485,-9437.292334
942.196622,76.570323,114.855485,-9437.292334
942.197249,172.283227,76.570323,-9418.149754
942.197877,133.998066,114.855485,-9418.149754
942.198504,133.998066,114.855485,-9418.149754
942.199131,133.998066,114.855485,-9418.149754
942.199759,133.998066,114.855485,-9418.149754
942.200386,133.998066,114.855485,-9418.149754
942.201013,95.712904,229.710970,-9456.434915
942.201641,133.998066,191.425808,-9418.149754
942.202268,133.998066,153.140646,-9418.149754
942.202895,133.998066,114.855485,-9494.720077
942.203523,133.998066,114.855485,-9456.434915
942.204150,38.285162,76.570323,-9399.007173
942.204777,76.570323,114.855485,-9418.149754
942.205404,38.285162,114.855485,-9418.149754
942.206032,76.570323,133.998066,-9360.722011
942.206659,114.855485,133.998066,-9360.722011
942.207286,76.570323,114.855485,-9533.005238
942.207913,95.712904,114.855485,-9437.292334
942.208540,76.570323,153.140646,-9437.292334
942.209168,133.998066,172.283227,-9399.007173
942.209795,76.570323,114.855485,-9475.577496
942.210422,76.570323,153.140646,-9475.577496
942.211049,133.998066,114.855485,-9418.149754
942.211677,133.998066,114.855485,-9418.149754
942.212304,133.998066,114.855485,-9475.577496
942.212931,76.570323,114.855485,-9494.720077
942.213558,76.570323,172.283227,-9418.149754
942.214186,153.140646,153.140646,-9399.007173
942.214813,95.712904,153.140646,-9360.722011
942.215440,133.998066,114.855485,-9418.149754
942.216067,38.285162,114.855485,-9360.722011
942.216695,57.427742,172.283227,-9360.722011
942.217322,57.427742,153.140646,-9456.434915
942.217949,133.998066,114.855485,-9456.434915
942.218576,76.570323,114.855485,-9456.434915
942.219204,76.570323,114.855485,-9418.149754
942.219831,76.570323,95.712904,-9399.007173
942.220458,38.285162,114.855485,-9418.149754
942.221085,95.712904,114.855485,-9456.434915
942.221713,95.712904,114.855485,-9456.434915
942.222340,114.855485,95.712904,-9399.007173
942.222967,114.855485,95.712904,-9399.007173
942.223594,76.570323,114.855485,-9456.434915
942.224222,153.140646,191.425808,-9399.007173
942.224849,76.570323,114.855485,-9437.292334
942.225476,95.712904,133.998066,-9533.005238
942.226103,133.998066,114.855485,-9456.434915
942.226731,133.998066,114.855485,-9456.434915
942.227358,133.998066,114.855485,-9475.577496
942.227985,38.285162,172.283227,-9456.434915
942.228612,133.998066,229.710970,-9418.149754
942.229240,133.998066,210.568389,-9418.149754
942.229867,76.570323,191.425808,-9437.292334
942.230494,133.998066,114.855485,-9418.149754
942.231121,133.998066,114.855485,-9418.149754
942.231749,153.140646,133.998066,-9399.007173
942.232376,153.140646,133.998066,-9494.720077
942.233003,95.712904,210.568389,-9456.434915
942.233630,133.998066,172.283227,-9475.577496
942.234258,95.712904,114.855485,-9418.149754
942.234885,153.140646,133.998066,-9399.007173
942.235512,76.570323,172.283227,-9437.292334
942.236139,153.140646,133.998066,-9437.292334
942.236767,114.855485,95.712904,-9456.434915
942.237394,76.570323,114.855485,-9418.149754
942.238021,133.998066,114.855485,-9437.292334
942.238648,19.142581,153.140646,-9418.149754
942.239276,133.998066,210.568389,-9437.292334
942.239903,133.998066,133.998066,-9494.720077
942.240530,95.712904,95.712904,-9437.292334
942.241157,76.570323,172.283227,-9418.149754
942.241785,76.570323,114.855485,-9456.434915
942.242412,153.140646,133.998066,-9399.007173
942.243039,76.570323,153.140646,-9418.149754
942.243666,38.285162,210.568389,-9418.149754
942.244294,57.427742,133.998066,-9360.722011
942.244921,76.570323,153.140646,-9360.722011
942.245548,210.568389,133.998066,-9456.434915
942.246175,153.140646,133.998066,-9399.007173
942.246802,114.855485,57.427742,-9418.149754
942.247430,114.855485,95.712904,-9379.864592
942.248057,133.998066,153.140646,-9360.722011
942.248684,133.998066,172.283227,-9360.722011
942.249311,153.140646,114.855485,-9418.149754
942.249939,76.570323,114.855485,-9456.434915
942.250566,133.998066,172.283227,-9437.292334
942.251193,57.427742,210.568389,-9418.149754
942.251820,76.570323,172.283227,-9437.292334
942.252448,133.998066,133.998066,-9456.434915
942.253075,76.570323,114.855485,-9456.434915
942.253702,38.285162,76.570323,-9379.864592
942.254329,76.570323,153.140646,-9418.149754
942.254957,76.570323,114.855485,-9437.292334
942.255584,95.712904,114.855485,-9418.149754
942.256211,95.712904,153.140646,-9418.149754
942.256838,76.570323,114.855485,-9475.577496
942.257466,153.140646,133.998066,-9399.007173
942.258093,76.570323,172.283227,-9418.149754
942.258720,133.998066,153.140646,-9437.292334
942.259347,153.140646,210.568389,-9456.434915
942.259975,172.283227,248.853550,-9418.149754
942.260602,153.140646,114.855485,-9418.149754
942.261229,114.855485,172.283227,-9494.720077
942.261856,76.570323,114.855485,-9418.149754
942.262484,76.570323,114.855485,-9437.292334
942.263111,76.570323,114.855485,-9418.149754
942.263738,76.570323,114.855485,-9437.292334
942.264365,76.570323,153.140646,-9456.434915
942.264993,133.998066,133.998066,-9399.007173
942.265620,133.998066,114.855485,-9418.149754
942.266247,133.998066,114.855485,-9437.292334
942.266874,38.285162,114.855485,-9418.149754
942.267502,133.998066,114.855485,-9418.149754
942.268129,133.998066,114.855485,-9418.149754
942.268756,172.283227,153.140646,-9418.149754
942.269383,38.285162,210.568389,-9437.292334
942.270011,95.712904,95.712904,-9456.434915
942.270638,133.998066,172.283227,-9418.149754
942.271265,76.570323,172.283227,-9418.149754
942.271892,95.712904,114.855485,-9418.149754
942.272520,133.998066,172.283227,-9418.149754
942.273147,133.998066,210.568389,-9456.434915
942.273774,133.998066,172.283227,-9437.292334
942.274401,133.998066,114.855485,-9418.149754
942.275029,76.570323,114.855485,-9418.149754
942.275656,76.570323,172.283227,-9418.149754
942.276283,114.855485,114.855485,-9379.864592
942.276910,133.998066,133.998066,-9399.007173
942.277538,76.570323,172.283227,-9456.434915
942.278165,76.570323,153.140646,-9437.292334
942.278792,133.998066,210.568389,-9437.292334
942.279419,57.427742,114.855485,-9418.149754
942.280047,133.998066,114.855485,-9437.292334
942.280674,19.142581,172.283227,-9494.720077
942.281301,38.285162,172.283227,-9437.292334
942.281928,76.570323,114.855485,-9418.149754
942.282555,76.570323,114.855485,-9533.005238
942.283183,76.570323,114.855485,-9418.149754
942.283810,76.570323,114.855485,-9475.577496
942.284437,38.285162,153.140646,-9437.292334
942.285064,76.570323,210.568389,-9456.434915
942.285692,153.140646,153.140646,-9456.434915
942.286319,133.998066,172.283227,-9475.577496
942.286946,114.855485,133.998066,-9360.722011
942.287573,133.998066,153.140646,-9456.434915
942.288201,133.998066,114.855485,-9418.149754
942.288828,153.140646,133.998066,-9399.007173
942.289455,133.998066,114.855485,-9418.149754
942.290082,153.140646,210.568389,-9456.434915
942.290710,76.570323,114.855485,-9418.149754
942.291337,114.855485,229.710970,-9399.007173
942.291964,38.285162,229.710970,-9360.722011
942.292591,133.998066,153.140646,-9437.292334
942.293219,133.998066,114.855485,-9437.292334
942.293846,153.140646,133.998066,-9399.007173
942.294473,114.855485,95.712904,-9399.007173
942.295100,133.998066,114.855485,-9437.292334
942.295728,76.570323,114.855485,-9437.292334
942.296355,114.855485,153.140646,-9437.292334
942.296982,95.712904,153.140646,-9360.722011
942.297609,76.570323,114.855485,-9437.292334
942.298237,95.712904,95.712904,-9437.292334
942.298864,38.285162,153.140646,-9418.149754
942.299491,76.570323,114.855485,-9418.149754
942.300118,95.712904,95.712904,-9437.292334
942.300746,133.998066,229.710970,-9437.292334
942.301373,133.998066,153.140646,-9399.007173
942.302000,76.570323,172.283227,-9418.149754
942.302628,153.140646,191.425808,-9399.007173
942.303256,153.140646,133.998066,-9379.864592
942.303883,114.855485,210.568389,-9360.722011
942.304511,76.570323,210.568389,-9418.149754
942.305139,133.998066,76.570323,-9379.864592
942.305766,95.712904,95.712904,-9399.007173
942.306394,95.712904,114.855485,-9418.149754
942.307022,38.285162,114.855485,-9437.292334
942.307649,38.285162,153.140646,-9418.149754
942.308277,133.998066,114.855485,-9418.149754
942.308905,76.570323,172.283227,-9456.434915
942.309533,133.998066,133.998066,-9456.434915
942.310160,76.570323,114.855485,-9437.292334
942.310788,133.998066,210.568389,-9418.149754
942.311416,38.285162,210.568389,-9456.434915
942.312043,76.570323,172.283227,-9360.722011
942.312671,114.855485,133.998066,-9360.722011
942.313299,76.570323,114.855485,-9418.149754
942.313926,133.998066,114.855485,-9360.722011
942.314554,133.998066,114.855485,-9437.292334
942.315182,133.998066,114.855485,-9418.149754
942.315810,76.570323,133.998066,-9360.722011
942.316437,133.998066,114.855485,-9475.577496
942.317065,153.140646,172.283227,-9399.007173
942.317693,76.570323,172.283227,-9437.292334
942.318320,38.285162,172.283227,-9418.149754
942.318948,57.427742,114.855485,-9418.149754
942.319576,76.570323,153.140646,-9418.149754
942.320203,76.570323,153.140646,-9437.292334
942.320831,133.998066,172.283227,-9437.292334
942.321459,133.998066,153.140646,-9456.434915
942.322087,153.140646,172.283227,-9418.149754
942.322714,133.998066,172.283227,-9418.149754
942.323342,95.712904,172.283227,-9418.149754
942.323970,172.283227,114.855485,-9379.864592
942.324597,76.570323,114.855485,-9418.149754
942.325225,38.285162,114.855485,-9418.149754
942.325853,38.285162,172.283227,-9418.149754
942.326481,76.570323,153.140646,-9418.149754
942.327108,76.570323,172.283227,-9418.149754
942.327736,133.998066,114.855485,-9418.149754
942.328364,95.712904,95.712904,-9379.864592
942.328991,95.712904,133.998066,-9360.722011
942.329619,133.998066,133.998066,-9399.007173
942.330247,133.998066,210.568389,-9418.149754
942.330874,38.285162,114.855485,-9418.149754
942.331502,95.712904,153.140646,-9360.722011
942.332130,133.998066,114.855485,-9418.149754
942.332758,76.570323,114.855485,-9418.149754
942.333385,76.570323,114.855485,-9418.149754
942.334013,95.712904,95.712904,-9399.007173
942.334641,76.570323,114.855485,-9418.149754
942.335268,133.998066,114.855485,-9418.149754
942.335896,114.855485,38.285162,-9399.007173
942.336524,133.998066,114.855485,-9418.149754
942.337151,76.570323,114.855485,-9418.149754
942.337779,76.570323,114.855485,-9437.292334
942.338407,133.998066,133.998066,-9399.007173
942.339035,95.712904,76.570323,-9379.864592
942.339662,76.570323,172.283227,-9437.292334
942.340290,133.998066,172.283227,-9418.149754
942.340918,133.998066,114.855485,-9418.149754
942.341545,133.998066,153.140646,-9418.149754
942.342173,133.998066,114.855485,-9456.434915
942.342801,95.712904,133.998066,-9360.722011
942.343428,133.998066,114.855485,-9418.149754
942.344056,133.998066,172.283227,-9437.292334
942.344684,76.570323,210.568389,-9456.434915
942.345312,133.998066,210.568389,-9475.577496
942.345939,76.570323,172.283227,-9437.292334
942.346567,133.998066,114.855485,-9437.292334
942.347195,114.855485,95.712904,-9437.292334
942.347822,133.998066,114.855485,-9418.149754
942.348450,133.998066,114.855485,-9418.149754
942.349078,38.285162,191.425808,-9418.149754
942.349705,133.998066,114.855485,-9418.149754
942.350333,76.570323,114.855485,-9360.722011
942.350961,133.998066,153.140646,-9418.149754
942.351589,133.998066,114.855485,-9456.434915
942.352216,114.855485,114.855485,-9399.007173
942.352844,133.998066,172.283227,-9399.007173
942.353472,76.570323,172.283227,-9418.149754
942.354099,133.998066,153.140646,-9418.149754
942.354727,172.283227,210.568389,-9379.864592
942.355355,133.998066,172.283227,-9437.292334
942.355983,133.998066,172.283227,-9437.292334
942.356610,153.140646,153.140646,-9418.149754
942.357238,114.855485,95.712904,-9475.577496
942.357866,133.998066,114.855485,-9456.434915
942.358493,133.998066,114.855485,-9418.149754
942.359121,38.285162,114.855485,-9437.292334
942.359749,38.285162,114.855485,-9418.149754
942.360376,114.855485,76.570323,-9437.292334
942.361004,38.285162,114.855485,-9418.149754
942.361632,76.570323,172.283227,-9418.149754
942.362260,133.998066,114.855485,-9418.149754
942.362887,76.570323,114.855485,-9437.292334
942.363515,76.570323,153.140646,-9418.149754
942.364143,76.570323,210.568389,-9418.149754
942.364770,133.998066,153.140646,-9456.434915
942.365398,95.712904,114.855485,-9399.007173
942.366026,114.855485,95.712904,-9437.292334
942.366653,133.998066,114.855485,-9437.292334
942.367281,19.142581,114.855485,-9418.149754
942.367909,114.855485,133.998066,-9360.722011
942.368537,95.712904,114.855485,-9418.149754
942.369164,76.570323,114.855485,-9437.292334
942.369792,133.998066,114.855485,-9418.149754
942.370420,133.998066,210.568389,-9437.292334
942.371047,95.712904,114.855485,-9418.149754
942.371675,76.570323,114.855485,-9456.434915
942.372303,133.998066,114.855485,-9456.434915
942.372930,76.570323,153.140646,-9437.292334
942.373558,153.140646,153.140646,-9456.434915
942.374186,95.712904,114.855485,-9418.149754
942.374814,95.712904,95.712904,-9399.007173
942.375441,133.998066,133.998066,-9399.007173
942.376069,57.427742,153.140646,-9360.722011
942.376697,95.712904,95.712904,-9494.720077
942.377324,38.285162,114.855485,-9456.434915
942.377952,133.998066,114.855485,-9418.149754
942.378580,76.570323,172.283227,-9418.149754
942.379208,38.285162,153.140646,-9456.434915
942.379835,133.998066,133.998066,-9494.720077
942.380463,57.427742,114.855485,-9437.292334
942.381091,133.998066,153.140646,-9418.149754
942.381718,76.570323,210.568389,-9418.149754
942.382346,76.570323,210.568389,-9418.149754
942.382974,153.140646,114.855485,-9418.149754
942.383601,210.568389,133.998066,-9399.007173
942.384229,153.140646,114.855485,-9360.722011
942.384857,76.570323,114.855485,-9418.149754
942.385485,133.998066,114.855485,-9418.149754
942.386112,133.998066,114.855485,-9437.292334
942.386740,133.998066,114.855485,-9475.577496
942.387368,76.570323,114.855485,-9456.434915
942.387995,133.998066,114.855485,-9418.149754
942.388623,38.285162,114.855485,-9418.149754
942.389251,76.570323,153.140646,-9437.292334
942.389878,57.427742,133.998066,-9418.149754
942.390506,133.998066,114.855485,-9456.434915
942.391134,133.998066,114.855485,-9418.149754
942.391762,57.427742,95.712904,-9399.007173
942.392389,153.140646,172.283227,-9399.007173
942.393017,95.712904,133.998066,-9360.722011
942.393645,133.998066,114.855485,-9437.292334
942.394272,76.570323,114.855485,-9437.292334
942.394900,133.998066,114.855485,-9418.149754
942.395528,95.712904,114.855485,-9418.149754
942.396155,133.998066,172.283227,-9418.149754
942.396783,76.570323,153.140646,-9418.149754
942.397411,38.285162,114.855485,-9418.149754
942.398039,114.855485,133.998066,-9360.722011
942.398666,114.855485,210.568389,-9379.864592
942.399294,133.998066,114.855485,-9456.434915
942.399922,133.998066,172.283227,-9418.149754
942.400549,76.570323,191.425808,-9437.292334
942.401177,76.570323,172.283227,-9418.149754
942.401805,95.712904,172.283227,-9437.292334
942.402432,133.998066,153.140646,-9456.434915
942.403060,76.570323,114.855485,-9437.292334
942.403688,76.570323,114.855485,-9418.149754
942.404315,76.570323,114.855485,-9437.292334
942.404943,95.712904,114.855485,-9456.434915
942.405571,38.285162,114.855485,-9437.292334
942.406198,38.285162,153.140646,-9533.005238
942.406826,95.712904,153.140646,-9475.577496
942.407454,133.998066,114.855485,-9456.434915
942.408081,76.570323,114.855485,-9418.149754
942.408709,76.570323,114.855485,-9418.149754
942.409337,76.570323,172.283227,-9475.577496
942.409964,133.998066,114.855485,-9418.149754
942.410592,133.998066,114.855485,-9418.149754
942.411219,95.712904,172.283227,-9456.434915
942.411847,153.140646,133.998066,-9399.007173
942.412475,133.998066,133.998066,-9399.007173
942.413102,76.570323,114.855485,-9475.577496
942.413730,76.570323,172.283227,-9418.149754
942.414358,114.855485,95.712904,-9456.434915
942.414985,76.570323,210.568389,-9418.149754
942.415613,76.570323,210.568389,-9418.149754
942.416241,133.998066,172.283227,-9418.149754
942.416868,76.570323,172.283227,-9418.149754
942.417496,76.570323,114.855485,-9418.149754
942.418124,38.285162,172.283227,-9437.292334
942.418751,133.998066,172.283227,-9418.149754
942.419379,76.570323,172.283227,-9418.149754
942.420006,76.570323,114.855485,-9418.149754
942.420634,95.712904,114.855485,-9418.149754
942.421262,133.998066,114.855485,-9456.434915
942.421889,76.570323,114.855485,-9418.149754
942.422517,133.998066,133.998066,-9494.720077
942.423145,38.285162,172.283227,-9437.292334
942.423772,57.427742,191.425808,-9360.722011
942.424400,57.427742,133.998066,-9360.722011
942.425028,153.140646,133.998066,-9399.007173
942.425655,38.285162,114.855485,-9418.149754
942.426283,38.285162,210.568389,-9418.149754
942.426910,133.998066,153.140646,-9418.149754
942.427538,153.140646,133.998066,-9437.292334
942.428166,133.998066,114.855485,-9418.149754
942.428793,95.712904,95.712904,-9437.292334
942.429421,133.998066,114.855485,-9418.149754
942.430049,133.998066,114.855485,-9418.149754
942.430676,114.855485,133.998066,-9360.722011
942.431304,57.427742,114.855485,-9437.292334
942.431932,38.285162,153.140646,-9437.292334
942.432559,133.998066,172.283227,-9437.292334
942.433187,133.998066,133.998066,-9456.434915
942.433815,76.570323,153.140646,-9437.292334
942.434442,95.712904,133.998066,-9418.149754
942.435070,133.998066,114.855485,-9533.005238
942.435697,133.998066,114.855485,-9418.149754
942.436325,76.570323,95.712904,-9456.434915
942.436953,133.998066,114.855485,-9475.577496
942.437580,133.998066,114.855485,-9456.434915
942.438208,133.998066,153.140646,-9418.149754
942.438836,76.570323,114.855485,-9418.149754
942.439463,172.283227,172.283227,-9379.864592
942.440091,114.855485,114.855485,-9456.434915
942.440719,133.998066,172.283227,-9494.720077
942.441346,76.570323,114.855485,-9456.434915
942.441974,133.998066,114.855485,-9456.434915
942.442602,133.998066,114.855485,-9418.149754
942.443229,76.570323,172.283227,-9418.149754
942.443857,133.998066,153.140646,-9418.149754
942.444484,76.570323,114.855485,-9494.720077
942.445112,153.140646,133.998066,-9437.292334
942.445740,153.140646,153.140646,-9399.007173
942.446367,114.855485,95.712904,-9399.007173
942.446995,38.285162,172.283227,-9418.149754
942.447623,76.570323,172.283227,-9418.149754
942.448250,76.570323,172.283227,-9418.149754
942.448878,76.570323,114.855485,-9418.149754
942.449506,153.140646,153.140646,-9456.434915
942.450133,76.570323,114.855485,-9437.292334
942.450761,133.998066,153.140646,-9475.577496
942.451388,133.998066,153.140646,-9475.577496
942.452016,76.570323,114.855485,-9418.149754
942.452644,95.712904,95.712904,-9399.007173
942.453271,76.570323,114.855485,-9418.149754
942.453899,76.570323,114.855485,-9418.149754
942.454527,95.712904,153.140646,-9418.149754
942.455154,95.712904,114.855485,-9437.292334
942.455782,76.570323,229.710970,-9418.149754
942.456410,76.570323,114.855485,-9437.292334
942.457037,76.570323,153.140646,-9475.577496
942.457665,114.855485,210.568389,-9360.722011
942.458293,210.568389,172.283227,-9437.292334
942.458920,76.570323,114.855485,-9418.149754
942.459548,133.998066,114.855485,-9418.149754
942.460175,76.570323,114.855485,-9418.149754
942.460803,153.140646,133.998066,-9456.434915
942.461431,133.998066,114.855485,-9418.149754
942.462058,76.570323,114.855485,-9418.149754
942.462686,76.570323,114.855485,-9437.292334
942.463314,114.855485,95.712904,-9456.434915
942.463941,153.140646,133.998066,-9456.434915
942.464569,95.712904,172.283227,-9437.292334
942.465197,76.570323,114.855485,-9475.577496
942.465824,76.570323,114.855485,-9437.292334
942.466452,38.285162,210.568389,-9418.149754
942.467080,95.712904,172.283227,-9475.577496
942.467707,114.855485,133.998066,-9418.149754
942.468335,133.998066,133.998066,-9399.007173
942.468962,76.570323,210.568389,-9418.149754
942.469590,76.570323,153.140646,-9418.149754
942.470218,38.285162,114.855485,-9437.292334
942.470845,133.998066,172.283227,-9456.434915
942.471473,95.712904,114.855485,-9456.434915
942.472101,57.427742,95.712904,-9399.007173
942.472728,76.570323,114.855485,-9418.149754
942.473356,57.427742,153.140646,-9456.434915
942.473984,153.140646,191.425808,-9437.292334
942.474611,153.140646,172.283227,-9399.007173
942.475239,76.570323,114.855485,-9456.434915
942.475866,76.570323,114.855485,-9418.149754
942.476494,76.570323,114.855485,-9418.149754
942.477122,133.998066,172.283227,-9418.149754
942.477749,133.998066,133.998066,-9399.007173
942.478377,76.570323,172.283227,-9456.434915
942.479005,133.998066,114.855485,-9456.434915
942.479632,76.570323,114.855485,-9475.577496
942.480260,76.570323,114.855485,-9456.434915
942.480888,76.570323,76.570323,-9379.864592
942.481515,38.285162,114.855485,-9418.149754
942.482143,133.998066,114.855485,-9418.149754
942.482771,76.570323,114.855485,-9418.149754
942.483398,153.140646,133.998066,-9437.292334
942.484026,172.283227,76.570323,-9494.720077
942.484653,95.712904,95.712904,-9379.864592
942.485281,95.712904,133.998066,-9360.722011
942.485909,133.998066,172.283227,-9437.292334
942.486536,76.570323,172.283227,-9456.434915
942.487164,57.427742,248.853550,-9360.722011
942.487792,133.998066,153.140646,-9437.292334
942.488419,133.998066,114.855485,-9418.149754
942.489047,57.427742,95.712904,-9399.007173
942.489675,57.427742,95.712904,-9399.007173
942.490302,153.140646,191.425808,-9399.007173
942.490930,133.998066,114.855485,-9418.149754
942.491557,76.570323,114.855485,-9418.149754
942.492185,95.712904,114.855485,-9475.577496
942.492813,38.285162,114.855485,-9437.292334
942.493440,76.570323,114.855485,-9418.149754
942.494068,76.570323,114.855485,-9418.149754
942.494696,95.712904,95.712904,-9399.007173
942.495323,114.855485,95.712904,-9399.007173
942.495951,76.570323,114.855485,-9437.292334
942.496579,133.998066,114.855485,-9533.005238
942.497206,133.998066,114.855485,-9437.292334
942.497834,38.285162,114.855485,-9456.434915
942.498462,38.285162,114.855485,-9437.292334
942.499089,38.285162,114.855485,-9418.149754
942.499717,133.998066,153.140646,-9418.149754
942.500344,95.712904,172.283227,-9456.434915
942.500972,76.570323,210.568389,-9360.722011
942.501600,19.142581,153.140646,-9418.149754
942.502227,95.712904,172.283227,-9418.149754
942.502855,133.998066,172.283227,-9456.434915
942.503483,153.140646,114.855485,-9418.149754
942.504111,114.855485,95.712904,-9456.434915
942.504739,133.998066,191.425808,-9437.292334
942.505366,153.140646,172.283227,-9437.292334
942.505994,172.283227,172.283227,-9379.864592
942.506622,114.855485,95.712904,-9399.007173
942.507250,133.998066,114.855485,-9437.292334
942.507878,133.998066,133.998066,-9399.007173
942.508506,38.285162,114.855485,-9456.434915
942.509134,133.998066,153.140646,-9418.149754
942.509761,76.570323,172.283227,-9418.149754
942.510389,95.712904,114.855485,-9418.149754
942.511017,133.998066,114.855485,-9418.149754
942.511645,114.855485,172.283227,-9399.007173
942.512273,153.140646,172.283227,-9437.292334
942.512901,76.570323,114.855485,-9418.149754
942.513529,133.998066,114.855485,-9418.149754
942.514156,76.570323,114.855485,-9418.149754
942.514784,76.570323,210.568389,-9418.149754
942.515412,38.285162,210.568389,-9418.149754
942.516040,57.427742,114.855485,-9418.149754
942.516668,76.570323,114.855485,-9418.149754
942.517296,38.285162,153.140646,-9418.149754
942.517924,95.712904,114.855485,-9437.292334
942.518551,133.998066,114.855485,-9418.149754
942.519179,76.570323,114.855485,-9437.292334
942.519807,76.570323,95.712904,-9399.007173
942.520435,153.140646,133.998066,-9456.434915
942.521063,76.570323,114.855485,-9437.292334
942.521691,76.570323,114.855485,-9418.149754
942.522318,133.998066,114.855485,-9437.292334
942.522946,95.712904,95.712904,-9437.292334
942.523574,133.998066,114.855485,-9437.292334
942.524202,172.283227,76.570323,-9418.149754
942.524830,133.998066,114.855485,-9475.577496
942.525458,76.570323,114.855485,-9437.292334
942.526086,76.570323,153.140646,-9494.720077
942.526713,133.998066,114.855485,-9456.434915
942.527341,153.140646,133.998066,-9494.720077
942.527969,76.570323,172.283227,-9475.577496
942.528597,153.140646,153.140646,-9399.007173
942.529225,95.712904,153.140646,-9360.722011
942.529853,133.998066,172.283227,-9456.434915
942.530481,76.570323,114.855485,-9456.434915
942.531108,76.570323,114.855485,-9418.149754
942.531736,76.570323,114.855485,-9418.149754
942.532364,133.998066,114.855485,-9418.149754
942.532992,57.427742,210.568389,-9456.434915
942.533620,76.570323,210.568389,-9475.577496
942.534248,210.568389,172.283227,-9399.007173
942.534876,191.425808,114.855485,-9379.864592
942.535503,210.568389,133.998066,-9399.007173
942.536131,133.998066,172.283227,-9418.149754
942.536759,133.998066,114.855485,-9418.149754
942.537387,76.570323,210.568389,-9418.149754
942.538015,76.570323,114.855485,-9418.149754
942.538643,95.712904,153.140646,-9418.149754
942.539271,38.285162,153.140646,-9437.292334
942.539898,76.570323,114.855485,-9418.149754
942.540526,133.998066,191.425808,-9418.149754
942.541154,76.570323,114.855485,-9418.149754
942.541782,76.570323,95.712904,-9399.007173
942.542410,76.570323,114.855485,-9418.149754
942.543038,133.998066,114.855485,-9437.292334
942.543665,133.998066,114.855485,-9494.720077
942.544293,133.998066,114.855485,-9437.292334
942.544921,76.570323,114.855485,-9456.434915
942.545549,76.570323,114.855485,-9418.149754
942.546177,95.712904,114.855485,-9418.149754
942.546805,76.570323,114.855485,-9418.149754
942.547433,95.712904,114.855485,-9418.149754
942.548060,76.570323,172.283227,-9418.149754
942.548688,133.998066,210.568389,-9456.434915
942.549316,133.998066,210.568389,-9437.292334
942.549944,95.712904,133.998066,-9360.722011
942.550572,38.285162,172.283227,-9437.292334
942.551200,133.998066,172.283227,-9437.292334
942.551828,38.285162,114.855485,-9418.149754
942.552455,57.427742,172.283227,-9360.722011
942.553083,95.712904,153.140646,-9360.722011
942.553711,76.570323,210.568389,-9418.149754
942.554339,76.570323,114.855485,-9418.149754
942.554967,133.998066,133.998066,-9494.720077
942.555595,76.570323,210.568389,-9437.292334
942.556223,57.427742,114.855485,-9456.434915
942.556850,76.570323,210.568389,-9418.149754
942.557478,38.285162,114.855485,-9437.292334
942.558106,133.998066,114.855485,-9456.434915
942.558734,133.998066,114.855485,-9456.434915
942.559362,57.427742,95.712904,-9437.292334
942.559990,95.712904,172.283227,-9456.434915
942.560618,133.998066,153.140646,-9475.577496
942.561245,133.998066,114.855485,-9418.149754
942.561873,76.570323,114.855485,-9437.292334
942.562501,153.140646,133.998066,-9456.434915
942.563129,133.998066,114.855485,-9418.149754
942.563757,95.712904,172.283227,-9533.005238
942.564385,76.570323,153.140646,-9494.720077
942.565012,76.570323,76.570323,-9399.007173
942.565640,76.570323,114.855485,-9456.434915
942.566268,95.712904,172.283227,-9418.149754
942.566896,153.140646,114.855485,-9437.292334
942.567524,133.998066,133.998066,-9399.007173
942.568152,95.712904,95.712904,-9399.007173
942.568780,76.570323,153.140646,-9418.149754
942.569407,57.427742,172.283227,-9418.149754
942.570035,76.570323,191.425808,-9418.149754
942.570663,133.998066,210.568389,-9418.149754
942.571291,19.142581,114.855485,-9456.434915
942.571919,76.570323,153.140646,-9418.149754
942.572547,133.998066,114.855485,-9456.434915
942.573175,76.570323,114.855485,-9418.149754
942.573802,38.285162,114.855485,-9475.577496
942.574430,133.998066,172.283227,-9418.149754
942.575058,76.570323,172.283227,-9456.434915
942.575686,133.998066,114.855485,-9475.577496
942.576314,38.285162,114.855485,-9456.434915
942.576942,95.712904,210.568389,-9418.149754
942.577570,133.998066,133.998066,-9399.007173
942.578197,133.998066,114.855485,-9418.149754
942.578825,76.570323,133.998066,-9360.722011
942.579453,95.712904,133.998066,-9360.722011
942.580081,76.570323,114.855485,-9418.149754
942.580709,133.998066,114.855485,-9418.149754
942.581337,133.998066,172.283227,-9418.149754
942.581965,76.570323,172.283227,-9494.720077
942.582592,133.998066,114.855485,-9456.434915
942.583220,57.427742,114.855485,-9494.720077
942.583848,95.712904,172.283227,-9418.149754
942.584476,76.570323,172.283227,-9418.149754
942.585104,133.998066,153.140646,-9418.149754
942.585732,133.998066,229.710970,-9437.292334
942.586359,133.998066,210.568389,-9456.434915
942.586987,76.570323,114.855485,-9437.292334
942.587615,76.570323,133.998066,-9360.722011
942.588243,95.712904,114.855485,-9399.007173
942.588871,38.285162,114.855485,-9418.149754
942.589499,95.712904,114.855485,-9418.149754
942.590127,95.712904,172.283227,-9475.577496
942.590754,76.570323,172.283227,-9437.292334
942.591382,133.998066,153.140646,-9418.149754
942.592010,76.570323,114.855485,-9418.149754
942.592638,95.712904,114.855485,-9494.720077
942.593266,133.998066,210.568389,-9456.434915
942.593894,76.570323,153.140646,-9437.292334
942.594522,133.998066,114.855485,-9456.434915
942.595149,114.855485,95.712904,-9399.007173
942.595777,114.855485,114.855485,-9399.007173
942.596405,76.570323,153.140646,-9418.149754
942.597033,76.570323,114.855485,-9418.149754
942.597661,76.570323,95.712904,-9456.434915
942.598289,38.285162,172.283227,-9456.434915
942.598917,95.712904,133.998066,-9475.577496
942.599544,133.998066,114.855485,-9437.292334
942.600172,114.855485,95.712904,-9475.577496
942.600800,76.570323,114.855485,-9418.149754
942.601428,133.998066,114.855485,-9437.292334
942.602056,153.140646,133.998066,-9513.862658
942.602684,153.140646,133.998066,-9399.007173
942.603311,133.998066,114.855485,-9456.434915
942.603939,95.712904,172.283227,-9437.292334
942.604567,76.570323,210.568389,-9475.577496
942.605195,76.570323,191.425808,-9437.292334
942.605823,38.285162,114.855485,-9418.149754
942.606451,114.855485,76.570323,-9418.149754
942.607079,38.285162,172.283227,-9475.577496
942.607707,95.712904,95.712904,-9494.720077
942.608334,19.142581,172.283227,-9456.434915
942.608962,38.285162,114.855485,-9456.434915
942.609590,76.570323,114.855485,-9418.149754
942.610218,133.998066,114.855485,-9418.149754
942.610846,114.855485,133.998066,-9360.722011
942.611474,133.998066,114.855485,-9418.149754
942.612102,38.285162,172.283227,-9418.149754
942.612729,38.285162,114.855485,-9418.149754
942.613357,95.712904,153.140646,-9418.149754
942.613985,172.283227,172.283227,-9379.864592
942.614613,153.140646,133.998066,-9399.007173
942.615241,153.140646,133.998066,-9399.007173
942.615869,153.140646,153.140646,-9437.292334
942.616497,76.570323,114.855485,-9494.720077
942.617124,76.570323,172.283227,-9418.149754
942.617752,95.712904,153.140646,-9456.434915
942.618380,95.712904,172.283227,-9418.149754
942.619008,133.998066,133.998066,-9513.862658
942.619636,133.998066,114.855485,-9437.292334
942.620264,133.998066,114.855485,-9418.149754
942.620892,95.712904,133.998066,-9360.722011
942.621519,95.712904,114.855485,-9418.149754
942.622147,76.570323,114.855485,-9418.149754
942.622775,76.570323,153.140646,-9418.149754
942.623403,95.712904,114.855485,-9494.720077
942.624031,76.570323,210.568389,-9533.005238
942.624659,76.570323,210.568389,-9418.149754
942.625287,76.570323,114.855485,-9360.722011
942.625915,133.998066,153.140646,-9418.149754
942.626542,57.427742,133.998066,-9360.722011
942.627170,133.998066,153.140646,-9437.292334
942.627798,38.285162,172.283227,-9437.292334
942.628426,38.285162,114.855485,-9456.434915
942.629054,153.140646,153.140646,-9399.007173
942.629682,133.998066,210.568389,-9418.149754
942.630310,210.568389,133.998066,-9399.007173
942.630937,133.998066,114.855485,-9418.149754
942.631565,114.855485,133.998066,-9360.722011
942.632193,153.140646,172.283227,-9399.007173
942.632821,76.570323,114.855485,-9456.434915
942.633449,76.570323,114.855485,-9418.149754
942.634077,133.998066,133.998066,-9399.007173
942.634705,38.285162,114.855485,-9456.434915
942.635332,76.570323,114.855485,-9418.149754
942.635960,76.570323,114.855485,-9437.292334
942.636588,76.570323,114.855485,-9456.434915
942.637216,38.285162,114.855485,-9418.149754
942.637844,133.998066,172.283227,-9399.007173
942.638472,38.285162,172.283227,-9456.434915
942.639100,95.712904,114.855485,-9456.434915
942.639727,133.998066,191.425808,-9418.149754
942.640355,76.570323,114.855485,-9418.149754
942.640983,133.998066,114.855485,-9456.434915
942.641611,95.712904,133.998066,-9360.722011
942.642239,76.570323,114.855485,-9418.149754
942.642867,153.140646,153.140646,-9437.292334
942.643495,153.140646,172.283227,-9456.434915
942.644122,153.140646,172.283227,-9513.862658
942.644750,133.998066,210.568389,-9456.434915
942.645378,95.712904,114.855485,-9418.149754
942.646006,153.140646,191.425808,-9456.434915
942.646634,133.998066,172.283227,-9399.007173
942.647262,38.285162,114.855485,-9437.292334
942.647890,76.570323,153.140646,-9418.149754
942.648518,76.570323,114.855485,-9418.149754
942.649145,172.283227,76.570323,-9418.149754
942.649773,76.570323,114.855485,-9418.149754
942.650401,76.570323,114.855485,-9418.149754
942.651029,133.998066,114.855485,-9437.292334
942.651657,133.998066,114.855485,-9418.149754
942.652285,133.998066,191.425808,-9418.149754
942.652913,76.570323,114.855485,-9418.149754
942.653540,95.712904,153.140646,-9418.149754
942.654168,95.712904,95.712904,-9456.434915
942.654796,172.283227,114.855485,-9379.864592
942.655424,76.570323,153.140646,-9456.434915
942.656052,76.570323,172.283227,-9418.149754
942.656680,76.570323,210.568389,-9437.292334
942.657308,76.570323,229.710970,-9533.005238
942.657935,76.570323,210.568389,-9418.149754
942.658563,76.570323,114.855485,-9418.149754
942.659191,153.140646,133.998066,-9513.862658
942.659819,133.998066,114.855485,-9456.434915
942.660447,76.570323,114.855485,-9418.149754
942.661075,133.998066,153.140646,-9418.149754
942.661703,133.998066,114.855485,-9418.149754
942.662330,133.998066,114.855485,-9456.434915
942.662958,114.855485,95.712904,-9456.434915
942.663586,114.855485,95.712904,-9456.434915
942.664214,95.712904,114.855485,-9418.149754
942.664842,133.998066,114.855485,-9418.149754
942.665470,76.570323,114.855485,-9418.149754
942.666098,38.285162,114.855485,-9418.149754
942.666725,114.855485,114.855485,-9456.434915
942.667353,76.570323,114.855485,-9418.149754
942.667981,133.998066,114.855485,-9437.292334
942.668609,133.998066,114.855485,-9456.434915
942.669237,114.855485,95.712904,-9399.007173
942.669865,95.712904,133.998066,-9360.722011
942.670493,38.285162,114.855485,-9418.149754
942.671121,95.712904,153.140646,-9533.005238
942.671748,76.570323,210.568389,-9418.149754
942.672376,57.427742,191.425808,-9418.149754
942.673004,38.285162,172.283227,-9456.434915
942.673632,95.712904,114.855485,-9418.149754
942.674260,133.998066,210.568389,-9418.149754
942.674888,76.570323,114.855485,-9418.149754
942.675516,76.570323,210.568389,-9418.149754
942.676143,76.570323,114.855485,-9418.149754
942.676771,57.427742,114.855485,-9399.007173
942.677399,133.998066,114.855485,-9418.149754
942.678027,95.712904,114.855485,-9418.149754
942.678655,133.998066,114.855485,-9418.149754
942.679283,76.570323,172.283227,-9399.007173
942.679911,133.998066,153.140646,-9437.292334
942.680538,76.570323,191.425808,-9418.149754
942.681166,76.570323,153.140646,-9418.149754
942.681794,133.998066,114.855485,-9418.149754
942.682422,95.712904,172.283227,-9418.149754
942.683050,95.712904,133.998066,-9360.722011
942.683678,95.712904,172.283227,-9418.149754
942.684306,38.285162,153.140646,-9437.292334
942.684933,133.998066,210.568389,-9437.292334
942.685561,95.712904,153.140646,-9418.149754
942.686189,133.998066,114.855485,-9475.577496
942.686817,76.570323,114.855485,-9418.149754
942.687445,57.427742,191.425808,-9360.722011
942.688073,38.285162,114.855485,-9437.292334
942.688701,95.712904,114.855485,-9437.292334
942.689328,38.285162,172.283227,-9456.434915
942.689956,95.712904,229.710970,-9437.292334
942.690584,133.998066,210.568389,-9418.149754
942.691212,172.283227,191.425808,-9360.722011
942.691840,76.570323,172.283227,-9418.149754
942.692468,76.570323,153.140646,-9418.149754
942.693096,76.570323,153.140646,-9437.292334
942.693724,95.712904,153.140646,-9456.434915
942.694351,76.570323,210.568389,-9418.149754
942.694979,76.570323,210.568389,-9475.577496
942.695607,76.570323,153.140646,-9437.292334
942.696235,76.570323,114.855485,-9418.149754
942.696863,114.855485,133.998066,-9418.149754
942.697491,76.570323,114.855485,-9418.149754
942.698119,76.570323,114.855485,-9418.149754
942.698746,76.570323,210.568389,-9418.149754
942.699374,95.712904,172.283227,-9418.149754
942.700002,153.140646,191.425808,-9399.007173
942.700630,133.998066,172.283227,-9399.007173
942.701258,95.712904,133.998066,-9418.149754
942.701886,133.998066,210.568389,-9437.292334
942.702514,76.570323,95.712904,-9399.007173
942.703141,76.570323,114.855485,-9475.577496
942.703769,133.998066,153.140646,-9533.005238
942.704397,95.712904,114.855485,-9418.149754
942.705024,95.712904,172.283227,-9418.149754
942.705652,95.712904,172.283227,-9418.149754
942.706279,76.570323,172.283227,-9456.434915
942.706907,133.998066,114.855485,-9418.149754
942.707534,133.998066,114.855485,-9418.149754
942.708162,114.855485,95.712904,-9399.007173
942.708789,133.998066,114.855485,-9418.149754
942.709417,133.998066,153.140646,-9533.005238
942.710045,38.285162,210.568389,-9418.149754
942.710672,76.570323,114.855485,-9418.149754
942.711300,133.998066,114.855485,-9360.722011
942.711927,95.712904,95.712904,-9456.434915
942.712555,57.427742,114.855485,-9418.149754
942.713182,76.570323,114.855485,-9418.149754
942.713810,95.712904,95.712904,-9399.007173
942.714437,38.285162,114.855485,-9418.149754
942.715065,133.998066,114.855485,-9418.149754
942.715692,76.570323,172.283227,-9418.149754
942.716320,57.427742,114.855485,-9399.007173
942.716947,76.570323,153.140646,-9418.149754
942.717575,38.285162,191.425808,-9437.292334
942.718202,76.570323,114.855485,-9456.434915
942.718830,38.285162,229.710970,-9437.292334
942.719457,133.998066,153.140646,-9418.149754
942.720085,38.285162,172.283227,-9418.149754
942.720712,76.570323,114.855485,-9418.149754
942.721340,95.712904,153.140646,-9418.149754
942.721967,76.570323,153.140646,-9418.149754
942.722595,133.998066,210.568389,-9418.149754
942.723222,76.570323,153.140646,-9418.149754
942.723850,133.998066,210.568389,-9418.149754
942.724477,133.998066,153.140646,-9418.149754
942.725105,153.140646,191.425808,-9399.007173
942.725733,133.998066,210.568389,-9437.292334
942.726360,133.998066,133.998066,-9437.292334
942.726988,95.712904,172.283227,-9494.720077
942.727615,76.570323,114.855485,-9418.149754
942.728243,133.998066,114.855485,-9418.149754
942.728870,76.570323,114.855485,-9437.292334
942.729498,153.140646,172.283227,-9418.149754
942.730125,76.570323,114.855485,-9418.149754
942.730753,133.998066,114.855485,-9437.292334
942.731380,38.285162,210.568389,-9456.434915
942.732008,95.712904,210.568389,-9418.149754
942.732635,133.998066,114.855485,-9418.149754
942.733263,95.712904,95.712904,-9399.007173
942.733890,153.140646,114.855485,-9418.149754
942.734518,95.712904,114.855485,-9418.149754
942.735145,95.712904,95.712904,-9437.292334
942.735773,38.285162,133.998066,-9379.864592
942.736400,133.998066,153.140646,-9418.149754
942.737028,133.998066,153.140646,-9399.007173
942.737655,133.998066,172.283227,-9418.149754
942.738283,114.855485,114.855485,-9399.007173
942.738910,133.998066,114.855485,-9418.149754
942.739538,133.998066,114.855485,-9418.149754
942.740165,76.570323,76.570323,-9379.864592
942.740793,76.570323,172.283227,-9437.292334
942.741420,76.570323,153.140646,-9437.292334
942.742048,95.712904,114.855485,-9456.434915
942.742676,38.285162,114.855485,-9437.292334
942.743303,153.140646,153.140646,-9399.007173
942.743931,133.998066,153.140646,-9418.149754
942.744558,153.140646,133.998066,-9399.007173
942.745186,133.998066,114.855485,-9418.149754
942.745813,153.140646,133.998066,-9399.007173
942.746441,76.570323,114.855485,-9437.292334
942.747068,76.570323,114.855485,-9437.292334
942.747696,38.285162,114.855485,-9418.149754
942.748323,76.570323,114.855485,-9418.149754
942.748951,133.998066,172.283227,-9456.434915
942.749578,133.998066,210.568389,-9437.292334
942.750206,76.570323,153.140646,-9418.149754
942.750833,133.998066,210.568389,-9418.149754
942.751461,76.570323,229.710970,-9418.149754
942.752088,210.568389,191.425808,-9399.007173
942.752716,133.998066,172.283227,-9418.149754
942.753343,133.998066,114.855485,-9418.149754
942.753971,133.998066,153.140646,-9418.149754
942.754598,76.570323,95.712904,-9437.292334
942.755226,133.998066,114.855485,-9437.292334
942.755853,133.998066,172.283227,-9418.149754
942.756481,133.998066,172.283227,-9418.149754
942.757108,133.998066,153.140646,-9418.149754
942.757736,133.998066,133.998066,-9456.434915
942.758364,153.140646,133.998066,-9437.292334
942.758991,133.998066,114.855485,-9418.149754
942.759619,76.570323,153.140646,-9418.149754
942.760246,0.000000,95.712904,-9399.007173
942.760874,114.855485,95.712904,-9399.007173
942.761501,133.998066,133.998066,-9399.007173
942.762129,133.998066,133.998066,-9399.007173
942.762756,114.855485,133.998066,-9360.722011
942.763384,95.712904,114.855485,-9399.007173
942.764011,76.570323,210.568389,-9418.149754
942.764639,133.998066,172.283227,-9418.149754
942.765266,133.998066,114.855485,-9418.149754
942.765894,76.570323,114.855485,-9437.292334
942.766521,133.998066,114.855485,-9418.149754
942.767149,133.998066,153.140646,-9418.149754
942.767776,153.140646,133.998066,-9399.007173
942.768404,133.998066,210.568389,-9418.149754
942.769031,76.570323,172.283227,-9418.149754
942.769659,38.285162,172.283227,-9456.434915
942.770286,133.998066,172.283227,-9456.434915
942.770914,114.855485,76.570323,-9437.292334
942.771541,76.570323,114.855485,-9418.149754
942.772169,133.998066,114.855485,-9418.149754
942.772796,133.998066,114.855485,-9418.149754
942.773424,133.998066,76.570323,-9379.864592
942.774052,38.285162,172.283227,-9456.434915
942.774679,76.570323,172.283227,-9475.577496
942.775307,153.140646,191.425808,-9437.292334
942.775934,133.998066,153.140646,-9418.149754
942.776562,76.570323,114.855485,-9418.149754
942.777189,133.998066,95.712904,-9418.149754
942.777817,76.570323,114.855485,-9475.577496
942.778444,114.855485,133.998066,-9437.292334
942.779072,133.998066,114.855485,-9360.722011
942.779699,76.570323,172.283227,-9418.149754
942.780327,133.998066,153.140646,-9475.577496
942.780954,153.140646,172.283227,-9399.007173
942.781582,76.570323,114.855485,-9418.149754
942.782209,38.285162,114.855485,-9418.149754
942.782837,95.712904,95.712904,-9399.007173
942.783464,38.285162,191.425808,-9418.149754
942.784092,38.285162,229.710970,-9418.149754
942.784719,38.285162,114.855485,-9418.149754
942.785347,76.570323,114.855485,-9418.149754
942.785974,153.140646,133.998066,-9399.007173
942.786602,76.570323,114.855485,-9437.292334
942.787229,38.285162,172.283227,-9456.434915
942.787857,95.712904,114.855485,-9437.292334
942.788484,133.998066,172.283227,-9418.149754
942.789112,76.570323,210.568389,-9475.577496
942.789740,153.140646,153.140646,-9399.007173
942.790367,38.285162,153.140646,-9437.292334
942.790995,95.712904,95.712904,-9475.577496
942.791622,95.712904,95.712904,-9437.292334
942.792250,57.427742,133.998066,-9322.436850
942.792877,95.712904,114.855485,-9418.149754
942.793505,133.998066,153.140646,-9456.434915
942.794132,76.570323,114.855485,-9456.434915
942.794760,133.998066,191.425808,-9456.434915
942.795387,114.855485,133.998066,-9360.722011
942.796015,76.570323,114.855485,-9475.577496
942.796642,133.998066,114.855485,-9418.149754
942.797270,114.855485,172.283227,-9399.007173
942.797897,95.712904,153.140646,-9418.149754
942.798525,133.998066,172.283227,-9418.149754
942.799152,76.570323,95.712904,-9399.007173
942.799780,133.998066,133.998066,-9399.007173
942.800407,153.140646,133.998066,-9399.007173
942.801035,76.570323,114.855485,-9437.292334
942.801662,76.570323,210.568389,-9418.149754
942.802290,133.998066,153.140646,-9418.149754
942.802917,133.998066,172.283227,-9437.292334
942.803545,133.998066,210.568389,-9475.577496
942.804172,38.285162,114.855485,-9475.577496
942.804800,76.570323,114.855485,-9418.149754
942.805427,95.712904,114.855485,-9533.005238
942.806055,76.570323,229.710970,-9437.292334
942.806682,76.570323,114.855485,-9475.577496
942.807309,95.712904,114.855485,-9418.149754
942.807937,38.285162,153.140646,-9437.292334
942.808564,133.998066,114.855485,-9418.149754
942.809191,76.570323,114.855485,-9418.149754
942.809819,38.285162,114.855485,-9456.434915
942.810446,133.998066,114.855485,-9418.149754
942.811074,133.998066,114.855485,-9418.149754
942.811701,95.712904,191.425808,-9418.149754
942.812328,133.998066,153.140646,-9418.149754
942.812956,210.568389,172.283227,-9437.292334
942.813583,133.998066,153.140646,-9437.292334
942.814210,191.425808,133.998066,-9399.007173
942.814838,76.570323,114.855485,-9437.292334
942.815465,95.712904,114.855485,-9418.149754
942.816093,133.998066,114.855485,-9418.149754
942.816720,76.570323,229.710970,-9437.292334
942.817347,153.140646,172.283227,-9437.292334
942.817975,114.855485,114.855485,-9418.149754
942.818602,133.998066,114.855485,-9456.434915
942.819229,133.998066,114.855485,-9418.149754
942.819857,76.570323,114.855485,-9418.149754
942.820484,38.285162,114.855485,-9475.577496
942.821112,76.570323,114.855485,-9456.434915
942.821739,57.427742,133.998066,-9360.722011
942.822366,133.998066,114.855485,-9418.149754
942.822994,133.998066,114.855485,-9418.149754
942.823621,76.570323,114.855485,-9418.149754
942.824248,38.285162,172.283227,-9418.149754
942.824876,38.285162,153.140646,-9418.149754
942.825503,38.285162,114.855485,-9437.292334
942.826131,76.570323,191.425808,-9437.292334
942.826758,133.998066,172.283227,-9475.577496
942.827385,133.998066,172.283227,-9456.434915
942.828013,133.998066,133.998066,-9513.862658
942.828640,38.285162,114.855485,-9418.149754
942.829267,38.285162,172.283227,-9494.720077
942.829895,38.285162,114.855485,-9456.434915
942.830522,95.712904,153.140646,-9418.149754
942.831150,133.998066,114.855485,-9418.149754
942.831777,76.570323,114.855485,-9437.292334
942.832404,76.570323,153.140646,-9475.577496
942.833032,133.998066,114.855485,-9418.149754
942.833659,76.570323,114.855485,-9437.292334
942.834286,76.570323,172.283227,-9418.149754
942.834914,114.855485,95.712904,-9399.007173
942.835541,38.285162,114.855485,-9418.149754
942.836168,76.570323,114.855485,-9456.434915
942.836796,76.570323,153.140646,-9418.149754
942.837423,133.998066,153.140646,-9418.149754
942.838051,133.998066,114.855485,-9437.292334
942.838678,210.568389,153.140646,-9399.007173
942.839305,133.998066,114.855485,-9494.720077
942.839933,153.140646,133.998066,-9399.007173
942.840560,76.570323,114.855485,-9418.149754
942.841187,76.570323,114.855485,-9437.292334
942.841815,133.998066,153.140646,-9475.577496
942.842442,133.998066,153.140646,-9418.149754
942.843070,133.998066,114.855485,-9418.149754
942.843697,76.570323,114.855485,-9418.149754
942.844324,153.140646,153.140646,-9399.007173
942.844952,76.570323,114.855485,-9437.292334
942.845579,57.427742,191.425808,-9418.149754
942.846206,133.998066,229.710970,-9418.149754
942.846834,133.998066,133.998066,-9399.007173
942.847461,114.855485,95.712904,-9456.434915
942.848089,133.998066,153.140646,-9418.149754
942.848716,133.998066,191.425808,-9399.007173
942.849343,76.570323,114.855485,-9418.149754
942.849971,133.998066,114.855485,-9418.149754
942.850598,76.570323,153.140646,-9475.577496
942.851225,133.998066,153.140646,-9475.577496
942.851853,38.285162,114.855485,-9418.149754
942.852480,76.570323,114.855485,-9456.434915
942.853108,76.570323,114.855485,-9475.577496
942.853735,95.712904,95.712904,-9399.007173
942.854362,76.570323,114.855485,-9456.434915
942.854990,133.998066,153.140646,-9456.434915
942.855617,76.570323,229.710970,-9456.434915
942.856244,38.285162,210.568389,-9418.149754
942.856872,38.285162,114.855485,-9456.434915
942.857499,133.998066,114.855485,-9418.149754
942.858127,114.855485,172.283227,-9418.149754
942.858754,133.998066,191.425808,-9456.434915
942.859381,76.570323,153.140646,-9418.149754
942.860009,95.712904,133.998066,-9360.722011
942.860636,76.570323,172.283227,-9418.149754
942.861263,114.855485,133.998066,-9360.722011
942.861891,95.712904,172.283227,-9418.149754
942.862518,76.570323,172.283227,-9360.722011
942.863146,76.570323,172.283227,-9418.149754
942.863773,76.570323,153.140646,-9437.292334
942.864400,76.570323,210.568389,-9418.149754
942.865028,133.998066,172.283227,-9418.149754
942.865655,133.998066,114.855485,-9418.149754
942.866282,172.283227,76.570323,-9418.149754
942.866910,133.998066,114.855485,-9418.149754
942.867537,114.855485,95.712904,-9456.434915
942.868164,153.140646,133.998066,-9494.720077
942.868792,133.998066,114.855485,-9418.149754
942.869419,172.283227,114.855485,-9379.864592
942.870047,76.570323,153.140646,-9418.149754
942.870674,38.285162,172.283227,-9437.292334
942.871301,153.140646,153.140646,-9456.434915
942.871929,76.570323,114.855485,-9418.149754
942.872556,76.570323,210.568389,-9418.149754
942.873183,95.712904,191.425808,-9456.434915
942.873811,38.285162,172.283227,-9437.292334
942.874438,153.140646,172.283227,-9456.434915
942.875066,133.998066,76.570323,-9379.864592
942.875693,95.712904,95.712904,-9399.007173
942.876320,133.998066,114.855485,-9418.149754
942.876948,76.570323,153.140646,-9418.149754
942.877575,133.998066,210.568389,-9437.292334
942.878202,133.998066,133.998066,-9456.434915
942.878830,76.570323,114.855485,-9418.149754
942.879457,95.712904,114.855485,-9399.007173
942.880085,76.570323,210.568389,-9418.149754
942.880712,133.998066,114.855485,-9418.149754
942.881339,38.285162,114.855485,-9418.149754
942.881967,76.570323,153.140646,-9475.577496
942.882594,76.570323,153.140646,-9494.720077
942.883221,133.998066,133.998066,-9437.292334
942.883849,133.998066,153.140646,-9475.577496
942.884476,95.712904,95.712904,-9399.007173
942.885104,133.998066,229.710970,-9418.149754
942.885731,76.570323,172.283227,-9418.149754
942.886358,38.285162,114.855485,-9418.149754
942.886986,76.570323,114.855485,-9437.292334
942.887613,133.998066,172.283227,-9418.149754
942.888240,133.998066,114.855485,-9437.292334
942.888868,133.998066,172.283227,-9418.149754
942.889495,133.998066,153.140646,-9456.434915
942.890123,133.998066,210.568389,-9456.434915
942.890750,133.998066,153.140646,-9399.007173
942.891377,38.285162,172.283227,-9437.292334
942.892005,95.712904,191.425808,-9475.577496
942.892632,95.712904,153.140646,-9475.577496
942.893259,95.712904,95.712904,-9456.434915
942.893887,76.570323,210.568389,-9437.292334
942.894514,133.998066,172.283227,-9418.149754
942.895142,76.570323,114.855485,-9475.577496
942.895769,95.712904,95.712904,-9494.720077
942.896396,76.570323,114.855485,-9418.149754
942.897024,133.998066,153.140646,-9418.149754
942.897651,38.285162,210.568389,-9418.149754
942.898278,210.568389,133.998066,-9475.577496
942.898906,133.998066,114.855485,-9456.434915
942.899533,76.570323,114.855485,-9418.149754
942.900161,76.570323,114.855485,-9418.149754
942.900788,133.998066,114.855485,-9475.577496
942.901415,114.855485,95.712904,-9399.007173
942.902043,133.998066,114.855485,-9418.149754
942.902670,114.855485,210.568389,-9360.722011
942.903297,210.568389,172.283227,-9399.007173
942.903925,76.570323,114.855485,-9418.149754
942.904552,38.285162,114.855485,-9418.149754
942.905180,133.998066,172.283227,-9418.149754
942.905807,133.998066,114.855485,-9418.149754
942.906435,76.570323,172.283227,-9418.149754
942.907063,153.140646,133.998066,-9399.007173
942.907690,133.998066,76.570323,-9379.864592
942.908318,133.998066,172.283227,-9418.149754
942.908945,114.855485,114.855485,-9494.720077
942.909573,133.998066,114.855485,-9418.149754
942.910201,95.712904,153.140646,-9418.149754
942.910828,133.998066,172.283227,-9399.007173
942.911456,38.285162,114.855485,-9533.005238
942.912083,95.712904,210.568389,-9437.292334
942.912711,95.712904,172.283227,-9418.149754
942.913339,133.998066,153.140646,-9437.292334
942.913966,133.998066,114.855485,-9456.434915
942.914594,133.998066,114.855485,-9456.434915
942.915221,76.570323,114.855485,-9418.149754
942.915849,133.998066,210.568389,-9418.149754
942.916477,76.570323,172.283227,-9418.149754
942.917104,95.712904,114.855485,-9437.292334
942.917732,133.998066,153.140646,-9418.149754
942.918360,133.998066,172.283227,-9399.007173
942.918987,76.570323,114.855485,-9475.577496
942.919615,76.570323,153.140646,-9533.005238
942.920242,133.998066,114.855485,-9418.149754
942.920870,133.998066,114.855485,-9494.720077
942.921498,57.427742,95.712904,-9399.007173
942.922125,172.283227,114.855485,-9379.864592
942.922753,133.998066,153.140646,-9418.149754
942.923380,95.712904,153.140646,-9360.722011
942.924008,114.855485,95.712904,-9456.434915
942.924636,76.570323,114.855485,-9418.149754
942.925263,38.285162,229.710970,-9418.149754
942.925891,133.998066,114.855485,-9418.149754
942.926518,114.855485,114.855485,-9399.007173
942.927146,19.142581,172.283227,-9418.149754
942.927774,38.285162,153.140646,-9418.149754
942.928401,133.998066,114.855485,-9418.149754
942.929029,133.998066,114.855485,-9418.149754
942.929657,38.285162,95.712904,-9399.007173
942.930284,153.140646,133.998066,-9399.007173
942.930912,57.427742,133.998066,-9360.722011
942.931539,76.570323,76.570323,-9379.864592
942.932167,133.998066,114.855485,-9437.292334
942.932795,76.570323,153.140646,-9456.434915
942.933422,114.855485,114.855485,-9456.434915
942.934050,38.285162,210.568389,-9418.149754
942.934677,114.855485,114.855485,-9418.149754
942.935305,133.998066,114.855485,-9418.149754
942.935933,133.998066,114.855485,-9418.149754
942.936560,133.998066,114.855485,-9418.149754
942.937188,133.998066,114.855485,-9418.149754
942.937815,133.998066,210.568389,-9437.292334
942.938443,153.140646,133.998066,-9456.434915
942.939071,133.998066,191.425808,-9437.292334
942.939698,133.998066,114.855485,-9437.292334
942.940326,38.285162,153.140646,-9437.292334
942.940954,133.998066,172.283227,-9418.149754
942.941581,76.570323,153.140646,-9475.577496
942.942209,57.427742,95.712904,-9437.292334
942.942836,76.570323,114.855485,-9360.722011
942.943464,95.712904,114.855485,-9360.722011
942.944092,114.855485,133.998066,-9360.722011
942.944719,76.570323,114.855485,-9437.292334
942.945347,38.285162,114.855485,-9418.149754
942.945974,38.285162,114.855485,-9437.292334
942.946602,153.140646,133.998066,-9494.720077
942.947230,76.570323,210.568389,-9437.292334
942.947857,133.998066,114.855485,-9456.434915
942.948485,76.570323,114.855485,-9399.007173
942.949112,133.998066,114.855485,-9437.292334
942.949740,133.998066,114.855485,-9437.292334
942.950368,95.712904,95.712904,-9399.007173
942.950995,153.140646,133.998066,-9437.292334
942.951623,133.998066,172.283227,-9418.149754
942.952251,114.855485,95.712904,-9399.007173
942.952878,172.283227,76.570323,-9418.149754
942.953506,133.998066,114.855485,-9456.434915
942.954133,153.140646,133.998066,-9399.007173
942.954761,133.998066,172.283227,-9418.149754
942.955389,133.998066,153.140646,-9456.434915
942.956016,76.570323,172.283227,-9360.722011
942.956644,57.427742,114.855485,-9399.007173
942.957271,133.998066,114.855485,-9418.149754
942.957899,57.427742,133.998066,-9360.722011
942.958527,38.285162,133.998066,-9418.149754
942.959154,76.570323,114.855485,-9418.149754
942.959782,133.998066,210.568389,-9418.149754
942.960409,38.285162,114.855485,-9418.149754
942.961037,114.855485,95.712904,-9456.434915
942.961665,76.570323,114.855485,-9437.292334
942.962292,133.998066,114.855485,-9475.577496
942.962920,38.285162,172.283227,-9418.149754
942.963548,76.570323,114.855485,-9418.149754
942.964175,153.140646,191.425808,-9399.007173
942.964803,133.998066,114.855485,-9418.149754
942.965430,153.140646,114.855485,-9418.149754
942.966058,133.998066,114.855485,-9456.434915
942.966686,76.570323,114.855485,-9437.292334
942.967313,172.283227,76.570323,-9475.577496
942.967941,153.140646,172.283227,-9475.577496
942.968568,38.285162,172.283227,-9456.434915
942.969196,133.998066,114.855485,-9418.149754
942.969824,76.570323,153.140646,-9456.434915
942.970451,133.998066,114.855485,-9418.149754
942.971079,76.570323,114.855485,-9418.149754
942.971706,76.570323,153.140646,-9418.149754
942.972334,133.998066,172.283227,-9418.149754
942.972962,76.570323,172.283227,-9418.149754
942.973589,133.998066,172.283227,-9418.149754
942.974217,133.998066,172.283227,-9456.434915
942.974845,76.570323,153.140646,-9418.149754
942.975472,133.998066,114.855485,-9418.149754
942.976100,133.998066,114.855485,-9418.149754
942.976727,76.570323,210.568389,-9418.149754
942.977355,133.998066,153.140646,-9437.292334
942.977983,133.998066,172.283227,-9456.434915
942.978610,76.570323,210.568389,-9437.292334
942.979238,153.140646,133.998066,-9399.007173
942.979865,133.998066,114.855485,-9418.149754
942.980493,76.570323,114.855485,-9418.149754
942.981121,95.712904,114.855485,-9437.292334
942.981748,133.998066,114.855485,-9418.149754
942.982376,95.712904,133.998066,-9360.722011
942.983003,95.712904,153.140646,-9437.292334
942.983631,133.998066,153.140646,-9437.292334
942.984259,153.140646,133.998066,-9456.434915
942.984886,76.570323,114.855485,-9418.149754
942.985514,133.998066,133.998066,-9399.007173
942.986142,76.570323,114.855485,-9418.149754
942.986769,114.855485,153.140646,-9418.149754
942.987397,76.570323,114.855485,-9399.007173
942.988024,133.998066,172.283227,-9456.434915
942.988652,76.570323,114.855485,-9418.149754
942.989280,38.285162,153.140646,-9418.149754
942.989907,76.570323,114.855485,-9437.292334
942.990535,76.570323,114.855485,-9437.292334
942.991162,76.570323,172.283227,-9418.149754
942.991790,153.140646,133.998066,-9399.007173
942.992418,95.712904,114.855485,-9418.149754
942.993045,38.285162,114.855485,-9418.149754
942.993673,133.998066,153.140646,-9494.720077
942.994300,38.285162,153.140646,-9437.292334
942.994928,76.570323,114.855485,-9418.149754
942.995556,76.570323,114.855485,-9494.720077
942.996183,114.855485,153.140646,-9475.577496
942.996811,210.568389,172.283227,-9456.434915
942.997439,133.998066,133.998066,-9399.007173
942.998066,95.712904,114.855485,-9437.292334
942.998694,210.568389,153.140646,-9399.007173
942.999321,172.283227,133.998066,-9456.434915
942.999949,76.570323,114.855485,-9418.149754
943.000577,95.712904,133.998066,-9418.149754
943.001204,76.570323,172.283227,-9418.149754
943.001832,133.998066,153.140646,-9418.149754
943.002459,38.285162,172.283227,-9456.434915
943.003087,76.570323,114.855485,-9418.149754
943.003715,57.427742,95.712904,-9494.720077
943.004342,133.998066,114.855485,-9418.149754
943.004970,38.285162,114.855485,-9475.577496
943.005597,133.998066,114.855485,-9418.149754
943.006225,133.998066,210.568389,-9418.149754
943.006852,95.712904,114.855485,-9418.149754
943.007480,95.712904,133.998066,-9360.722011
943.008107,133.998066,133.998066,-9399.007173
943.008735,38.285162,153.140646,-9418.149754
943.009362,95.712904,191.425808,-9360.722011
943.009990,57.427742,133.998066,-9360.722011
943.010617,114.855485,133.998066,-9418.149754
943.011245,133.998066,114.855485,-9418.149754
943.011872,133.998066,114.855485,-9418.149754
943.012500,172.283227,229.710970,-9379.864592
943.013127,76.570323,153.140646,-9418.149754
943.013755,133.998066,172.283227,-9456.434915
943.014382,76.570323,172.283227,-9456.434915
943.015010,133.998066,210.568389,-9418.149754
943.015637,38.285162,153.140646,-9418.149754
943.016265,76.570323,210.568389,-9456.434915
943.016892,133.998066,153.140646,-9418.149754
943.017520,76.570323,172.283227,-9399.007173
943.018147,76.570323,114.855485,-9360.722011
943.018775,114.855485,133.998066,-9341.579430
943.019402,76.570323,114.855485,-9456.434915
943.020030,76.570323,114.855485,-9418.149754
943.020657,95.712904,172.283227,-9418.149754
943.021285,76.570323,172.283227,-9494.720077
943.021912,76.570323,114.855485,-9437.292334
943.022540,38.285162,114.855485,-9456.434915
943.023167,19.142581,114.855485,-9418.149754
943.023795,153.140646,133.998066,-9456.434915
943.024422,133.998066,114.855485,-9418.149754
943.025049,38.285162,210.568389,-9418.149754
943.025677,133.998066,210.568389,-9456.434915
943.026304,76.570323,172.283227,-9418.149754
943.026932,76.570323,114.855485,-9418.149754
943.027559,76.570323,114.855485,-9418.149754
943.028187,76.570323,114.855485,-9437.292334
943.028814,76.570323,153.140646,-9418.149754
943.029442,172.283227,172.283227,-9379.864592
943.030069,133.998066,172.283227,-9418.149754
943.030697,133.998066,210.568389,-9456.434915
943.031324,76.570323,114.855485,-9418.149754
943.031952,153.140646,153.140646,-9399.007173
943.032579,76.570323,114.855485,-9418.149754
943.033207,57.427742,95.712904,-9475.577496
943.033834,76.570323,114.855485,-9418.149754
943.034462,133.998066,172.283227,-9418.149754
943.035089,76.570323,114.855485,-9437.292334
943.035717,76.570323,114.855485,-9437.292334
943.036344,133.998066,133.998066,-9494.720077
943.036972,76.570323,114.855485,-9475.577496
943.037599,38.285162,114.855485,-9456.434915
943.038227,95.712904,172.283227,-9418.149754
943.038854,114.855485,153.140646,-9418.149754
943.039482,76.570323,172.283227,-9456.434915
943.040109,38.285162,114.855485,-9418.149754
943.040737,133.998066,114.855485,-9418.149754
943.041364,114.855485,76.570323,-9418.149754
943.041992,57.427742,172.283227,-9456.434915
943.042619,133.998066,172.283227,-9418.149754
943.043247,76.570323,172.283227,-9456.434915
943.043874,133.998066,114.855485,-9437.292334
943.044502,133.998066,153.140646,-9418.149754
943.045129,133.998066,153.140646,-9437.292334
943.045757,133.998066,114.855485,-9437.292334
943.046384,76.570323,114.855485,-9437.292334
943.047012,133.998066,133.998066,-9399.007173
943.047639,133.998066,153.140646,-9418.149754
943.048267,95.712904,172.283227,-9360.722011
943.048894,76.570323,153.140646,-9418.149754
943.049522,76.570323,172.283227,-9475.577496
943.050149,133.998066,114.855485,-9418.149754
943.050777,76.570323,172.283227,-9418.149754
943.051404,38.285162,114.855485,-9418.149754
943.052032,133.998066,153.140646,-9418.149754
943.052659,76.570323,114.855485,-9418.149754
943.053287,95.712904,95.712904,-9399.007173
943.053914,76.570323,153.140646,-9437.292334
943.054541,76.570323,114.855485,-9418.149754
943.055169,153.140646,133.998066,-9399.007173
943.055796,38.285162,114.855485,-9418.149754
943.056424,76.570323,114.855485,-9418.149754
943.057051,76.570323,114.855485,-9418.149754
943.057679,76.570323,114.855485,-9437.292334
943.058306,76.570323,114.855485,-9437.292334
943.058934,133.998066,114.855485,-9437.292334
943.059561,133.998066,114.855485,-9418.149754
943.060189,133.998066,172.283227,-9437.292334
943.060816,133.998066,114.855485,-9418.149754
943.061444,191.425808,76.570323,-9418.149754
943.062071,76.570323,114.855485,-9418.149754
943.062699,114.855485,153.140646,-9360.722011
943.063326,76.570323,229.710970,-9418.149754
943.063954,133.998066,114.855485,-9533.005238
943.064581,76.570323,114.855485,-9475.577496
943.065209,153.140646,133.998066,-9494.720077
943.065836,76.570323,114.855485,-9418.149754
943.066464,76.570323,114.855485,-9456.434915
943.067091,38.285162,114.855485,-9418.149754
943.067719,95.712904,95.712904,-9399.007173
943.068346,95.712904,210.568389,-9437.292334
943.068974,76.570323,114.855485,-9418.149754
943.069601,57.427742,95.712904,-9399.007173
943.070229,19.142581,133.998066,-9399.007173
943.070856,38.285162,114.855485,-9437.292334
943.071484,76.570323,114.855485,-9475.577496
943.072111,76.570323,153.140646,-9456.434915
943.072739,95.712904,133.998066,-9533.005238
943.073366,133.998066,210.568389,-9418.149754
943.073994,133.998066,114.855485,-9418.149754
943.074621,95.712904,210.568389,-9418.149754
943.075249,133.998066,114.855485,-9418.149754
943.075876,76.570323,114.855485,-9494.720077
943.076504,133.998066,172.283227,-9418.149754
943.077131,38.285162,153.140646,-9418.149754
943.077759,38.285162,114.855485,-9437.292334
943.078386,38.285162,191.425808,-9418.149754
943.079014,76.570323,172.283227,-9418.149754
943.079641,133.998066,114.855485,-9418.149754
943.080269,133.998066,191.425808,-9456.434915
943.080896,76.570323,114.855485,-9418.149754
943.081524,76.570323,153.140646,-9418.149754
943.082151,76.570323,172.283227,-9418.149754
943.082778,153.140646,172.283227,-9399.007173
943.083406,76.570323,114.855485,-9456.434915
943.084033,76.570323,114.855485,-9456.434915
943.084661,57.427742,95.712904,-9437.292334
943.085288,76.570323,114.855485,-9418.149754
943.085916,114.855485,133.998066,-9360.722011
943.086543,153.140646,133.998066,-9437.292334
943.087171,38.285162,114.855485,-9456.434915
943.087798,76.570323,114.855485,-9418.149754
943.088426,133.998066,114.855485,-9418.149754
943.089053,95.712904,95.712904,-9437.292334
943.089681,114.855485,114.855485,-9399.007173
943.090308,19.142581,114.855485,-9418.149754
943.090936,19.142581,191.425808,-9399.007173
943.091563,76.570323,210.568389,-9418.149754
943.092191,76.570323,114.855485,-9418.149754
943.092818,133.998066,172.283227,-9399.007173
943.093446,38.285162,114.855485,-9456.434915
943.094073,133.998066,114.855485,-9418.149754
943.094701,95.712904,95.712904,-9399.007173
943.095328,133.998066,114.855485,-9418.149754
943.095956,133.998066,229.710970,-9418.149754
943.096583,133.998066,114.855485,-9418.149754
943.097211,95.712904,95.712904,-9475.577496
943.097838,76.570323,114.855485,-9475.577496
943.098466,133.998066,114.855485,-9533.005238
943.099093,76.570323,114.855485,-9494.720077
943.099721,76.570323,114.855485,-9533.005238
943.100348,57.427742,153.140646,-9418.149754
943.100976,38.285162,114.855485,-9437.292334
943.101603,153.140646,191.425808,-9456.434915
943.102231,133.998066,133.998066,-9399.007173
943.102858,114.855485,76.570323,-9418.149754
943.103486,133.998066,114.855485,-9418.149754
943.104113,76.570323,172.283227,-9418.149754
943.104741,133.998066,114.855485,-9456.434915
943.105368,114.855485,172.283227,-9360.722011
943.105996,133.998066,114.855485,-9418.149754
943.106623,95.712904,172.283227,-9456.434915
943.107251,133.998066,114.855485,-9418.149754
943.107878,153.140646,133.998066,-9399.007173
943.108506,76.570323,114.855485,-9418.149754
943.109133,133.998066,153.140646,-9399.007173
943.109761,153.140646,153.140646,-9494.720077
943.110388,38.285162,133.998066,-9360.722011
943.111015,133.998066,114.855485,-9418.149754
943.111643,153.140646,133.998066,-9399.007173
943.112270,133.998066,114.855485,-9418.149754
943.112897,153.140646,133.998066,-9399.007173
943.113525,133.998066,153.140646,-9418.149754
943.114152,133.998066,114.855485,-9418.149754
943.114779,133.998066,114.855485,-9418.149754
943.115407,133.998066,133.998066,-9399.007173
943.116034,133.998066,172.283227,-9418.149754
943.116661,76.570323,153.140646,-9418.149754
943.117289,133.998066,210.568389,-9418.149754
943.117916,114.855485,210.568389,-9360.722011
943.118543,133.998066,172.283227,-9418.149754
943.119171,57.427742,95.712904,-9475.577496
943.119798,95.712904,95.712904,-9399.007173
943.120426,133.998066,133.998066,-9456.434915
943.121053,114.855485,229.710970,-9475.577496
943.121680,76.570323,153.140646,-9456.434915
943.122308,76.570323,114.855485,-9418.149754
943.122935,95.712904,114.855485,-9437.292334
943.123562,76.570323,153.140646,-9456.434915
943.124190,133.998066,153.140646,-9418.149754
943.124817,95.712904,114.855485,-9399.007173
943.125444,95.712904,114.855485,-9494.720077
943.126072,76.570323,114.855485,-9475.577496
943.126699,133.998066,114.855485,-9437.292334
943.127326,153.140646,133.998066,-9399.007173
943.127954,133.998066,114.855485,-9437.292334
943.128581,114.855485,95.712904,-9456.434915
943.129208,153.140646,133.998066,-9399.007173
943.129836,76.570323,114.855485,-9418.149754
943.130463,57.427742,95.712904,-9456.434915
943.131090,76.570323,210.568389,-9475.577496
943.131718,38.285162,172.283227,-9360.722011
943.132345,38.285162,153.140646,-9418.149754
943.132972,76.570323,114.855485,-9437.292334
943.133600,38.285162,114.855485,-9418.149754
943.134227,153.140646,114.855485,-9418.149754
943.134854,76.570323,172.283227,-9360.722011
943.135482,153.140646,210.568389,-9533.005238
943.136109,133.998066,210.568389,-9475.577496
943.136736,95.712904,191.425808,-9360.722011
943.137364,95.712904,114.855485,-9456.434915
943.137991,133.998066,153.140646,-9456.434915
943.138619,76.570323,153.140646,-9418.149754
943.139246,38.285162,172.283227,-9437.292334
943.139873,95.712904,114.855485,-9437.292334
943.140501,76.570323,153.140646,-9437.292334
943.141128,76.570323,114.855485,-9418.149754
943.141755,114.855485,210.568389,-9379.864592
943.142383,172.283227,76.570323,-9456.434915
943.143010,76.570323,114.855485,-9456.434915
943.143637,38.285162,114.855485,-9418.149754
943.144265,133.998066,114.855485,-9456.434915
943.144892,172.283227,76.570323,-9494.720077
943.145519,133.998066,172.283227,-9399.007173
943.146147,95.712904,114.855485,-9456.434915
943.146774,95.712904,114.855485,-9456.434915
943.147401,133.998066,153.140646,-9418.149754
943.148029,133.998066,114.855485,-9418.149754
943.148656,133.998066,172.283227,-9533.005238
943.149283,133.998066,114.855485,-9418.149754
943.149911,114.855485,95.712904,-9437.292334
943.150538,114.855485,95.712904,-9399.007173
943.151165,114.855485,133.998066,-9360.722011
943.151793,133.998066,172.283227,-9437.292334
943.152420,76.570323,114.855485,-9475.577496
943.153047,38.285162,114.855485,-9456.434915
943.153675,76.570323,95.712904,-9456.434915
943.154302,38.285162,114.855485,-9418.149754
943.154929,133.998066,114.855485,-9456.434915
943.155557,133.998066,172.283227,-9418.149754
943.156184,76.570323,153.140646,-9456.434915
943.156812,38.285162,114.855485,-9418.149754
943.157439,76.570323,114.855485,-9418.149754
943.158066,76.570323,153.140646,-9418.149754
943.158694,76.570323,114.855485,-9418.149754
943.159321,76.570323,114.855485,-9418.149754
943.159948,76.570323,114.855485,-9418.149754
943.160576,76.570323,172.283227,-9418.149754
943.161203,95.712904,114.855485,-9418.149754
943.161830,114.855485,133.998066,-9418.149754
943.162458,133.998066,114.855485,-9418.149754
943.163085,172.283227,114.855485,-9379.864592
943.163712,76.570323,114.855485,-9418.149754
943.164340,38.285162,114.855485,-9494.720077
943.164967,95.712904,95.712904,-9437.292334
943.165594,95.712904,114.855485,-9418.149754
943.166222,76.570323,210.568389,-9456.434915
943.166849,95.712904,114.855485,-9418.149754
943.167476,133.998066,114.855485,-9437.292334
943.168104,95.712904,95.712904,-9456.434915
943.168731,114.855485,95.712904,-9494.720077
943.169358,133.998066,114.855485,-9418.149754
943.169986,133.998066,133.998066,-9379.864592
943.170613,95.712904,153.140646,-9360.722011
943.171240,76.570323,153.140646,-9418.149754
943.171868,133.998066,114.855485,-9418.149754
943.172495,172.283227,76.570323,-9418.149754
943.173123,76.570323,114.855485,-9418.149754
943.173750,76.570323,114.855485,-9437.292334
943.174377,172.283227,76.570323,-9418.149754
943.175005,38.285162,114.855485,-9418.149754
943.175632,95.712904,172.283227,-9418.149754
943.176259,76.570323,114.855485,-9418.149754
943.176887,95.712904,114.855485,-9418.149754
943.177514,76.570323,172.283227,-9418.149754
943.178141,76.570323,172.283227,-9418.149754
943.178769,38.285162,114.855485,-9418.149754
943.179396,95.712904,95.712904,-9456.434915
943.180023,38.285162,114.855485,-9456.434915
943.180651,76.570323,210.568389,-9418.149754
943.181278,153.140646,191.425808,-9456.434915
943.181905,153.140646,133.998066,-9399.007173
943.182533,133.998066,114.855485,-9418.149754
943.183160,57.427742,133.998066,-9360.722011
943.183787,76.570323,153.140646,-9456.434915
943.184415,38.285162,172.283227,-9418.149754
943.185042,133.998066,114.855485,-9418.149754
943.185669,153.140646,153.140646,-9456.434915
943.186297,133.998066,114.855485,-9456.434915
943.186924,133.998066,114.855485,-9475.577496
943.187551,76.570323,153.140646,-9456.434915
943.188179,153.140646,248.853550,-9494.720077
943.188806,133.998066,114.855485,-9418.149754
943.189433,76.570323,114.855485,-9418.149754
943.190061,133.998066,114.855485,-9418.149754
943.190688,133.998066,191.425808,-9418.149754
943.191316,57.427742,153.140646,-9360.722011
943.191943,76.570323,114.855485,-9437.292334
943.192570,38.285162,114.855485,-9437.292334
943.193198,153.140646,114.855485,-9418.149754
943.193825,76.570323,114.855485,-9418.149754
943.194452,153.140646,114.855485,-9418.149754
943.195080,114.855485,133.998066,-9360.722011
943.195707,57.427742,114.855485,-9475.577496
943.196334,133.998066,114.855485,-9418.149754
943.196962,76.570323,114.855485,-9456.434915
943.197589,133.998066,114.855485,-9418.149754
943.198216,114.855485,133.998066,-9360.722011
943.198844,57.427742,114.855485,-9456.434915
943.199471,76.570323,172.283227,-9456.434915
943.200098,133.998066,229.710970,-9437.292334
943.200726,95.712904,114.855485,-9456.434915
