#time,accel_x,accel_y,accel_z
957.414221,95.712904,114.855485,-9399.007173
957.414848,133.998066,153.140646,-9418.149754
957.415474,76.570323,153.140646,-9418.149754
957.416101,76.570323,191.425808,-9379.864592
957.416727,114.855485,191.425808,-9360.722011
957.417354,95.712904,95.712904,-9456.434915
957.417980,114.855485,95.712904,-9399.007173
957.418607,172.283227,114.855485,-9456.434915
957.419233,114.855485,133.998066,-9360.722011
957.419860,133.998066,114.855485,-9494.720077
957.420486,133.998066,191.425808,-9418.149754
957.421113,76.570323,153.140646,-9437.292334
957.421739,76.570323,153.140646,-9437.292334
957.422366,133.998066,210.568389,-9437.292334
957.422992,133.998066,172.283227,-9437.292334
957.423619,133.998066,133.998066,-9456.434915
957.424245,38.285162,133.998066,-9418.149754
957.424872,133.998066,172.283227,-9418.149754
957.425499,133.998066,114.855485,-9437.292334
957.426125,133.998066,153.140646,-9437.292334
957.426752,133.998066,114.855485,-9456.434915
957.427378,133.998066,210.568389,-9437.292334
957.428005,133.998066,210.568389,-9456.434915
957.428631,76.570323,114.855485,-9418.149754
957.429258,133.998066,114.855485,-9418.149754
957.429884,76.570323,114.855485,-9475.577496
957.430511,38.285162,153.140646,-9437.292334
957.431137,133.998066,114.855485,-9533.005238
957.431764,133.998066,133.998066,-9379.864592
957.432390,133.998066,191.425808,-9437.292334
957.433017,76.570323,114.855485,-9418.149754
957.433643,76.570323,191.425808,-9418.149754
957.434270,114.855485,133.998066,-9360.722011
957.434896,172.283227,133.998066,-9360.722011
957.435523,153.140646,114.855485,-9475.577496
957.436149,76.570323,114.855485,-9418.149754
957.436776,172.283227,38.285162,-9399.007173
957.437402,95.712904,95.712904,-9456.434915
957.438029,38.285162,114.855485,-9494.720077
957.438656,38.285162,172.283227,-9418.149754
957.439282,76.570323,210.568389,-9475.577496
957.439909,19.142581,210.568389,-9418.149754
957.440535,38.285162,114.855485,-9418.149754
957.441162,38.285162,114.855485,-9418.149754
957.441788,172.283227,76.570323,-9418.149754
957.442415,133.998066,114.855485,-9418.149754
957.443041,76.570323,114.855485,-9437.292334
957.443668,76.570323,172.283227,-9418.149754
957.444294,76.570323,210.568389,-9475.577496
957.444921,133.998066,114.855485,-9456.434915
957.445547,133.998066,114.855485,-9456.434915
957.446174,153.140646,191.425808,-9475.577496
957.446800,133.998066,210.568389,-9533.005238
957.447427,76.570323,153.140646,-9418.149754
957.448053,114.855485,210.568389,-9456.434915
957.448680,76.570323,153.140646,-9418.149754
957.449306,114.855485,95.712904,-9437.292334
957.449933,57.427742,153.140646,-9360.722011
957.450560,38.285162,191.425808,-9437.292334
957.451186,76.570323,153.140646,-9418.149754
957.451813,38.285162,210.568389,-9418.149754
957.452439,133.998066,114.855485,-9456.434915
957.453066,153.140646,153.140646,-9399.007173
957.453692,95.712904,114.855485,-9456.434915
957.454319,95.712904,114.855485,-9437.292334
957.454945,76.570323,210.568389,-9456.434915
957.455572,133.998066,172.283227,-9418.149754
957.456198,95.712904,172.283227,-9418.149754
957.456825,133.998066,153.140646,-9418.149754
957.457451,76.570323,114.855485,-9418.149754
957.458078,114.855485,172.283227,-9379.864592
957.458704,76.570323,114.855485,-9418.149754
957.459331,76.570323,172.283227,-9437.292334
957.459957,133.998066,114.855485,-9437.292334
957.460584,133.998066,114.855485,-9418.149754
957.461210,114.855485,172.283227,-9360.722011
957.461837,114.855485,95.712904,-9494.720077
957.462463,153.140646,133.998066,-9456.434915
957.463090,95.712904,95.712904,-9399.007173
957.463717,133.998066,153.140646,-9437.292334
957.464343,95.712904,114.855485,-9418.149754
957.464970,133.998066,133.998066,-9456.434915
957.465596,38.285162,114.855485,-9456.434915
957.466223,57.427742,133.998066,-9360.722011
957.466849,38.285162,114.855485,-9418.149754
957.467476,57.427742,133.998066,-9360.722011
957.468102,133.998066,114.855485,-9418.149754
957.468729,133.998066,114.855485,-9437.292334
957.469355,153.140646,172.283227,-9399.007173
957.469982,133.998066,153.140646,-9418.149754
957.470608,95.712904,133.998066,-9360.722011
957.471235,76.570323,114.855485,-9418.149754
957.471862,38.285162,114.855485,-9418.149754
957.472489,76.570323,114.855485,-9437.292334
957.473116,38.285162,210.568389,-9475.577496
957.473743,38.285162,210.568389,-9437.292334
957.474370,133.998066,172.283227,-9418.149754
957.474997,114.855485,95.712904,-9399.007173
957.475624,153.140646,133.998066,-9456.434915
957.476252,95.712904,114.855485,-9399.007173
957.476879,133.998066,210.568389,-9418.149754
957.477506,57.427742,114.855485,-9418.149754
957.478133,95.712904,114.855485,-9360.722011
957.478760,114.855485,114.855485,-9437.292334
957.479387,133.998066,114.855485,-9418.149754
957.480014,133.998066,114.855485,-9418.149754
957.480641,76.570323,229.710970,-9418.149754
957.481268,76.570323,172.283227,-9418.149754
957.481895,95.712904,153.140646,-9475.577496
957.482522,133.998066,210.568389,-9494.720077
957.483149,133.998066,153.140646,-9437.292334
957.483777,76.570323,114.855485,-9418.149754
957.484404,153.140646,210.568389,-9456.434915
957.485031,38.285162,191.425808,-9475.577496
957.485658,76.570323,153.140646,-9418.149754
957.486285,133.998066,172.283227,-9418.149754
957.486912,133.998066,153.140646,-9437.292334
957.487539,133.998066,114.855485,-9418.149754
957.488166,76.570323,114.855485,-9437.292334
957.488793,114.855485,95.712904,-9437.292334
957.489420,57.427742,114.855485,-9456.434915
957.490047,133.998066,114.855485,-9418.149754
957.490674,95.712904,95.712904,-9379.864592
957.491301,133.998066,172.283227,-9399.007173
957.491929,153.140646,172.283227,-9475.577496
957.492556,95.712904,133.998066,-9360.722011
957.493183,76.570323,172.283227,-9437.292334
957.493810,38.285162,153.140646,-9418.149754
957.494437,76.570323,172.283227,-9418.149754
957.495064,153.140646,191.425808,-9456.434915
957.495691,57.427742,95.712904,-9399.007173
957.496318,133.998066,114.855485,-9418.149754
957.496945,76.570323,114.855485,-9418.149754
957.497572,38.285162,172.283227,-9456.434915
957.498199,19.142581,153.140646,-9418.149754
957.498826,76.570323,114.855485,-9418.149754
957.499454,133.998066,210.568389,-9475.577496
957.500081,76.570323,114.855485,-9399.007173
957.500708,133.998066,114.855485,-9418.149754
957.501335,133.998066,114.855485,-9418.149754
957.501962,76.570323,114.855485,-9418.149754
957.502589,114.855485,114.855485,-9418.149754
957.503216,153.140646,191.425808,-9399.007173
957.503843,133.998066,153.140646,-9437.292334
957.504470,76.570323,172.283227,-9456.434915
957.505097,133.998066,114.855485,-9475.577496
957.505724,38.285162,114.855485,-9418.149754
957.506351,76.570323,114.855485,-9418.149754
957.506979,133.998066,114.855485,-9456.434915
957.507606,133.998066,210.568389,-9418.149754
957.508233,76.570323,153.140646,-9418.149754
957.508860,133.998066,114.855485,-9418.149754
957.509487,133.998066,114.855485,-9418.149754
957.510114,114.855485,153.140646,-9360.722011
957.510741,76.570323,172.283227,-9418.149754
957.511368,153.140646,133.998066,-9399.007173
957.511995,133.998066,114.855485,-9418.149754
957.512622,153.140646,133.998066,-9494.720077
957.513249,76.570323,153.140646,-9475.577496
957.513876,76.570323,133.998066,-9360.722011
957.514504,76.570323,153.140646,-9418.149754
957.515131,38.285162,229.710970,-9494.720077
957.515758,95.712904,153.140646,-9456.434915
957.516385,133.998066,114.855485,-9456.434915
957.517012,38.285162,114.855485,-9456.434915
957.517639,76.570323,114.855485,-9418.149754
957.518266,133.998066,172.283227,-9399.007173
957.518893,76.570323,172.283227,-9418.149754
957.519520,76.570323,172.283227,-9418.149754
957.520147,76.570323,153.140646,-9418.149754
957.520774,133.998066,133.998066,-9399.007173
957.521401,133.998066,114.855485,-9437.292334
957.522029,95.712904,133.998066,-9418.149754
957.522656,95.712904,114.855485,-9418.149754
957.523283,133.998066,172.283227,-9456.434915
957.523910,76.570323,114.855485,-9456.434915
957.524537,95.712904,114.855485,-9475.577496
957.525164,95.712904,153.140646,-9475.577496
957.525791,76.570323,114.855485,-9418.149754
957.526418,95.712904,114.855485,-9437.292334
957.527045,38.285162,114.855485,-9418.149754
957.527672,38.285162,172.283227,-9456.434915
957.528299,38.285162,172.283227,-9437.292334
957.528926,57.427742,114.855485,-9475.577496
957.529554,76.570323,172.283227,-9456.434915
957.530181,76.570323,153.140646,-9456.434915
957.530808,57.427742,95.712904,-9494.720077
957.531435,76.570323,114.855485,-9475.577496
957.532062,76.570323,114.855485,-9437.292334
957.532689,133.998066,210.568389,-9418.149754
957.533316,95.712904,172.283227,-9418.149754
957.533943,19.142581,172.283227,-9494.720077
957.534570,76.570323,210.568389,-9456.434915
957.535197,38.285162,114.855485,-9456.434915
957.535824,38.285162,172.283227,-9418.149754
957.536451,114.855485,114.855485,-9399.007173
957.537079,153.140646,133.998066,-9399.007173
957.537706,114.855485,95.712904,-9399.007173
957.538333,114.855485,153.140646,-9360.722011
957.538960,133.998066,153.140646,-9456.434915
957.539587,38.285162,114.855485,-9456.434915
957.540214,76.570323,114.855485,-9437.292334
957.540841,57.427742,95.712904,-9494.720077
957.541468,0.000000,95.712904,-9456.434915
957.542095,38.285162,210.568389,-9494.720077
957.542722,38.285162,172.283227,-9418.149754
957.543349,153.140646,133.998066,-9399.007173
957.543976,76.570323,114.855485,-9437.292334
957.544604,76.570323,114.855485,-9437.292334
957.545231,114.855485,76.570323,-9533.005238
957.545858,76.570323,172.283227,-9456.434915
957.546485,76.570323,114.855485,-9418.149754
957.547112,76.570323,114.855485,-9456.434915
957.547739,172.283227,133.998066,-9494.720077
957.548366,114.855485,95.712904,-9456.434915
957.548993,76.570323,191.425808,-9494.720077
957.549620,76.570323,172.283227,-9418.149754
957.550247,76.570323,114.855485,-9418.149754
957.550874,38.285162,172.283227,-9437.292334
957.551501,76.570323,153.140646,-9418.149754
957.552129,133.998066,114.855485,-9418.149754
957.552756,133.998066,114.855485,-9418.149754
957.553383,95.712904,133.998066,-9360.722011
957.554010,133.998066,191.425808,-9418.149754
957.554637,76.570323,114.855485,-9418.149754
957.555264,114.855485,172.283227,-9360.722011
957.555891,114.855485,95.712904,-9399.007173
957.556518,153.140646,133.998066,-9399.007173
957.557145,133.998066,114.855485,-9418.149754
957.557772,95.712904,172.283227,-9456.434915
957.558399,76.570323,172.283227,-9437.292334
957.559026,76.570323,172.283227,-9456.434915
957.559654,76.570323,153.140646,-9437.292334
957.560281,57.427742,114.855485,-9494.720077
957.560908,133.998066,114.855485,-9418.149754
957.561535,133.998066,153.140646,-9399.007173
957.562162,76.570323,172.283227,-9437.292334
957.562789,95.712904,95.712904,-9399.007173
957.563416,38.285162,114.855485,-9418.149754
957.564043,133.998066,172.283227,-9418.149754
957.564670,133.998066,114.855485,-9418.149754
957.565297,153.140646,133.998066,-9494.720077
957.565924,153.140646,114.855485,-9418.149754
957.566551,76.570323,114.855485,-9418.149754
957.567179,76.570323,172.283227,-9437.292334
957.567806,76.570323,210.568389,-9437.292334
957.568433,38.285162,229.710970,-9418.149754
957.569060,153.140646,172.283227,-9399.007173
957.569687,133.998066,191.425808,-9494.720077
957.570314,153.140646,133.998066,-9437.292334
957.570941,76.570323,172.283227,-9418.149754
957.571568,38.285162,153.140646,-9418.149754
957.572195,114.855485,114.855485,-9399.007173
957.572823,76.570323,172.283227,-9418.149754
957.573450,153.140646,114.855485,-9418.149754
957.574077,114.855485,95.712904,-9456.434915
957.574704,133.998066,133.998066,-9475.577496
957.575331,57.427742,114.855485,-9418.149754
957.575959,76.570323,153.140646,-9437.292334
957.576586,76.570323,172.283227,-9418.149754
957.577213,133.998066,210.568389,-9418.149754
957.577840,133.998066,172.283227,-9418.149754
957.578468,133.998066,172.283227,-9418.149754
957.579095,76.570323,114.855485,-9418.149754
957.579722,133.998066,172.283227,-9437.292334
957.580349,76.570323,114.855485,-9418.149754
957.580976,153.140646,191.425808,-9399.007173
957.581604,133.998066,114.855485,-9418.149754
957.582231,114.855485,95.712904,-9437.292334
957.582858,76.570323,114.855485,-9418.149754
957.583485,133.998066,114.855485,-9418.149754
957.584113,95.712904,114.855485,-9399.007173
957.584740,38.285162,172.283227,-9475.577496
957.585367,76.570323,153.140646,-9418.149754
957.585994,38.285162,114.855485,-9456.434915
957.586621,76.570323,114.855485,-9418.149754
957.587249,95.712904,133.998066,-9360.722011
957.587876,76.570323,172.283227,-9418.149754
957.588503,76.570323,248.853550,-9379.864592
957.589130,38.285162,172.283227,-9418.149754
957.589758,57.427742,133.998066,-9360.722011
957.590385,38.285162,114.855485,-9418.149754
957.591012,95.712904,133.998066,-9360.722011
957.591639,76.570323,114.855485,-9456.434915
957.592267,133.998066,172.283227,-9418.149754
957.592894,38.285162,114.855485,-9418.149754
957.593521,38.285162,153.140646,-9437.292334
957.594148,76.570323,114.855485,-9437.292334
957.594775,76.570323,210.568389,-9418.149754
957.595403,133.998066,114.855485,-9418.149754
957.596030,76.570323,114.855485,-9456.434915
957.596657,76.570323,114.855485,-9456.434915
957.597284,38.285162,114.855485,-9437.292334
957.597912,76.570323,114.855485,-9475.577496
957.598539,38.285162,172.283227,-9360.722011
957.599166,76.570323,172.283227,-9418.149754
957.599793,133.998066,114.855485,-9418.149754
957.600420,57.427742,95.712904,-9399.007173
957.601048,76.570323,114.855485,-9418.149754
957.601675,76.570323,114.855485,-9437.292334
957.602302,76.570323,153.140646,-9475.577496
957.602929,95.712904,229.710970,-9418.149754
957.603557,38.285162,153.140646,-9418.149754
957.604184,76.570323,114.855485,-9437.292334
957.604811,76.570323,114.855485,-9418.149754
957.605438,133.998066,114.855485,-9418.149754
957.606065,133.998066,114.855485,-9456.434915
957.606693,210.568389,133.998066,-9399.007173
957.607320,172.283227,133.998066,-9437.292334
957.607947,153.140646,133.998066,-9437.292334
957.608574,95.712904,95.712904,-9494.720077
957.609202,95.712904,114.855485,-9533.005238
957.609829,76.570323,114.855485,-9418.149754
957.610456,76.570323,153.140646,-9437.292334
957.611083,76.570323,172.283227,-9475.577496
957.611710,76.570323,114.855485,-9456.434915
957.612338,38.285162,114.855485,-9418.149754
957.612965,76.570323,114.855485,-9418.149754
957.613592,76.570323,114.855485,-9418.149754
957.614219,95.712904,114.855485,-9418.149754
957.614847,114.855485,95.712904,-9399.007173
957.615474,153.140646,172.283227,-9399.007173
957.616101,153.140646,133.998066,-9456.434915
957.616728,76.570323,114.855485,-9456.434915
957.617355,76.570323,114.855485,-9456.434915
957.617983,95.712904,172.283227,-9360.722011
957.618610,133.998066,210.568389,-9456.434915
957.619237,133.998066,114.855485,-9456.434915
957.619864,133.998066,95.712904,-9437.292334
957.620492,38.285162,153.140646,-9456.434915
957.621119,172.283227,76.570323,-9437.292334
957.621746,133.998066,114.855485,-9418.149754
957.622373,76.570323,172.283227,-9418.149754
957.623001,76.570323,153.140646,-9418.149754
957.623628,133.998066,153.140646,-9360.722011
957.624255,133.998066,114.855485,-9360.722011
957.624882,133.998066,76.570323,-9379.864592
957.625509,133.998066,114.855485,-9437.292334
957.626137,38.285162,114.855485,-9456.434915
957.626764,38.285162,153.140646,-9475.577496
957.627391,38.285162,114.855485,-9418.149754
957.628018,38.285162,114.855485,-9437.292334
957.628646,38.285162,114.855485,-9418.149754
957.629273,95.712904,172.283227,-9437.292334
957.629900,95.712904,95.712904,-9399.007173
957.630527,133.998066,172.283227,-9399.007173
957.631154,133.998066,114.855485,-9418.149754
957.631782,133.998066,210.568389,-9418.149754
957.632409,133.998066,210.568389,-9418.149754
957.633036,76.570323,114.855485,-9418.149754
957.633663,57.427742,133.998066,-9360.722011
957.634291,133.998066,114.855485,-9418.149754
957.634918,38.285162,95.712904,-9399.007173
957.635545,95.712904,133.998066,-9360.722011
957.636172,76.570323,114.855485,-9418.149754
957.636799,76.570323,172.283227,-9456.434915
957.637427,133.998066,153.140646,-9475.577496
957.638054,76.570323,210.568389,-9418.149754
957.638681,76.570323,210.568389,-9418.149754
957.639308,76.570323,172.283227,-9418.149754
957.639936,38.285162,153.140646,-9418.149754
957.640563,133.998066,172.283227,-9418.149754
957.641190,133.998066,153.140646,-9418.149754
957.641817,153.140646,133.998066,-9399.007173
957.642444,133.998066,114.855485,-9418.149754
957.643072,153.140646,133.998066,-9475.577496
957.643699,76.570323,172.283227,-9475.577496
957.644326,133.998066,210.568389,-9418.149754
957.644953,133.998066,172.283227,-9475.577496
957.645581,114.855485,191.425808,-9475.577496
957.646208,95.712904,210.568389,-9418.149754
957.646835,133.998066,172.283227,-9379.864592
957.647462,76.570323,172.283227,-9418.149754
957.648089,95.712904,172.283227,-9360.722011
957.648717,76.570323,114.855485,-9418.149754
957.649344,76.570323,114.855485,-9418.149754
957.649971,133.998066,114.855485,-9456.434915
957.650598,76.570323,114.855485,-9437.292334
957.651226,133.998066,114.855485,-9418.149754
957.651853,95.712904,95.712904,-9456.434915
957.652480,133.998066,172.283227,-9475.577496
957.653107,19.142581,210.568389,-9437.292334
957.653735,76.570323,172.283227,-9475.577496
957.654362,76.570323,210.568389,-9533.005238
957.654989,133.998066,114.855485,-9475.577496
957.655616,133.998066,114.855485,-9399.007173
957.656243,172.283227,172.283227,-9322.436850
957.656871,133.998066,153.140646,-9418.149754
957.657498,76.570323,114.855485,-9418.149754
957.658125,76.570323,172.283227,-9418.149754
957.658752,76.570323,114.855485,-9437.292334
957.659380,76.570323,210.568389,-9456.434915
957.660007,76.570323,114.855485,-9437.292334
957.660634,38.285162,114.855485,-9418.149754
957.661261,133.998066,114.855485,-9475.577496
957.661888,133.998066,114.855485,-9437.292334
957.662516,153.140646,191.425808,-9399.007173
957.663143,76.570323,229.710970,-9418.149754
957.663770,76.570323,153.140646,-9418.149754
957.664397,133.998066,172.283227,-9418.149754
957.665025,76.570323,191.425808,-9456.434915
957.665652,95.712904,133.998066,-9360.722011
957.666279,76.570323,133.998066,-9399.007173
957.666906,133.998066,114.855485,-9418.149754
957.667533,133.998066,114.855485,-9418.149754
957.668161,133.998066,114.855485,-9456.434915
957.668788,76.570323,114.855485,-9437.292334
957.669415,76.570323,114.855485,-9418.149754
957.670042,76.570323,114.855485,-9494.720077
957.670670,133.998066,210.568389,-9456.434915
957.671297,133.998066,172.283227,-9533.005238
957.671924,114.855485,210.568389,-9418.149754
957.672552,76.570323,114.855485,-9418.149754
957.673180,76.570323,172.283227,-9437.292334
957.673808,133.998066,114.855485,-9418.149754
957.674436,133.998066,172.283227,-9360.722011
957.675063,76.570323,172.283227,-9418.149754
957.675691,133.998066,114.855485,-9418.149754
957.676319,153.140646,133.998066,-9399.007173
957.676947,76.570323,114.855485,-9418.149754
957.677575,114.855485,95.712904,-9399.007173
957.678203,114.855485,133.998066,-9418.149754
957.678831,76.570323,114.855485,-9418.149754
957.679459,38.285162,229.710970,-9418.149754
957.680087,57.427742,133.998066,-9360.722011
957.680714,133.998066,153.140646,-9418.149754
957.681342,133.998066,229.710970,-9418.149754
957.681970,76.570323,114.855485,-9418.149754
957.682598,133.998066,133.998066,-9399.007173
957.683226,172.283227,114.855485,-9399.007173
957.683854,172.283227,114.855485,-9399.007173
957.684482,210.568389,133.998066,-9399.007173
957.685110,153.140646,153.140646,-9399.007173
957.685737,95.712904,153.140646,-9418.149754
957.686365,76.570323,191.425808,-9456.434915
957.686993,133.998066,210.568389,-9456.434915
957.687621,76.570323,210.568389,-9418.149754
957.688249,133.998066,210.568389,-9437.292334
957.688877,76.570323,153.140646,-9418.149754
957.689505,95.712904,114.855485,-9418.149754
957.690133,95.712904,114.855485,-9418.149754
957.690761,38.285162,114.855485,-9418.149754
957.691388,133.998066,133.998066,-9399.007173
957.692016,133.998066,153.140646,-9418.149754
957.692644,38.285162,114.855485,-9418.149754
957.693272,76.570323,114.855485,-9418.149754
957.693900,133.998066,114.855485,-9437.292334
957.694528,38.285162,114.855485,-9418.149754
957.695156,38.285162,114.855485,-9456.434915
957.695784,38.285162,210.568389,-9418.149754
957.696411,76.570323,229.710970,-9418.149754
957.697039,76.570323,114.855485,-9437.292334
957.697667,133.998066,114.855485,-9418.149754
957.698295,153.140646,133.998066,-9399.007173
957.698923,133.998066,114.855485,-9475.577496
957.699551,76.570323,172.283227,-9418.149754
957.700179,76.570323,95.712904,-9437.292334
957.700807,133.998066,114.855485,-9418.149754
957.701435,133.998066,114.855485,-9418.149754
957.702062,210.568389,153.140646,-9494.720077
957.702690,133.998066,114.855485,-9437.292334
957.703318,133.998066,114.855485,-9475.577496
957.703946,114.855485,76.570323,-9418.149754
957.704574,38.285162,153.140646,-9533.005238
957.705202,76.570323,114.855485,-9418.149754
957.705830,57.427742,114.855485,-9418.149754
957.706458,57.427742,133.998066,-9360.722011
957.707086,95.712904,133.998066,-9360.722011
957.707713,76.570323,153.140646,-9418.149754
957.708341,76.570323,114.855485,-9418.149754
957.708969,76.570323,114.855485,-9418.149754
957.709597,114.855485,95.712904,-9437.292334
957.710225,76.570323,153.140646,-9456.434915
957.710853,133.998066,114.855485,-9418.149754
957.711481,95.712904,133.998066,-9360.722011
957.712109,76.570323,172.283227,-9418.149754
957.712736,76.570323,172.283227,-9437.292334
957.713364,76.570323,172.283227,-9494.720077
957.713992,38.285162,172.283227,-9437.292334
957.714620,133.998066,210.568389,-9456.434915
957.715248,114.855485,95.712904,-9456.434915
957.715876,133.998066,114.855485,-9437.292334
957.716504,76.570323,210.568389,-9418.149754
957.717132,172.283227,172.283227,-9379.864592
957.717760,76.570323,114.855485,-9418.149754
957.718387,57.427742,153.140646,-9360.722011
957.719015,133.998066,153.140646,-9418.149754
957.719643,153.140646,114.855485,-9418.149754
957.720271,95.712904,114.855485,-9360.722011
957.720899,76.570323,229.710970,-9418.149754
957.721527,172.283227,153.140646,-9533.005238
957.722155,38.285162,114.855485,-9418.149754
957.722783,76.570323,172.283227,-9418.149754
957.723411,114.855485,133.998066,-9360.722011
957.724038,133.998066,133.998066,-9399.007173
957.724666,133.998066,210.568389,-9418.149754
957.725294,153.140646,153.140646,-9399.007173
957.725922,76.570323,133.998066,-9322.436850
957.726550,38.285162,153.140646,-9418.149754
957.727178,57.427742,95.712904,-9399.007173
957.727806,133.998066,114.855485,-9437.292334
957.728434,114.855485,114.855485,-9437.292334
957.729061,95.712904,114.855485,-9456.434915
957.729689,95.712904,95.712904,-9399.007173
957.730317,38.285162,229.710970,-9494.720077
957.730945,38.285162,229.710970,-9437.292334
957.731573,76.570323,114.855485,-9418.149754
957.732201,38.285162,153.140646,-9418.149754
957.732829,76.570323,114.855485,-9418.149754
957.733457,133.998066,114.855485,-9418.149754
957.734085,153.140646,191.425808,-9418.149754
957.734712,133.998066,153.140646,-9418.149754
957.735340,76.570323,95.712904,-9399.007173
957.735968,133.998066,153.140646,-9418.149754
957.736596,76.570323,114.855485,-9456.434915
957.737224,172.283227,76.570323,-9418.149754
957.737852,172.283227,76.570323,-9418.149754
957.738480,76.570323,153.140646,-9418.149754
957.739108,76.570323,172.283227,-9456.434915
957.739735,95.712904,95.712904,-9513.862658
957.740363,95.712904,210.568389,-9533.005238
957.740991,133.998066,153.140646,-9418.149754
957.741619,153.140646,153.140646,-9475.577496
957.742247,76.570323,114.855485,-9418.149754
957.742875,133.998066,114.855485,-9418.149754
957.743503,114.855485,133.998066,-9360.722011
957.744131,153.140646,172.283227,-9399.007173
957.744759,133.998066,114.855485,-9418.149754
957.745386,210.568389,133.998066,-9399.007173
957.746014,76.570323,114.855485,-9456.434915
957.746642,38.285162,114.855485,-9418.149754
957.747270,133.998066,114.855485,-9456.434915
957.747898,76.570323,153.140646,-9437.292334
957.748526,38.285162,172.283227,-9418.149754
957.749154,38.285162,210.568389,-9437.292334
957.749782,76.570323,153.140646,-9418.149754
957.750410,133.998066,229.710970,-9418.149754
957.751037,133.998066,153.140646,-9418.149754
957.751665,38.285162,114.855485,-9418.149754
957.752293,76.570323,210.568389,-9418.149754
957.752921,95.712904,133.998066,-9360.722011
957.753549,38.285162,114.855485,-9418.149754
957.754177,133.998066,114.855485,-9437.292334
957.754805,76.570323,114.855485,-9418.149754
957.755433,38.285162,172.283227,-9418.149754
957.756060,38.285162,153.140646,-9456.434915
957.756688,38.285162,229.710970,-9437.292334
957.757316,133.998066,153.140646,-9437.292334
957.757944,76.570323,153.140646,-9418.149754
957.758572,153.140646,133.998066,-9399.007173
957.759200,153.140646,172.283227,-9456.434915
957.759828,153.140646,133.998066,-9437.292334
957.760456,57.427742,153.140646,-9418.149754
957.761084,114.855485,95.712904,-9399.007173
957.761711,133.998066,191.425808,-9399.007173
957.762339,114.855485,133.998066,-9552.147819
957.762967,153.140646,114.855485,-9418.149754
957.763595,76.570323,114.855485,-9475.577496
957.764223,133.998066,172.283227,-9418.149754
957.764851,76.570323,153.140646,-9418.149754
957.765479,153.140646,153.140646,-9494.720077
957.766107,76.570323,114.855485,-9437.292334
957.766735,57.427742,153.140646,-9437.292334
957.767362,95.712904,114.855485,-9418.149754
957.767990,76.570323,153.140646,-9360.722011
957.768618,76.570323,76.570323,-9379.864592
957.769246,76.570323,114.855485,-9418.149754
957.769874,95.712904,153.140646,-9360.722011
957.770502,76.570323,172.283227,-9418.149754
957.771130,76.570323,114.855485,-9494.720077
957.771758,153.140646,172.283227,-9456.434915
957.772385,76.570323,114.855485,-9456.434915
957.773013,76.570323,114.855485,-9418.149754
957.773641,76.570323,114.855485,-9418.149754
957.774268,133.998066,114.855485,-9437.292334
957.774896,133.998066,114.855485,-9418.149754
957.775524,133.998066,114.855485,-9494.720077
957.776151,133.998066,114.855485,-9437.292334
957.776779,38.285162,114.855485,-9456.434915
957.777407,76.570323,153.140646,-9418.149754
957.778034,95.712904,95.712904,-9399.007173
957.778662,133.998066,114.855485,-9418.149754
957.779290,95.712904,114.855485,-9456.434915
957.779917,133.998066,114.855485,-9456.434915
957.780545,172.283227,76.570323,-9437.292334
957.781173,95.712904,95.712904,-9437.292334
957.781800,76.570323,114.855485,-9418.149754
957.782428,38.285162,210.568389,-9437.292334
957.783056,38.285162,172.283227,-9418.149754
957.783683,133.998066,153.140646,-9437.292334
957.784311,57.427742,114.855485,-9437.292334
957.784939,153.140646,114.855485,-9418.149754
957.785566,76.570323,114.855485,-9418.149754
957.786194,133.998066,153.140646,-9399.007173
957.786822,153.140646,172.283227,-9399.007173
957.787449,114.855485,95.712904,-9399.007173
957.788077,95.712904,114.855485,-9437.292334
957.788705,57.427742,95.712904,-9399.007173
957.789332,133.998066,172.283227,-9475.577496
957.789960,38.285162,191.425808,-9475.577496
957.790588,38.285162,153.140646,-9475.577496
957.791215,95.712904,191.425808,-9533.005238
957.791843,76.570323,210.568389,-9494.720077
957.792471,133.998066,153.140646,-9418.149754
957.793098,153.140646,133.998066,-9399.007173
957.793726,133.998066,172.283227,-9399.007173
957.794354,76.570323,210.568389,-9418.149754
957.794981,133.998066,114.855485,-9418.149754
957.795609,133.998066,133.998066,-9399.007173
957.796237,153.140646,114.855485,-9418.149754
957.796864,153.140646,172.283227,-9456.434915
957.797492,114.855485,76.570323,-9437.292334
957.798120,76.570323,114.855485,-9513.862658
957.798747,133.998066,172.283227,-9456.434915
957.799375,133.998066,210.568389,-9475.577496
957.800003,76.570323,114.855485,-9494.720077
957.800630,76.570323,114.855485,-9418.149754
957.801258,133.998066,114.855485,-9418.149754
957.801885,76.570323,153.140646,-9456.434915
957.802513,38.285162,172.283227,-9418.149754
957.803141,38.285162,210.568389,-9418.149754
957.803768,38.285162,172.283227,-9437.292334
957.804396,133.998066,114.855485,-9418.149754
957.805024,133.998066,133.998066,-9456.434915
957.805651,133.998066,172.283227,-9418.149754
957.806279,133.998066,114.855485,-9437.292334
957.806907,76.570323,114.855485,-9456.434915
957.807534,57.427742,114.855485,-9437.292334
957.808162,38.285162,172.283227,-9533.005238
957.808790,95.712904,191.425808,-9360.722011
957.809417,57.427742,133.998066,-9418.149754
957.810045,38.285162,153.140646,-9456.434915
957.810673,38.285162,153.140646,-9418.149754
957.811300,95.712904,133.998066,-9360.722011
957.811928,95.712904,95.712904,-9418.149754
957.812556,114.855485,95.712904,-9399.007173
957.813183,114.855485,133.998066,-9360.722011
957.813811,153.140646,133.998066,-9399.007173
957.814439,172.283227,76.570323,-9437.292334
957.815066,76.570323,114.855485,-9418.149754
957.815694,57.427742,114.855485,-9475.577496
957.816322,76.570323,114.855485,-9456.434915
957.816949,57.427742,133.998066,-9533.005238
957.817577,76.570323,153.140646,-9475.577496
957.818205,76.570323,153.140646,-9475.577496
957.818832,57.427742,95.712904,-9456.434915
957.819460,76.570323,76.570323,-9379.864592
957.820088,95.712904,172.283227,-9418.149754
957.820715,95.712904,153.140646,-9418.149754
957.821343,133.998066,114.855485,-9418.149754
957.821971,133.998066,114.855485,-9418.149754
957.822598,114.855485,76.570323,-9360.722011
957.823226,76.570323,114.855485,-9437.292334
957.823854,95.712904,114.855485,-9475.577496
957.824481,57.427742,191.425808,-9418.149754
957.825109,19.142581,172.283227,-9475.577496
957.825737,19.142581,133.998066,-9399.007173
957.826364,133.998066,114.855485,-9456.434915
957.826992,133.998066,114.855485,-9418.149754
957.827620,133.998066,114.855485,-9418.149754
957.828247,133.998066,153.140646,-9418.149754
957.828875,133.998066,210.568389,-9418.149754
957.829503,133.998066,153.140646,-9418.149754
957.830130,133.998066,114.855485,-9418.149754
957.830758,114.855485,95.712904,-9437.292334
957.831386,114.855485,114.855485,-9456.434915
957.832013,133.998066,114.855485,-9456.434915
957.832641,76.570323,114.855485,-9437.292334
957.833268,38.285162,210.568389,-9418.149754
957.833896,38.285162,191.425808,-9418.149754
957.834524,38.285162,114.855485,-9475.577496
957.835151,95.712904,114.855485,-9437.292334
957.835779,76.570323,172.283227,-9418.149754
957.836407,76.570323,248.853550,-9418.149754
957.837034,76.570323,153.140646,-9418.149754
957.837662,19.142581,114.855485,-9418.149754
957.838290,38.285162,172.283227,-9418.149754
957.838917,76.570323,114.855485,-9437.292334
957.839545,133.998066,114.855485,-9418.149754
957.840173,76.570323,172.283227,-9418.149754
957.840800,133.998066,153.140646,-9399.007173
957.841428,133.998066,210.568389,-9418.149754
957.842056,76.570323,114.855485,-9475.577496
957.842683,95.712904,172.283227,-9418.149754
957.843311,133.998066,210.568389,-9456.434915
957.843939,133.998066,210.568389,-9418.149754
957.844566,76.570323,153.140646,-9418.149754
957.845194,57.427742,95.712904,-9437.292334
957.845822,133.998066,114.855485,-9418.149754
957.846449,153.140646,133.998066,-9399.007173
957.847077,133.998066,191.425808,-9418.149754
957.847705,76.570323,114.855485,-9456.434915
957.848332,95.712904,95.712904,-9399.007173
957.848960,133.998066,114.855485,-9456.434915
957.849588,76.570323,153.140646,-9418.149754
957.850215,38.285162,114.855485,-9418.149754
957.850843,57.427742,153.140646,-9475.577496
957.851471,38.285162,114.855485,-9456.434915
957.852098,19.142581,229.710970,-9475.577496
957.852726,38.285162,210.568389,-9418.149754
957.853354,76.570323,153.140646,-9418.149754
957.853981,38.285162,153.140646,-9418.149754
957.854609,133.998066,153.140646,-9418.149754
957.855237,153.140646,191.425808,-9399.007173
957.855864,133.998066,114.855485,-9494.720077
957.856492,172.283227,76.570323,-9437.292334
957.857120,76.570323,114.855485,-9418.149754
957.857747,57.427742,95.712904,-9399.007173
957.858375,76.570323,114.855485,-9418.149754
957.859003,76.570323,114.855485,-9437.292334
957.859630,76.570323,172.283227,-9533.005238
957.860258,76.570323,172.283227,-9475.577496
957.860886,114.855485,95.712904,-9513.862658
957.861513,172.283227,76.570323,-9533.005238
957.862141,133.998066,153.140646,-9418.149754
957.862769,95.712904,191.425808,-9360.722011
957.863396,38.285162,114.855485,-9418.149754
957.864024,133.998066,172.283227,-9418.149754
957.864652,133.998066,210.568389,-9418.149754
957.865279,133.998066,114.855485,-9418.149754
957.865907,76.570323,114.855485,-9475.577496
957.866534,38.285162,191.425808,-9418.149754
957.867162,133.998066,114.855485,-9437.292334
957.867790,95.712904,95.712904,-9437.292334
957.868417,133.998066,114.855485,-9437.292334
957.869045,95.712904,210.568389,-9418.149754
957.869673,76.570323,114.855485,-9418.149754
957.870300,133.998066,172.283227,-9437.292334
957.870928,0.000000,95.712904,-9399.007173
957.871556,95.712904,133.998066,-9360.722011
957.872183,19.142581,76.570323,-9379.864592
957.872811,133.998066,153.140646,-9418.149754
957.873438,210.568389,153.140646,-9399.007173
957.874066,114.855485,133.998066,-9360.722011
957.874693,153.140646,172.283227,-9456.434915
957.875321,76.570323,114.855485,-9437.292334
957.875948,76.570323,153.140646,-9437.292334
957.876576,38.285162,114.855485,-9533.005238
957.877203,95.712904,114.855485,-9418.149754
957.877830,133.998066,153.140646,-9418.149754
957.878458,210.568389,153.140646,-9399.007173
957.879085,153.140646,172.283227,-9437.292334
957.879713,153.140646,191.425808,-9399.007173
957.880340,153.140646,153.140646,-9399.007173
957.880967,153.140646,248.853550,-9399.007173
957.881595,172.283227,114.855485,-9379.864592
957.882222,153.140646,172.283227,-9399.007173
957.882850,133.998066,133.998066,-9399.007173
957.883477,76.570323,172.283227,-9437.292334
957.884104,76.570323,153.140646,-9437.292334
957.884732,38.285162,210.568389,-9418.149754
957.885359,38.285162,210.568389,-9456.434915
957.885987,38.285162,229.710970,-9437.292334
957.886614,133.998066,191.425808,-9494.720077
957.887241,95.712904,114.855485,-9418.149754
957.887869,95.712904,153.140646,-9360.722011
957.888496,95.712904,114.855485,-9418.149754
957.889124,133.998066,172.283227,-9418.149754
957.889751,133.998066,114.855485,-9418.149754
957.890378,153.140646,133.998066,-9456.434915
957.891006,133.998066,114.855485,-9533.005238
957.891633,114.855485,95.712904,-9456.434915
957.892261,133.998066,114.855485,-9418.149754
957.892888,76.570323,210.568389,-9456.434915
957.893516,76.570323,210.568389,-9456.434915
957.894143,38.285162,153.140646,-9418.149754
957.894770,95.712904,114.855485,-9418.149754
957.895398,133.998066,95.712904,-9418.149754
957.896025,114.855485,95.712904,-9399.007173
957.896653,133.998066,133.998066,-9399.007173
957.897280,76.570323,114.855485,-9418.149754
957.897907,95.712904,95.712904,-9399.007173
957.898535,38.285162,114.855485,-9418.149754
957.899162,153.140646,133.998066,-9456.434915
957.899790,153.140646,133.998066,-9399.007173
957.900417,95.712904,95.712904,-9437.292334
957.901044,153.140646,114.855485,-9418.149754
957.901672,114.855485,114.855485,-9494.720077
957.902299,133.998066,153.140646,-9399.007173
957.902927,76.570323,76.570323,-9379.864592
957.903554,95.712904,172.283227,-9437.292334
957.904181,95.712904,172.283227,-9418.149754
957.904809,153.140646,133.998066,-9399.007173
957.905436,38.285162,153.140646,-9418.149754
957.906064,38.285162,229.710970,-9418.149754
957.906691,38.285162,210.568389,-9437.292334
957.907318,38.285162,114.855485,-9418.149754
957.907946,133.998066,114.855485,-9418.149754
957.908573,133.998066,114.855485,-9437.292334
957.909201,76.570323,95.712904,-9494.720077
957.909828,38.285162,114.855485,-9418.149754
957.910456,38.285162,114.855485,-9437.292334
957.911083,19.142581,114.855485,-9418.149754
957.911710,76.570323,172.283227,-9418.149754
957.912338,38.285162,172.283227,-9475.577496
957.912965,76.570323,172.283227,-9418.149754
957.913593,133.998066,210.568389,-9456.434915
957.914220,133.998066,114.855485,-9456.434915
957.914847,76.570323,114.855485,-9418.149754
957.915475,133.998066,114.855485,-9418.149754
957.916102,153.140646,133.998066,-9456.434915
957.916730,153.140646,114.855485,-9418.149754
957.917357,76.570323,114.855485,-9437.292334
957.917984,76.570323,95.712904,-9456.434915
957.918612,57.427742,95.712904,-9494.720077
957.919239,38.285162,114.855485,-9437.292334
957.919867,38.285162,114.855485,-9437.292334
957.920494,76.570323,114.855485,-9456.434915
957.921121,38.285162,172.283227,-9418.149754
957.921749,38.285162,114.855485,-9360.722011
957.922376,95.712904,95.712904,-9399.007173
957.923004,95.712904,133.998066,-9360.722011
957.923631,133.998066,133.998066,-9399.007173
957.924258,38.285162,133.998066,-9379.864592
957.924886,95.712904,133.998066,-9360.722011
957.925513,172.283227,76.570323,-9418.149754
957.926141,153.140646,153.140646,-9399.007173
957.926768,133.998066,210.568389,-9418.149754
957.927396,38.285162,114.855485,-9494.720077
957.928023,95.712904,229.710970,-9418.149754
957.928650,133.998066,172.283227,-9475.577496
957.929278,133.998066,191.425808,-9418.149754
957.929905,76.570323,172.283227,-9456.434915
957.930533,114.855485,114.855485,-9379.864592
957.931160,133.998066,133.998066,-9456.434915
957.931787,153.140646,133.998066,-9399.007173
957.932415,76.570323,210.568389,-9418.149754
957.933042,133.998066,153.140646,-9399.007173
957.933670,76.570323,114.855485,-9437.292334
957.934297,133.998066,133.998066,-9494.720077
957.934924,76.570323,114.855485,-9437.292334
957.935552,76.570323,114.855485,-9418.149754
957.936179,38.285162,114.855485,-9456.434915
957.936807,76.570323,114.855485,-9418.149754
957.937434,38.285162,210.568389,-9418.149754
957.938061,38.285162,153.140646,-9418.149754
957.938689,114.855485,114.855485,-9399.007173
957.939316,133.998066,114.855485,-9418.149754
957.939944,133.998066,133.998066,-9399.007173
957.940571,76.570323,172.283227,-9456.434915
957.941198,114.855485,133.998066,-9360.722011
957.941826,76.570323,114.855485,-9418.149754
957.942453,153.140646,114.855485,-9418.149754
957.943081,133.998066,114.855485,-9418.149754
957.943708,210.568389,76.570323,-9437.292334
957.944336,95.712904,95.712904,-9475.577496
957.944963,133.998066,114.855485,-9418.149754
957.945590,95.712904,133.998066,-9418.149754
957.946218,19.142581,114.855485,-9418.149754
957.946845,76.570323,210.568389,-9418.149754
957.947473,38.285162,114.855485,-9418.149754
957.948100,76.570323,114.855485,-9418.149754
957.948727,38.285162,114.855485,-9418.149754
957.949355,76.570323,172.283227,-9418.149754
957.949982,76.570323,114.855485,-9418.149754
957.950610,153.140646,133.998066,-9399.007173
957.951237,153.140646,133.998066,-9399.007173
957.951864,153.140646,153.140646,-9456.434915
957.952492,95.712904,95.712904,-9456.434915
957.953119,114.855485,95.712904,-9456.434915
957.953747,133.998066,210.568389,-9475.577496
957.954374,76.570323,153.140646,-9533.005238
957.955001,76.570323,114.855485,-9437.292334
957.955629,76.570323,114.855485,-9418.149754
957.956256,38.285162,114.855485,-9418.149754
957.956884,76.570323,210.568389,-9456.434915
957.957511,114.855485,153.140646,-9418.149754
957.958138,153.140646,95.712904,-9360.722011
957.958766,133.998066,114.855485,-9437.292334
957.959393,114.855485,95.712904,-9399.007173
957.960021,172.283227,76.570323,-9418.149754
957.960648,95.712904,114.855485,-9418.149754
957.961276,133.998066,172.283227,-9456.434915
957.961903,38.285162,191.425808,-9418.149754
957.962530,19.142581,114.855485,-9437.292334
957.963158,133.998066,191.425808,-9418.149754
957.963785,133.998066,172.283227,-9418.149754
957.964413,133.998066,210.568389,-9456.434915
957.965040,95.712904,248.853550,-9360.722011
957.965667,172.283227,172.283227,-9360.722011
957.966295,76.570323,153.140646,-9418.149754
957.966922,95.712904,133.998066,-9360.722011
957.967550,95.712904,153.140646,-9418.149754
957.968177,133.998066,114.855485,-9475.577496
957.968804,133.998066,114.855485,-9437.292334
957.969432,153.140646,133.998066,-9437.292334
957.970059,76.570323,114.855485,-9437.292334
957.970687,76.570323,114.855485,-9418.149754
957.971314,76.570323,210.568389,-9418.149754
957.971941,76.570323,172.283227,-9418.149754
957.972569,76.570323,172.283227,-9418.149754
957.973196,95.712904,95.712904,-9399.007173
957.973823,95.712904,114.855485,-9399.007173
957.974451,133.998066,153.140646,-9456.434915
957.975078,76.570323,114.855485,-9437.292334
957.975705,95.712904,114.855485,-9418.149754
957.976332,133.998066,210.568389,-9456.434915
957.976959,133.998066,114.855485,-9494.720077
957.977587,95.712904,95.712904,-9456.434915
957.978214,95.712904,95.712904,-9399.007173
957.978841,76.570323,153.140646,-9418.149754
957.979468,76.570323,114.855485,-9418.149754
957.980095,38.285162,172.283227,-9456.434915
957.980723,95.712904,172.283227,-9418.149754
957.981350,133.998066,114.855485,-9437.292334
957.981977,95.712904,114.855485,-9456.434915
957.982604,76.570323,191.425808,-9437.292334
957.983231,95.712904,210.568389,-9418.149754
957.983859,95.712904,153.140646,-9418.149754
957.984486,133.998066,191.425808,-9399.007173
957.985113,133.998066,153.140646,-9418.149754
957.985740,114.855485,95.712904,-9456.434915
957.986367,133.998066,114.855485,-9418.149754
957.986995,133.998066,114.855485,-9533.005238
957.987622,133.998066,114.855485,-9475.577496
957.988249,95.712904,114.855485,-9418.149754
957.988876,19.142581,114.855485,-9418.149754
957.989503,95.712904,95.712904,-9399.007173
957.990131,133.998066,153.140646,-9494.720077
957.990758,95.712904,172.283227,-9360.722011
957.991385,38.285162,114.855485,-9418.149754
957.992012,114.855485,133.998066,-9418.149754
957.992639,76.570323,114.855485,-9437.292334
957.993267,133.998066,114.855485,-9456.434915
957.993894,172.283227,114.855485,-9379.864592
957.994521,76.570323,114.855485,-9494.720077
957.995148,76.570323,153.140646,-9456.434915
957.995775,76.570323,114.855485,-9456.434915
957.996403,38.285162,114.855485,-9456.434915
957.997030,76.570323,153.140646,-9437.292334
957.997657,38.285162,172.283227,-9418.149754
957.998284,95.712904,172.283227,-9418.149754
957.998911,57.427742,153.140646,-9360.722011
957.999539,133.998066,114.855485,-9437.292334
958.000166,95.712904,153.140646,-9360.722011
958.000793,76.570323,114.855485,-9360.722011
958.001420,172.283227,133.998066,-9360.722011
958.002047,133.998066,153.140646,-9418.149754
958.002675,114.855485,76.570323,-9418.149754
958.003302,95.712904,95.712904,-9399.007173
958.003929,95.712904,95.712904,-9399.007173
958.004556,133.998066,114.855485,-9418.149754
958.005183,114.855485,133.998066,-9418.149754
958.005811,76.570323,153.140646,-9475.577496
958.006438,133.998066,114.855485,-9418.149754
958.007065,133.998066,114.855485,-9418.149754
958.007692,133.998066,172.283227,-9437.292334
958.008319,76.570323,210.568389,-9418.149754
958.008947,76.570323,153.140646,-9437.292334
958.009574,133.998066,153.140646,-9418.149754
958.010201,38.285162,172.283227,-9418.149754
958.010828,133.998066,210.568389,-9418.149754
958.011455,133.998066,114.855485,-9437.292334
958.012083,133.998066,114.855485,-9437.292334
958.012710,114.855485,133.998066,-9418.149754
958.013337,19.142581,114.855485,-9456.434915
958.013964,38.285162,210.568389,-9418.149754
958.014591,76.570323,210.568389,-9418.149754
958.015219,38.285162,153.140646,-9418.149754
958.015846,95.712904,172.283227,-9437.292334
958.016473,76.570323,172.283227,-9418.149754
958.017100,133.998066,114.855485,-9418.149754
958.017727,133.998066,76.570323,-9379.864592
958.018355,153.140646,133.998066,-9399.007173
958.018982,114.855485,76.570323,-9418.149754
958.019609,153.140646,133.998066,-9399.007173
958.020236,57.427742,95.712904,-9456.434915
958.020863,153.140646,153.140646,-9399.007173
958.021491,153.140646,133.998066,-9456.434915
958.022118,38.285162,172.283227,-9418.149754
958.022745,76.570323,210.568389,-9456.434915
958.023372,76.570323,172.283227,-9456.434915
958.023999,114.855485,95.712904,-9399.007173
958.024627,114.855485,95.712904,-9399.007173
958.025254,133.998066,114.855485,-9418.149754
958.025881,76.570323,76.570323,-9379.864592
958.026508,114.855485,133.998066,-9360.722011
958.027135,133.998066,114.855485,-9418.149754
958.027763,172.283227,133.998066,-9360.722011
958.028390,95.712904,133.998066,-9360.722011
958.029017,76.570323,95.712904,-9513.862658
958.029644,95.712904,95.712904,-9456.434915
958.030271,133.998066,114.855485,-9418.149754
958.030899,95.712904,114.855485,-9437.292334
958.031526,57.427742,114.855485,-9456.434915
958.032153,133.998066,114.855485,-9418.149754
958.032780,133.998066,114.855485,-9494.720077
958.033407,95.712904,172.283227,-9418.149754
958.034035,153.140646,133.998066,-9399.007173
958.034662,133.998066,210.568389,-9475.577496
958.035289,38.285162,172.283227,-9418.149754
958.035916,76.570323,210.568389,-9418.149754
958.036543,38.285162,172.283227,-9437.292334
958.037171,76.570323,153.140646,-9456.434915
958.037798,76.570323,114.855485,-9437.292334
958.038425,38.285162,95.712904,-9494.720077
958.039052,76.570323,153.140646,-9418.149754
958.039679,76.570323,153.140646,-9475.577496
958.040307,76.570323,210.568389,-9475.577496
958.040934,76.570323,172.283227,-9418.149754
958.041561,153.140646,172.283227,-9399.007173
958.042188,133.998066,114.855485,-9418.149754
958.042815,95.712904,153.140646,-9360.722011
958.043443,76.570323,172.283227,-9456.434915
958.044070,76.570323,114.855485,-9456.434915
958.044697,114.855485,95.712904,-9437.292334
958.045324,95.712904,153.140646,-9418.149754
958.045951,133.998066,114.855485,-9418.149754
958.046579,153.140646,133.998066,-9399.007173
958.047206,172.283227,76.570323,-9437.292334
958.047833,76.570323,172.283227,-9418.149754
958.048460,76.570323,210.568389,-9418.149754
958.049087,57.427742,191.425808,-9418.149754
958.049715,133.998066,210.568389,-9418.149754
958.050342,38.285162,210.568389,-9418.149754
958.050969,76.570323,172.283227,-9418.149754
958.051596,95.712904,172.283227,-9418.149754
958.052223,76.570323,133.998066,-9360.722011
958.052851,153.140646,133.998066,-9399.007173
958.053478,114.855485,133.998066,-9360.722011
958.054105,133.998066,153.140646,-9456.434915
958.054732,133.998066,114.855485,-9437.292334
958.055359,76.570323,114.855485,-9418.149754
958.055987,133.998066,153.140646,-9418.149754
958.056614,76.570323,229.710970,-9437.292334
958.057241,76.570323,191.425808,-9533.005238
958.057868,133.998066,153.140646,-9418.149754
958.058495,95.712904,287.138712,-9399.007173
958.059123,38.285162,114.855485,-9437.292334
958.059750,38.285162,172.283227,-9418.149754
958.060377,76.570323,114.855485,-9418.149754
958.061004,114.855485,133.998066,-9360.722011
958.061631,76.570323,114.855485,-9418.149754
958.062259,76.570323,114.855485,-9418.149754
958.062886,95.712904,95.712904,-9399.007173
958.063513,76.570323,114.855485,-9475.577496
958.064140,76.570323,114.855485,-9494.720077
958.064767,57.427742,114.855485,-9494.720077
958.065395,57.427742,95.712904,-9437.292334
958.066022,76.570323,210.568389,-9418.149754
958.066649,153.140646,248.853550,-9437.292334
958.067276,133.998066,133.998066,-9475.577496
958.067903,76.570323,114.855485,-9418.149754
958.068531,114.855485,191.425808,-9360.722011
958.069158,114.855485,191.425808,-9360.722011
958.069785,76.570323,172.283227,-9418.149754
958.070412,133.998066,114.855485,-9494.720077
958.071039,133.998066,114.855485,-9418.149754
958.071667,133.998066,114.855485,-9494.720077
958.072294,95.712904,114.855485,-9475.577496
958.072921,133.998066,191.425808,-9418.149754
958.073548,38.285162,153.140646,-9418.149754
958.074176,57.427742,133.998066,-9360.722011
958.074803,76.570323,153.140646,-9475.577496
958.075431,38.285162,210.568389,-9418.149754
958.076059,133.998066,153.140646,-9456.434915
958.076686,76.570323,114.855485,-9456.434915
958.077314,133.998066,114.855485,-9418.149754
958.077941,76.570323,114.855485,-9418.149754
958.078569,76.570323,172.283227,-9418.149754
958.079197,57.427742,191.425808,-9360.722011
958.079824,114.855485,153.140646,-9360.722011
958.080452,153.140646,133.998066,-9456.434915
958.081079,153.140646,133.998066,-9399.007173
958.081707,114.855485,172.283227,-9360.722011
958.082335,133.998066,114.855485,-9418.149754
958.082962,76.570323,210.568389,-9418.149754
958.083590,95.712904,210.568389,-9418.149754
958.084218,133.998066,114.855485,-9418.149754
958.084845,76.570323,114.855485,-9418.149754
958.085473,76.570323,114.855485,-9418.149754
958.086100,76.570323,133.998066,-9360.722011
958.086728,95.712904,133.998066,-9360.722011
958.087356,133.998066,172.283227,-9418.149754
958.087983,172.283227,76.570323,-9418.149754
958.088611,210.568389,133.998066,-9437.292334
958.089238,133.998066,114.855485,-9418.149754
958.089866,95.712904,95.712904,-9399.007173
958.090494,38.285162,114.855485,-9475.577496
958.091121,76.570323,153.140646,-9437.292334
958.091749,76.570323,210.568389,-9456.434915
958.092377,38.285162,114.855485,-9456.434915
958.093004,95.712904,153.140646,-9418.149754
958.093632,95.712904,133.998066,-9360.722011
958.094259,133.998066,172.283227,-9399.007173
958.094887,133.998066,76.570323,-9379.864592
958.095515,210.568389,114.855485,-9379.864592
958.096142,76.570323,114.855485,-9418.149754
958.096770,76.570323,114.855485,-9437.292334
958.097397,153.140646,133.998066,-9513.862658
958.098025,133.998066,114.855485,-9418.149754
958.098653,133.998066,153.140646,-9475.577496
958.099280,19.142581,114.855485,-9533.005238
958.099908,38.285162,210.568389,-9475.577496
958.100535,76.570323,114.855485,-9418.149754
958.101163,57.427742,95.712904,-9399.007173
958.101791,95.712904,76.570323,-9379.864592
958.102418,95.712904,114.855485,-9418.149754
958.103046,76.570323,153.140646,-9475.577496
958.103674,133.998066,210.568389,-9418.149754
958.104301,114.855485,172.283227,-9341.579430
958.104929,133.998066,114.855485,-9418.149754
958.105556,95.712904,95.712904,-9418.149754
958.106184,114.855485,95.712904,-9494.720077
958.106812,133.998066,114.855485,-9475.577496
958.107439,76.570323,153.140646,-9437.292334
958.108067,38.285162,114.855485,-9456.434915
958.108694,76.570323,114.855485,-9456.434915
958.109322,76.570323,172.283227,-9418.149754
958.109950,76.570323,114.855485,-9418.149754
958.110577,133.998066,114.855485,-9418.149754
958.111205,76.570323,114.855485,-9418.149754
958.111833,133.998066,114.855485,-9437.292334
958.112460,38.285162,153.140646,-9418.149754
958.113088,133.998066,153.140646,-9418.149754
958.113715,76.570323,172.283227,-9418.149754
958.114343,95.712904,133.998066,-9360.722011
958.114971,114.855485,76.570323,-9437.292334
958.115598,133.998066,172.283227,-9456.434915
958.116226,76.570323,114.855485,-9360.722011
958.116853,38.285162,210.568389,-9418.149754
958.117481,57.427742,191.425808,-9456.434915
958.118109,38.285162,248.853550,-9533.005238
958.118736,133.998066,210.568389,-9418.149754
958.119364,95.712904,191.425808,-9360.722011
958.119992,57.427742,172.283227,-9360.722011
958.120619,76.570323,153.140646,-9418.149754
958.121247,95.712904,133.998066,-9360.722011
958.121874,172.283227,133.998066,-9360.722011
958.122502,133.998066,172.283227,-9456.434915
958.123130,133.998066,114.855485,-9418.149754
958.123757,133.998066,95.712904,-9360.722011
958.124385,76.570323,114.855485,-9475.577496
958.125012,76.570323,114.855485,-9475.577496
958.125640,76.570323,191.425808,-9418.149754
958.126268,76.570323,172.283227,-9418.149754
958.126895,76.570323,229.710970,-9437.292334
958.127523,133.998066,172.283227,-9418.149754
958.128150,38.285162,114.855485,-9418.149754
958.128778,114.855485,191.425808,-9360.722011
958.129406,133.998066,229.710970,-9418.149754
958.130033,38.285162,153.140646,-9418.149754
958.130661,95.712904,153.140646,-9418.149754
958.131289,76.570323,95.712904,-9399.007173
958.131916,153.140646,133.998066,-9437.292334
958.132544,114.855485,95.712904,-9437.292334
958.133171,76.570323,114.855485,-9494.720077
958.133799,38.285162,114.855485,-9437.292334
958.134427,19.142581,153.140646,-9456.434915
958.135054,114.855485,172.283227,-9475.577496
958.135682,172.283227,76.570323,-9418.149754
958.136309,153.140646,133.998066,-9399.007173
958.136937,95.712904,114.855485,-9437.292334
958.137565,76.570323,114.855485,-9418.149754
958.138192,19.142581,172.283227,-9418.149754
958.138820,38.285162,153.140646,-9418.149754
958.139448,133.998066,172.283227,-9418.149754
958.140075,133.998066,114.855485,-9418.149754
958.140703,172.283227,76.570323,-9418.149754
958.141330,95.712904,95.712904,-9399.007173
958.141958,57.427742,95.712904,-9399.007173
958.142586,76.570323,153.140646,-9418.149754
958.143213,153.140646,114.855485,-9475.577496
958.143841,76.570323,210.568389,-9475.577496
958.144468,133.998066,114.855485,-9418.149754
958.145096,95.712904,114.855485,-9418.149754
958.145724,38.285162,172.283227,-9418.149754
958.146351,38.285162,114.855485,-9418.149754
958.146979,76.570323,172.283227,-9437.292334
958.147606,133.998066,133.998066,-9399.007173
958.148234,133.998066,153.140646,-9418.149754
958.148862,133.998066,133.998066,-9399.007173
958.149489,133.998066,133.998066,-9437.292334
958.150117,76.570323,153.140646,-9418.149754
958.150745,38.285162,114.855485,-9418.149754
958.151372,38.285162,114.855485,-9418.149754
958.152000,38.285162,210.568389,-9418.149754
958.152627,76.570323,153.140646,-9456.434915
958.153255,76.570323,210.568389,-9418.149754
958.153883,95.712904,191.425808,-9322.436850
958.154510,38.285162,114.855485,-9418.149754
958.155138,133.998066,210.568389,-9418.149754
958.155765,133.998066,153.140646,-9418.149754
958.156393,133.998066,210.568389,-9456.434915
958.157021,153.140646,133.998066,-9399.007173
958.157648,172.283227,95.712904,-9399.007173
958.158276,172.283227,133.998066,-9418.149754
958.158904,133.998066,133.998066,-9456.434915
958.159531,76.570323,172.283227,-9475.577496
958.160159,38.285162,191.425808,-9456.434915
958.160786,38.285162,172.283227,-9456.434915
958.161414,95.712904,172.283227,-9360.722011
958.162042,133.998066,172.283227,-9418.149754
958.162669,38.285162,172.283227,-9418.149754
958.163297,153.140646,133.998066,-9399.007173
958.163924,133.998066,114.855485,-9418.149754
958.164552,114.855485,133.998066,-9360.722011
958.165180,76.570323,172.283227,-9418.149754
958.165807,133.998066,114.855485,-9418.149754
958.166435,133.998066,172.283227,-9399.007173
958.167063,76.570323,114.855485,-9437.292334
958.167690,76.570323,114.855485,-9437.292334
958.168318,133.998066,76.570323,-9494.720077
958.168945,76.570323,114.855485,-9456.434915
958.169573,95.712904,153.140646,-9360.722011
958.170201,133.998066,114.855485,-9418.149754
958.170828,133.998066,191.425808,-9418.149754
958.171456,133.998066,172.283227,-9437.292334
958.172083,76.570323,153.140646,-9418.149754
958.172711,76.570323,172.283227,-9418.149754
958.173339,76.570323,172.283227,-9360.722011
958.173966,76.570323,114.855485,-9418.149754
958.174594,114.855485,95.712904,-9399.007173
958.175221,114.855485,95.712904,-9494.720077
958.175848,38.285162,114.855485,-9456.434915
958.176476,38.285162,114.855485,-9418.149754
958.177103,95.712904,114.855485,-9456.434915
958.177731,38.285162,210.568389,-9533.005238
958.178358,133.998066,172.283227,-9418.149754
958.178986,114.855485,133.998066,-9360.722011
958.179613,114.855485,114.855485,-9399.007173
958.180240,95.712904,229.710970,-9399.007173
958.180868,133.998066,172.283227,-9456.434915
958.181495,133.998066,210.568389,-9418.149754
958.182123,153.140646,191.425808,-9456.434915
958.182750,114.855485,172.283227,-9360.722011
958.183377,133.998066,114.855485,-9418.149754
958.184005,114.855485,133.998066,-9360.722011
958.184632,95.712904,95.712904,-9399.007173
958.185260,19.142581,114.855485,-9418.149754
958.185887,38.285162,229.710970,-9437.292334
958.186514,38.285162,114.855485,-9418.149754
958.187142,76.570323,153.140646,-9475.577496
958.187769,38.285162,114.855485,-9437.292334
958.188397,95.712904,153.140646,-9418.149754
958.189024,76.570323,114.855485,-9399.007173
958.189651,133.998066,172.283227,-9418.149754
958.190279,76.570323,210.568389,-9418.149754
958.190906,133.998066,153.140646,-9456.434915
958.191534,153.140646,133.998066,-9399.007173
958.192161,114.855485,114.855485,-9399.007173
958.192788,114.855485,76.570323,-9437.292334
958.193416,76.570323,114.855485,-9418.149754
958.194043,19.142581,172.283227,-9418.149754
958.194671,38.285162,210.568389,-9456.434915
958.195298,76.570323,153.140646,-9437.292334
958.195925,133.998066,114.855485,-9418.149754
958.196553,76.570323,114.855485,-9418.149754
958.197180,153.140646,172.283227,-9399.007173
958.197808,133.998066,114.855485,-9418.149754
958.198435,153.140646,133.998066,-9399.007173
958.199063,38.285162,114.855485,-9418.149754
958.199690,153.140646,133.998066,-9399.007173
958.200317,114.855485,95.712904,-9475.577496
958.200945,76.570323,114.855485,-9475.577496
958.201572,133.998066,172.283227,-9437.292334
958.202200,76.570323,229.710970,-9456.434915
958.202827,19.142581,191.425808,-9475.577496
958.203454,38.285162,172.283227,-9475.577496
958.204082,76.570323,172.283227,-9418.149754
958.204709,76.570323,114.855485,-9418.149754
958.205337,133.998066,133.998066,-9437.292334
958.205964,76.570323,172.283227,-9437.292334
958.206591,172.283227,210.568389,-9379.864592
958.207219,76.570323,153.140646,-9418.149754
958.207846,76.570323,114.855485,-9418.149754
958.208474,114.855485,95.712904,-9399.007173
958.209101,153.140646,133.998066,-9399.007173
958.209728,76.570323,153.140646,-9437.292334
958.210356,76.570323,114.855485,-9418.149754
958.210983,76.570323,153.140646,-9475.577496
958.211611,95.712904,114.855485,-9437.292334
958.212238,114.855485,95.712904,-9494.720077
958.212865,133.998066,114.855485,-9418.149754
958.213493,76.570323,114.855485,-9418.149754
958.214120,76.570323,114.855485,-9418.149754
958.214748,95.712904,133.998066,-9360.722011
958.215375,95.712904,172.283227,-9360.722011
958.216003,114.855485,153.140646,-9360.722011
958.216630,76.570323,153.140646,-9418.149754
958.217257,76.570323,172.283227,-9418.149754
958.217885,133.998066,114.855485,-9418.149754
958.218512,95.712904,95.712904,-9437.292334
958.219140,38.285162,153.140646,-9456.434915
958.219767,114.855485,114.855485,-9399.007173
958.220394,76.570323,95.712904,-9456.434915
958.221022,76.570323,172.283227,-9437.292334
958.221649,38.285162,114.855485,-9418.149754
958.222277,76.570323,114.855485,-9418.149754
958.222904,76.570323,114.855485,-9418.149754
958.223531,153.140646,114.855485,-9418.149754
958.224159,153.140646,153.140646,-9399.007173
958.224786,210.568389,133.998066,-9399.007173
958.225414,191.425808,95.712904,-9360.722011
958.226041,114.855485,114.855485,-9456.434915
958.226668,153.140646,133.998066,-9456.434915
958.227296,38.285162,114.855485,-9475.577496
958.227923,0.000000,114.855485,-9513.862658
958.228551,38.285162,172.283227,-9418.149754
958.229178,38.285162,153.140646,-9456.434915
958.229805,38.285162,172.283227,-9418.149754
958.230433,38.285162,114.855485,-9418.149754
958.231060,57.427742,114.855485,-9399.007173
958.231688,133.998066,248.853550,-9399.007173
958.232315,76.570323,210.568389,-9418.149754
958.232942,133.998066,153.140646,-9360.722011
958.233570,133.998066,114.855485,-9418.149754
958.234197,153.140646,114.855485,-9418.149754
958.234825,76.570323,114.855485,-9437.292334
958.235452,133.998066,114.855485,-9475.577496
958.236080,133.998066,172.283227,-9437.292334
958.236707,76.570323,172.283227,-9456.434915
958.237334,76.570323,153.140646,-9418.149754
958.237962,95.712904,114.855485,-9456.434915
958.238589,153.140646,172.283227,-9513.862658
958.239217,76.570323,114.855485,-9418.149754
958.239844,133.998066,210.568389,-9456.434915
958.240471,76.570323,153.140646,-9418.149754
958.241099,76.570323,229.710970,-9418.149754
958.241726,76.570323,172.283227,-9418.149754
958.242354,76.570323,114.855485,-9418.149754
958.242981,133.998066,114.855485,-9437.292334
958.243608,153.140646,133.998066,-9494.720077
958.244236,57.427742,133.998066,-9360.722011
958.244863,133.998066,210.568389,-9418.149754
958.245491,95.712904,287.138712,-9399.007173
958.246118,76.570323,153.140646,-9418.149754
958.246745,172.283227,114.855485,-9379.864592
958.247373,76.570323,153.140646,-9418.149754
958.248000,133.998066,172.283227,-9418.149754
958.248628,76.570323,191.425808,-9437.292334
958.249255,133.998066,210.568389,-9418.149754
958.249882,133.998066,153.140646,-9418.149754
958.250510,114.855485,172.283227,-9360.722011
958.251137,191.425808,114.855485,-9379.864592
958.251765,153.140646,133.998066,-9456.434915
958.252392,133.998066,172.283227,-9456.434915
958.253020,76.570323,114.855485,-9418.149754
958.253647,76.570323,210.568389,-9418.149754
958.254274,38.285162,114.855485,-9437.292334
958.254902,38.285162,172.283227,-9475.577496
958.255529,133.998066,153.140646,-9418.149754
958.256157,76.570323,114.855485,-9418.149754
958.256784,95.712904,133.998066,-9360.722011
958.257411,76.570323,153.140646,-9360.722011
958.258039,38.285162,114.855485,-9360.722011
958.258666,114.855485,153.140646,-9360.722011
958.259294,133.998066,114.855485,-9437.292334
958.259921,133.998066,114.855485,-9456.434915
958.260548,114.855485,95.712904,-9437.292334
958.261176,76.570323,114.855485,-9437.292334
958.261803,76.570323,114.855485,-9418.149754
958.262431,38.285162,153.140646,-9533.005238
958.263058,38.285162,229.710970,-9475.577496
958.263685,38.285162,172.283227,-9437.292334
958.264313,133.998066,153.140646,-9418.149754
958.264940,172.283227,114.855485,-9322.436850
958.265568,76.570323,133.998066,-9360.722011
958.266195,76.570323,114.855485,-9418.149754
958.266822,114.855485,95.712904,-9399.007173
958.267450,133.998066,114.855485,-9418.149754
958.268077,76.570323,114.855485,-9437.292334
958.268705,133.998066,114.855485,-9475.577496
958.269332,76.570323,114.855485,-9533.005238
958.269959,38.285162,114.855485,-9533.005238
958.270587,133.998066,114.855485,-9456.434915
958.271214,95.712904,153.140646,-9418.149754
958.271842,76.570323,153.140646,-9437.292334
958.272469,153.140646,114.855485,-9418.149754
958.273097,76.570323,76.570323,-9379.864592
958.273724,133.998066,76.570323,-9379.864592
958.274351,38.285162,114.855485,-9418.149754
958.274979,76.570323,114.855485,-9418.149754
958.275606,38.285162,153.140646,-9456.434915
958.276234,76.570323,153.140646,-9418.149754
958.276861,133.998066,172.283227,-9418.149754
958.277489,76.570323,114.855485,-9437.292334
958.278117,133.998066,153.140646,-9418.149754
958.278744,76.570323,114.855485,-9533.005238
958.279372,133.998066,191.425808,-9456.434915
958.279999,76.570323,153.140646,-9456.434915
958.280627,95.712904,172.283227,-9437.292334
958.281254,133.998066,114.855485,-9418.149754
958.281882,76.570323,172.283227,-9418.149754
958.282509,133.998066,172.283227,-9418.149754
958.283137,38.285162,114.855485,-9418.149754
958.283764,38.285162,153.140646,-9418.149754
958.284392,95.712904,95.712904,-9399.007173
958.285019,133.998066,114.855485,-9418.149754
958.285647,114.855485,76.570323,-9418.149754
958.286275,191.425808,76.570323,-9418.149754
958.286902,95.712904,95.712904,-9399.007173
958.287530,76.570323,114.855485,-9418.149754
958.288157,57.427742,172.283227,-9418.149754
958.288785,95.712904,114.855485,-9418.149754
958.289412,76.570323,191.425808,-9437.292334
958.290040,95.712904,210.568389,-9456.434915
958.290667,57.427742,210.568389,-9418.149754
958.291295,76.570323,153.140646,-9418.149754
958.291922,76.570323,133.998066,-9360.722011
958.292550,76.570323,153.140646,-9456.434915
958.293177,38.285162,114.855485,-9437.292334
958.293805,153.140646,133.998066,-9437.292334
958.294432,133.998066,153.140646,-9418.149754
958.295060,114.855485,95.712904,-9456.434915
958.295688,133.998066,114.855485,-9418.149754
958.296315,38.285162,114.855485,-9418.149754
958.296943,76.570323,153.140646,-9418.149754
958.297570,76.570323,114.855485,-9437.292334
958.298198,95.712904,172.283227,-9456.434915
958.298825,133.998066,133.998066,-9494.720077
958.299453,133.998066,114.855485,-9456.434915
958.300080,133.998066,114.855485,-9418.149754
958.300708,114.855485,114.855485,-9379.864592
958.301335,133.998066,172.283227,-9418.149754
958.301963,133.998066,114.855485,-9418.149754
958.302590,76.570323,114.855485,-9437.292334
958.303218,76.570323,172.283227,-9418.149754
958.303846,133.998066,210.568389,-9437.292334
958.304473,133.998066,229.710970,-9533.005238
958.305101,95.712904,210.568389,-9437.292334
958.305728,133.998066,172.283227,-9418.149754
958.306356,133.998066,153.140646,-9456.434915
958.306983,133.998066,153.140646,-9437.292334
958.307611,210.568389,133.998066,-9399.007173
958.308238,248.853550,133.998066,-9399.007173
958.308866,95.712904,133.998066,-9360.722011
958.309493,38.285162,172.283227,-9456.434915
958.310121,76.570323,114.855485,-9418.149754
958.310748,133.998066,210.568389,-9418.149754
958.311376,76.570323,114.855485,-9418.149754
958.312003,133.998066,114.855485,-9437.292334
958.312631,57.427742,95.712904,-9513.862658
958.313259,0.000000,210.568389,-9399.007173
958.313886,38.285162,172.283227,-9418.149754
958.314514,38.285162,114.855485,-9418.149754
958.315141,133.998066,114.855485,-9360.722011
958.315769,76.570323,114.855485,-9437.292334
958.316396,153.140646,172.283227,-9399.007173
958.317024,76.570323,172.283227,-9418.149754
958.317651,76.570323,114.855485,-9418.149754
958.318279,76.570323,153.140646,-9418.149754
958.318906,133.998066,153.140646,-9437.292334
958.319534,76.570323,114.855485,-9418.149754
958.320161,153.140646,114.855485,-9418.149754
958.320789,114.855485,95.712904,-9456.434915
958.321417,95.712904,172.283227,-9437.292334
958.322044,38.285162,114.855485,-9456.434915
958.322672,38.285162,172.283227,-9418.149754
958.323299,133.998066,114.855485,-9456.434915
958.323927,19.142581,153.140646,-9475.577496
958.324554,19.142581,153.140646,-9494.720077
958.325182,95.712904,153.140646,-9437.292334
958.325809,133.998066,172.283227,-9418.149754
958.326437,76.570323,191.425808,-9360.722011
958.327064,153.140646,133.998066,-9399.007173
958.327692,76.570323,114.855485,-9418.149754
958.328319,76.570323,153.140646,-9418.149754
958.328947,133.998066,172.283227,-9437.292334
958.329574,133.998066,114.855485,-9418.149754
958.330202,76.570323,114.855485,-9475.577496
958.330830,76.570323,153.140646,-9418.149754
958.331457,57.427742,95.712904,-9399.007173
958.332085,76.570323,153.140646,-9418.149754
958.332712,38.285162,114.855485,-9418.149754
958.333340,76.570323,172.283227,-9437.292334
958.333967,133.998066,133.998066,-9399.007173
958.334595,57.427742,95.712904,-9399.007173
958.335222,133.998066,153.140646,-9418.149754
958.335850,133.998066,114.855485,-9437.292334
958.336477,133.998066,133.998066,-9494.720077
958.337105,114.855485,95.712904,-9399.007173
958.337732,172.283227,76.570323,-9418.149754
958.338360,76.570323,210.568389,-9456.434915
958.338987,133.998066,172.283227,-9437.292334
958.339615,76.570323,153.140646,-9418.149754
958.340243,153.140646,191.425808,-9513.862658
958.340870,76.570323,114.855485,-9418.149754
958.341498,114.855485,229.710970,-9456.434915
958.342125,153.140646,114.855485,-9418.149754
958.342753,133.998066,95.712904,-9360.722011
958.343380,133.998066,153.140646,-9475.577496
958.344008,95.712904,172.283227,-9360.722011
958.344635,76.570323,153.140646,-9418.149754
958.345263,133.998066,114.855485,-9418.149754
958.345890,153.140646,153.140646,-9456.434915
958.346518,153.140646,133.998066,-9456.434915
958.347145,57.427742,95.712904,-9437.292334
958.347773,38.285162,172.283227,-9456.434915
958.348401,133.998066,114.855485,-9418.149754
958.349028,153.140646,133.998066,-9437.292334
958.349656,57.427742,210.568389,-9418.149754
958.350283,76.570323,210.568389,-9437.292334
958.350911,38.285162,114.855485,-9456.434915
958.351538,76.570323,114.855485,-9533.005238
958.352166,57.427742,133.998066,-9418.149754
958.352793,76.570323,191.425808,-9418.149754
958.353421,133.998066,153.140646,-9418.149754
958.354048,153.140646,133.998066,-9399.007173
958.354676,133.998066,114.855485,-9418.149754
958.355303,153.140646,172.283227,-9399.007173
958.355931,133.998066,172.283227,-9418.149754
958.356558,95.712904,133.998066,-9418.149754
958.357186,76.570323,172.283227,-9456.434915
958.357814,76.570323,153.140646,-9418.149754
958.358441,95.712904,114.855485,-9437.292334
958.359069,38.285162,191.425808,-9456.434915
958.359696,95.712904,153.140646,-9418.149754
958.360324,38.285162,210.568389,-9418.149754
958.360951,133.998066,114.855485,-9418.149754
958.361579,95.712904,172.283227,-9360.722011
958.362206,95.712904,133.998066,-9360.722011
958.362834,172.283227,114.855485,-9379.864592
958.363461,133.998066,114.855485,-9437.292334
958.364089,76.570323,95.712904,-9418.149754
958.364716,76.570323,153.140646,-9418.149754
958.365344,57.427742,172.283227,-9418.149754
958.365972,76.570323,191.425808,-9456.434915
958.366599,-38.285162,133.998066,-9437.292334
958.367227,38.285162,210.568389,-9418.149754
958.367854,133.998066,153.140646,-9418.149754
958.368482,57.427742,191.425808,-9360.722011
958.369109,76.570323,114.855485,-9418.149754
958.369737,133.998066,153.140646,-9418.149754
958.370364,133.998066,114.855485,-9418.149754
958.370992,95.712904,114.855485,-9418.149754
958.371619,95.712904,95.712904,-9399.007173
958.372247,95.712904,133.998066,-9360.722011
958.372874,153.140646,153.140646,-9456.434915
958.373502,38.285162,172.283227,-9475.577496
958.374129,19.142581,114.855485,-9475.577496
958.374757,95.712904,114.855485,-9437.292334
958.375385,133.998066,114.855485,-9475.577496
958.376012,153.140646,133.998066,-9399.007173
958.376640,133.998066,133.998066,-9399.007173
958.377267,95.712904,229.710970,-9418.149754
958.377895,38.285162,153.140646,-9418.149754
958.378522,57.427742,133.998066,-9360.722011
958.379150,133.998066,153.140646,-9418.149754
958.379778,133.998066,114.855485,-9418.149754
958.380405,76.570323,114.855485,-9456.434915
958.381033,133.998066,114.855485,-9456.434915
958.381660,133.998066,210.568389,-9418.149754
958.382288,133.998066,210.568389,-9418.149754
958.382915,133.998066,114.855485,-9437.292334
958.383543,133.998066,114.855485,-9418.149754
958.384171,76.570323,114.855485,-9437.292334
958.384798,191.425808,76.570323,-9456.434915
958.385426,76.570323,114.855485,-9418.149754
958.386053,95.712904,153.140646,-9360.722011
958.386681,133.998066,114.855485,-9475.577496
958.387308,133.998066,172.283227,-9399.007173
958.387936,57.427742,114.855485,-9437.292334
958.388564,210.568389,133.998066,-9399.007173
958.389191,172.283227,76.570323,-9456.434915
958.389819,133.998066,114.855485,-9456.434915
958.390446,133.998066,153.140646,-9418.149754
958.391074,38.285162,210.568389,-9418.149754
958.391701,38.285162,229.710970,-9418.149754
958.392329,76.570323,229.710970,-9456.434915
958.392957,38.285162,210.568389,-9456.434915
958.393584,133.998066,210.568389,-9418.149754
958.394212,38.285162,114.855485,-9418.149754
958.394839,76.570323,172.283227,-9418.149754
958.395467,172.283227,153.140646,-9379.864592
958.396094,133.998066,114.855485,-9418.149754
958.396722,172.283227,76.570323,-9418.149754
958.397350,76.570323,95.712904,-9418.149754
958.397977,133.998066,172.283227,-9418.149754
958.398605,153.140646,153.140646,-9437.292334
958.399232,76.570323,210.568389,-9456.434915
958.399860,76.570323,229.710970,-9475.577496
958.400487,95.712904,210.568389,-9456.434915
958.401115,95.712904,114.855485,-9475.577496
958.401743,76.570323,210.568389,-9418.149754
958.402370,38.285162,210.568389,-9418.149754
958.402998,95.712904,172.283227,-9360.722011
958.403625,95.712904,210.568389,-9418.149754
958.404253,133.998066,114.855485,-9418.149754
958.404880,153.140646,133.998066,-9399.007173
958.405508,133.998066,114.855485,-9418.149754
958.406136,153.140646,133.998066,-9399.007173
958.406763,133.998066,172.283227,-9418.149754
958.407391,95.712904,153.140646,-9360.722011
958.408018,76.570323,114.855485,-9418.149754
958.408646,76.570323,172.283227,-9418.149754
958.409273,133.998066,133.998066,-9399.007173
958.409901,95.712904,114.855485,-9456.434915
958.410529,114.855485,95.712904,-9437.292334
958.411156,76.570323,114.855485,-9418.149754
958.411784,76.570323,76.570323,-9322.436850
958.412411,114.855485,133.998066,-9360.722011
958.413039,133.998066,153.140646,-9418.149754
958.413666,76.570323,114.855485,-9418.149754
958.414294,133.998066,114.855485,-9418.149754
958.414922,153.140646,133.998066,-9399.007173
958.415549,114.855485,76.570323,-9418.149754
958.416177,57.427742,57.427742,-9399.007173
958.416804,76.570323,153.140646,-9456.434915
958.417432,95.712904,114.855485,-9456.434915
958.418059,133.998066,210.568389,-9418.149754
958.418687,76.570323,153.140646,-9456.434915
958.419315,95.712904,133.998066,-9360.722011
958.419942,133.998066,114.855485,-9418.149754
958.420570,133.998066,191.425808,-9456.434915
958.421197,76.570323,210.568389,-9437.292334
958.421825,76.570323,210.568389,-9456.434915
958.422452,95.712904,153.140646,-9418.149754
958.423080,191.425808,191.425808,-9399.007173
958.423708,210.568389,133.998066,-9399.007173
958.424335,153.140646,153.140646,-9399.007173
958.424963,133.998066,114.855485,-9418.149754
958.425590,38.285162,210.568389,-9456.434915
958.426218,76.570323,153.140646,-9418.149754
958.426845,133.998066,172.283227,-9399.007173
958.427473,38.285162,153.140646,-9475.577496
958.428101,76.570323,114.855485,-9418.149754
958.428728,38.285162,153.140646,-9418.149754
958.429356,114.855485,133.998066,-9360.722011
958.429983,133.998066,114.855485,-9418.149754
958.430611,133.998066,114.855485,-9418.149754
958.431238,153.140646,133.998066,-9399.007173
958.431866,133.998066,114.855485,-9418.149754
958.432494,76.570323,114.855485,-9418.149754
958.433121,76.570323,114.855485,-9418.149754
958.433749,38.285162,210.568389,-9437.292334
958.434376,153.140646,153.140646,-9513.862658
958.435004,133.998066,114.855485,-9437.292334
958.435631,133.998066,114.855485,-9418.149754
958.436259,133.998066,114.855485,-9418.149754
958.436887,114.855485,133.998066,-9360.722011
958.437514,76.570323,114.855485,-9418.149754
958.438142,133.998066,114.855485,-9418.149754
958.438769,114.855485,153.140646,-9360.722011
958.439397,76.570323,114.855485,-9418.149754
958.440024,133.998066,114.855485,-9418.149754
958.440652,153.140646,133.998066,-9494.720077
958.441280,76.570323,153.140646,-9418.149754
958.441907,38.285162,114.855485,-9418.149754
958.442535,19.142581,153.140646,-9475.577496
958.443162,38.285162,114.855485,-9494.720077
958.443790,76.570323,191.425808,-9533.005238
958.444417,133.998066,114.855485,-9475.577496
958.445045,76.570323,153.140646,-9456.434915
958.445673,133.998066,114.855485,-9418.149754
958.446300,172.283227,210.568389,-9379.864592
958.446928,133.998066,153.140646,-9418.149754
958.447555,76.570323,210.568389,-9456.434915
958.448183,95.712904,153.140646,-9360.722011
958.448810,153.140646,133.998066,-9456.434915
958.449438,133.998066,114.855485,-9475.577496
958.450066,76.570323,133.998066,-9533.005238
958.450693,76.570323,114.855485,-9437.292334
958.451321,57.427742,95.712904,-9399.007173
958.451948,114.855485,95.712904,-9494.720077
958.452576,76.570323,172.283227,-9475.577496
958.453203,95.712904,172.283227,-9418.149754
958.453831,114.855485,95.712904,-9456.434915
958.454459,76.570323,172.283227,-9418.149754
958.455086,38.285162,153.140646,-9418.149754
958.455714,95.712904,153.140646,-9418.149754
958.456341,114.855485,133.998066,-9360.722011
958.456969,133.998066,114.855485,-9418.149754
958.457596,38.285162,153.140646,-9437.292334
958.458224,57.427742,172.283227,-9437.292334
958.458852,38.285162,114.855485,-9456.434915
958.459479,76.570323,210.568389,-9418.149754
958.460107,38.285162,114.855485,-9418.149754
958.460734,38.285162,114.855485,-9437.292334
958.461362,133.998066,114.855485,-9475.577496
958.461989,95.712904,153.140646,-9456.434915
958.462617,133.998066,114.855485,-9418.149754
958.463245,133.998066,172.283227,-9475.577496
958.463872,210.568389,133.998066,-9399.007173
958.464500,133.998066,172.283227,-9399.007173
958.465127,133.998066,114.855485,-9418.149754
958.465755,133.998066,172.283227,-9418.149754
958.466382,133.998066,114.855485,-9437.292334
958.467010,133.998066,114.855485,-9456.434915
958.467638,76.570323,114.855485,-9418.149754
958.468265,38.285162,210.568389,-9494.720077
958.468893,133.998066,114.855485,-9475.577496
958.469520,76.570323,114.855485,-9418.149754
958.470148,76.570323,229.710970,-9418.149754
958.470775,38.285162,172.283227,-9418.149754
958.471403,57.427742,153.140646,-9360.722011
958.472031,95.712904,172.283227,-9322.436850
958.472658,133.998066,172.283227,-9494.720077
958.473286,76.570323,191.425808,-9418.149754
958.473913,76.570323,114.855485,-9418.149754
958.474541,133.998066,114.855485,-9437.292334
958.475168,76.570323,114.855485,-9475.577496
958.475796,57.427742,229.710970,-9475.577496
958.476423,38.285162,153.140646,-9418.149754
958.477051,38.285162,153.140646,-9437.292334
958.477678,76.570323,114.855485,-9475.577496
958.478306,76.570323,114.855485,-9418.149754
958.478934,114.855485,114.855485,-9418.149754
958.479561,133.998066,114.855485,-9418.149754
958.480189,95.712904,114.855485,-9418.149754
958.480816,153.140646,114.855485,-9418.149754
958.481444,76.570323,172.283227,-9418.149754
958.482071,95.712904,95.712904,-9399.007173
958.482699,172.283227,95.712904,-9399.007173
958.483326,153.140646,133.998066,-9399.007173
958.483954,95.712904,95.712904,-9437.292334
958.484581,133.998066,114.855485,-9437.292334
958.485209,38.285162,95.712904,-9399.007173
958.485836,38.285162,153.140646,-9418.149754
958.486464,114.855485,95.712904,-9399.007173
958.487091,76.570323,114.855485,-9456.434915
958.487719,133.998066,114.855485,-9475.577496
958.488346,133.998066,114.855485,-9456.434915
958.488974,76.570323,210.568389,-9418.149754
958.489601,76.570323,210.568389,-9494.720077
958.490229,76.570323,114.855485,-9418.149754
958.490856,133.998066,153.140646,-9418.149754
958.491484,153.140646,133.998066,-9379.864592
958.492111,95.712904,95.712904,-9399.007173
958.492739,133.998066,133.998066,-9456.434915
958.493367,38.285162,114.855485,-9437.292334
958.493994,95.712904,153.140646,-9341.579430
958.494622,38.285162,210.568389,-9437.292334
958.495249,76.570323,210.568389,-9494.720077
958.495877,76.570323,210.568389,-9456.434915
958.496504,95.712904,172.283227,-9418.149754
958.497132,57.427742,133.998066,-9360.722011
958.497759,57.427742,133.998066,-9360.722011
958.498387,95.712904,114.855485,-9418.149754
958.499014,133.998066,153.140646,-9437.292334
958.499642,76.570323,114.855485,-9418.149754
958.500269,114.855485,95.712904,-9399.007173
958.500897,114.855485,133.998066,-9360.722011
958.501524,38.285162,114.855485,-9418.149754
958.502152,76.570323,172.283227,-9533.005238
958.502779,95.712904,153.140646,-9418.149754
958.503407,76.570323,153.140646,-9437.292334
958.504034,76.570323,114.855485,-9475.577496
958.504662,133.998066,153.140646,-9437.292334
958.505289,114.855485,114.855485,-9418.149754
958.505917,114.855485,133.998066,-9418.149754
958.506544,76.570323,76.570323,-9379.864592
958.507172,95.712904,133.998066,-9360.722011
958.507800,76.570323,210.568389,-9418.149754
958.508427,172.283227,114.855485,-9379.864592
958.509055,133.998066,153.140646,-9418.149754
958.509682,95.712904,95.712904,-9456.434915
958.510310,76.570323,172.283227,-9437.292334
958.510937,38.285162,153.140646,-9475.577496
958.511565,76.570323,191.425808,-9533.005238
958.512192,76.570323,114.855485,-9456.434915
958.512820,133.998066,114.855485,-9437.292334
958.513447,210.568389,153.140646,-9437.292334
958.514075,133.998066,172.283227,-9418.149754
958.514702,133.998066,153.140646,-9418.149754
958.515330,38.285162,114.855485,-9418.149754
958.515957,133.998066,114.855485,-9418.149754
958.516585,95.712904,95.712904,-9399.007173
958.517212,133.998066,114.855485,-9475.577496
958.517840,133.998066,114.855485,-9437.292334
958.518467,133.998066,133.998066,-9494.720077
958.519095,38.285162,114.855485,-9418.149754
958.519722,133.998066,191.425808,-9418.149754
958.520350,38.285162,229.710970,-9418.149754
958.520977,133.998066,172.283227,-9437.292334
958.521605,133.998066,172.283227,-9494.720077
958.522232,76.570323,172.283227,-9437.292334
958.522860,133.998066,191.425808,-9494.720077
958.523488,76.570323,114.855485,-9418.149754
958.524115,76.570323,153.140646,-9418.149754
958.524743,133.998066,153.140646,-9437.292334
958.525370,133.998066,191.425808,-9418.149754
958.525998,133.998066,114.855485,-9418.149754
958.526625,76.570323,114.855485,-9418.149754
958.527253,133.998066,172.283227,-9437.292334
958.527880,38.285162,172.283227,-9437.292334
958.528508,95.712904,153.140646,-9418.149754
958.529135,95.712904,229.710970,-9475.577496
958.529763,38.285162,172.283227,-9418.149754
958.530390,114.855485,114.855485,-9399.007173
958.531018,76.570323,172.283227,-9437.292334
958.531645,114.855485,95.712904,-9399.007173
958.532273,76.570323,114.855485,-9418.149754
958.532900,57.427742,133.998066,-9360.722011
958.533528,76.570323,172.283227,-9418.149754
958.534155,153.140646,114.855485,-9418.149754
958.534783,95.712904,95.712904,-9399.007173
958.535410,133.998066,153.140646,-9399.007173
958.536038,38.285162,114.855485,-9418.149754
958.536665,76.570323,172.283227,-9456.434915
958.537293,95.712904,153.140646,-9418.149754
958.537921,95.712904,114.855485,-9456.434915
958.538548,133.998066,114.855485,-9418.149754
958.539176,38.285162,114.855485,-9418.149754
958.539803,95.712904,172.283227,-9418.149754
958.540431,133.998066,172.283227,-9418.149754
958.541058,38.285162,114.855485,-9418.149754
958.541686,76.570323,153.140646,-9418.149754
958.542313,76.570323,114.855485,-9418.149754
958.542941,95.712904,114.855485,-9418.149754
958.543568,133.998066,114.855485,-9456.434915
958.544196,57.427742,95.712904,-9456.434915
958.544823,76.570323,210.568389,-9418.149754
958.545451,19.142581,210.568389,-9475.577496
958.546078,76.570323,210.568389,-9456.434915
958.546706,133.998066,114.855485,-9475.577496
958.547333,95.712904,95.712904,-9475.577496
958.547961,95.712904,95.712904,-9437.292334
958.548588,133.998066,114.855485,-9418.149754
958.549216,133.998066,210.568389,-9418.149754
958.549843,38.285162,210.568389,-9437.292334
958.550471,76.570323,229.710970,-9437.292334
958.551098,133.998066,114.855485,-9418.149754
958.551726,153.140646,153.140646,-9437.292334
958.552353,76.570323,95.712904,-9494.720077
958.552981,133.998066,114.855485,-9437.292334
958.553609,57.427742,95.712904,-9399.007173
958.554236,57.427742,114.855485,-9437.292334
958.554864,38.285162,153.140646,-9456.434915
958.555491,133.998066,172.283227,-9418.149754
958.556119,133.998066,153.140646,-9418.149754
958.556746,133.998066,210.568389,-9418.149754
958.557374,76.570323,153.140646,-9418.149754
958.558001,76.570323,172.283227,-9418.149754
958.558629,76.570323,114.855485,-9399.007173
958.559256,153.140646,133.998066,-9399.007173
958.559884,95.712904,114.855485,-9418.149754
958.560511,133.998066,114.855485,-9475.577496
958.561139,133.998066,153.140646,-9494.720077
958.561766,172.283227,76.570323,-9475.577496
958.562394,133.998066,114.855485,-9418.149754
958.563021,95.712904,95.712904,-9399.007173
958.563649,19.142581,114.855485,-9418.149754
958.564276,76.570323,153.140646,-9418.149754
958.564904,76.570323,114.855485,-9437.292334
958.565531,133.998066,114.855485,-9456.434915
958.566159,133.998066,191.425808,-9418.149754
958.566786,95.712904,210.568389,-9418.149754
958.567414,95.712904,172.283227,-9360.722011
958.568042,172.283227,114.855485,-9379.864592
958.568669,191.425808,133.998066,-9456.434915
958.569297,114.855485,76.570323,-9437.292334
958.569924,153.140646,95.712904,-9360.722011
958.570552,114.855485,95.712904,-9399.007173
958.571179,76.570323,114.855485,-9437.292334
958.571807,0.000000,114.855485,-9494.720077
958.572434,38.285162,153.140646,-9418.149754
958.573062,133.998066,210.568389,-9437.292334
958.573689,0.000000,172.283227,-9379.864592
958.574317,57.427742,153.140646,-9360.722011
958.574944,133.998066,114.855485,-9418.149754
958.575572,76.570323,172.283227,-9418.149754
958.576199,95.712904,95.712904,-9379.864592
958.576827,153.140646,95.712904,-9360.722011
958.577455,114.855485,133.998066,-9360.722011
958.578082,133.998066,114.855485,-9418.149754
958.578710,153.140646,114.855485,-9475.577496
958.579337,153.140646,172.283227,-9494.720077
958.579965,76.570323,210.568389,-9533.005238
958.580593,76.570323,114.855485,-9456.434915
958.581220,76.570323,114.855485,-9418.149754
958.581848,153.140646,133.998066,-9437.292334
958.582475,153.140646,114.855485,-9437.292334
958.583103,153.140646,133.998066,-9456.434915
958.583731,76.570323,172.283227,-9437.292334
958.584358,76.570323,172.283227,-9418.149754
958.584986,76.570323,114.855485,-9456.434915
958.585614,133.998066,114.855485,-9418.149754
958.586241,57.427742,95.712904,-9437.292334
958.586869,57.427742,95.712904,-9437.292334
958.587496,153.140646,133.998066,-9456.434915
958.588124,172.283227,76.570323,-9418.149754
958.588752,95.712904,248.853550,-9418.149754
958.589379,76.570323,210.568389,-9475.577496
958.590007,76.570323,210.568389,-9456.434915
958.590634,76.570323,114.855485,-9437.292334
958.591262,114.855485,76.570323,-9437.292334
958.591890,76.570323,172.283227,-9418.149754
958.592517,95.712904,210.568389,-9418.149754
958.593145,133.998066,210.568389,-9418.149754
958.593772,133.998066,133.998066,-9399.007173
958.594400,133.998066,114.855485,-9456.434915
958.595028,133.998066,114.855485,-9437.292334
958.595655,133.998066,229.710970,-9418.149754
958.596283,133.998066,114.855485,-9418.149754
958.596911,133.998066,114.855485,-9418.149754
958.597538,76.570323,172.283227,-9533.005238
958.598166,76.570323,114.855485,-9437.292334
958.598793,133.998066,114.855485,-9456.434915
958.599421,76.570323,210.568389,-9418.149754
958.600049,153.140646,153.140646,-9399.007173
958.600676,38.285162,153.140646,-9418.149754
958.601304,114.855485,133.998066,-9360.722011
958.601931,133.998066,153.140646,-9418.149754
958.602559,191.425808,210.568389,-9379.864592
958.603187,133.998066,210.568389,-9418.149754
958.603814,172.283227,172.283227,-9399.007173
958.604442,210.568389,133.998066,-9437.292334
958.605069,76.570323,172.283227,-9494.720077
958.605697,95.712904,191.425808,-9475.577496
958.606325,76.570323,153.140646,-9418.149754
958.606952,76.570323,114.855485,-9399.007173
958.607580,76.570323,210.568389,-9418.149754
958.608207,76.570323,114.855485,-9399.007173
958.608835,133.998066,114.855485,-9418.149754
958.609463,57.427742,114.855485,-9418.149754
958.610090,95.712904,95.712904,-9399.007173
958.610718,133.998066,114.855485,-9418.149754
958.611346,76.570323,114.855485,-9418.149754
958.611973,57.427742,95.712904,-9399.007173
958.612601,114.855485,95.712904,-9399.007173
958.613228,133.998066,172.283227,-9418.149754
958.613856,38.285162,172.283227,-9437.292334
958.614484,76.570323,114.855485,-9475.577496
958.615111,76.570323,153.140646,-9475.577496
958.615739,95.712904,114.855485,-9456.434915
958.616366,114.855485,95.712904,-9399.007173
958.616994,153.140646,172.283227,-9456.434915
958.617622,133.998066,114.855485,-9418.149754
958.618249,76.570323,114.855485,-9418.149754
958.618877,133.998066,114.855485,-9418.149754
958.619504,38.285162,114.855485,-9418.149754
958.620132,114.855485,133.998066,-9360.722011
958.620760,133.998066,114.855485,-9456.434915
958.621387,76.570323,114.855485,-9418.149754
958.622015,0.000000,95.712904,-9399.007173
958.622643,76.570323,172.283227,-9437.292334
958.623270,19.142581,114.855485,-9437.292334
958.623898,38.285162,172.283227,-9418.149754
958.624525,38.285162,114.855485,-9437.292334
958.625153,133.998066,114.855485,-9437.292334
958.625781,153.140646,133.998066,-9399.007173
958.626408,76.570323,114.855485,-9418.149754
958.627036,95.712904,153.140646,-9456.434915
958.627663,153.140646,248.853550,-9399.007173
958.628291,153.140646,133.998066,-9399.007173
958.628919,210.568389,153.140646,-9399.007173
958.629546,153.140646,133.998066,-9494.720077
958.630174,76.570323,114.855485,-9475.577496
958.630801,133.998066,133.998066,-9399.007173
958.631429,133.998066,153.140646,-9418.149754
958.632057,19.142581,153.140646,-9418.149754
958.632684,38.285162,153.140646,-9437.292334
958.633312,38.285162,210.568389,-9418.149754
958.633939,38.285162,229.710970,-9418.149754
958.634567,133.998066,172.283227,-9360.722011
958.635195,153.140646,153.140646,-9399.007173
958.635822,76.570323,114.855485,-9360.722011
958.636450,153.140646,114.855485,-9418.149754
958.637078,114.855485,172.283227,-9360.722011
958.637705,153.140646,153.140646,-9399.007173
958.638333,153.140646,133.998066,-9513.862658
958.638960,76.570323,114.855485,-9437.292334
958.639588,57.427742,95.712904,-9437.292334
958.640216,76.570323,114.855485,-9437.292334
958.640843,133.998066,153.140646,-9456.434915
958.641471,133.998066,153.140646,-9456.434915
958.642098,76.570323,114.855485,-9418.149754
958.642726,133.998066,210.568389,-9456.434915
958.643354,76.570323,114.855485,-9418.149754
958.643981,172.283227,133.998066,-9418.149754
958.644609,133.998066,172.283227,-9418.149754
958.645236,133.998066,210.568389,-9418.149754
958.645864,133.998066,114.855485,-9437.292334
958.646492,133.998066,114.855485,-9418.149754
958.647119,133.998066,114.855485,-9437.292334
958.647747,133.998066,133.998066,-9494.720077
958.648375,38.285162,114.855485,-9475.577496
958.649002,38.285162,191.425808,-9437.292334
958.649630,38.285162,153.140646,-9437.292334
958.650257,95.712904,114.855485,-9437.292334
958.650885,133.998066,114.855485,-9418.149754
958.651513,133.998066,114.855485,-9360.722011
958.652140,95.712904,114.855485,-9418.149754
958.652768,76.570323,172.283227,-9418.149754
958.653395,153.140646,153.140646,-9418.149754
958.654023,153.140646,191.425808,-9437.292334
958.654651,133.998066,114.855485,-9456.434915
958.655278,133.998066,114.855485,-9418.149754
958.655906,153.140646,133.998066,-9399.007173
958.656533,76.570323,114.855485,-9494.720077
958.657161,38.285162,210.568389,-9456.434915
958.657789,38.285162,153.140646,-9418.149754
958.658416,133.998066,114.855485,-9475.577496
958.659044,95.712904,114.855485,-9494.720077
958.659671,76.570323,210.568389,-9456.434915
958.660299,38.285162,114.855485,-9418.149754
958.660927,38.285162,172.283227,-9418.149754
958.661554,114.855485,114.855485,-9379.864592
958.662182,133.998066,153.140646,-9437.292334
958.662810,38.285162,114.855485,-9418.149754
958.663437,133.998066,153.140646,-9437.292334
958.664065,172.283227,95.712904,-9399.007173
958.664692,133.998066,153.140646,-9456.434915
958.665320,133.998066,172.283227,-9456.434915
958.665948,38.285162,153.140646,-9418.149754
958.666575,38.285162,114.855485,-9418.149754
958.667203,19.142581,210.568389,-9456.434915
958.667830,38.285162,114.855485,-9456.434915
958.668458,133.998066,114.855485,-9418.149754
958.669086,133.998066,153.140646,-9456.434915
958.669713,38.285162,172.283227,-9418.149754
958.670341,76.570323,114.855485,-9418.149754
958.670968,95.712904,114.855485,-9456.434915
958.671596,133.998066,172.283227,-9437.292334
958.672224,133.998066,114.855485,-9437.292334
958.672851,133.998066,114.855485,-9418.149754
958.673479,133.998066,153.140646,-9418.149754
958.674107,38.285162,210.568389,-9475.577496
958.674734,38.285162,229.710970,-9418.149754
958.675362,38.285162,114.855485,-9494.720077
958.675989,76.570323,114.855485,-9456.434915
958.676617,38.285162,172.283227,-9456.434915
958.677244,95.712904,172.283227,-9418.149754
958.677872,133.998066,76.570323,-9379.864592
958.678499,153.140646,133.998066,-9399.007173
958.679127,76.570323,153.140646,-9418.149754
958.679755,133.998066,114.855485,-9418.149754
958.680382,114.855485,95.712904,-9437.292334
958.681010,95.712904,57.427742,-9399.007173
958.681637,133.998066,133.998066,-9456.434915
958.682265,114.855485,95.712904,-9399.007173
958.682892,95.712904,210.568389,-9475.577496
958.683520,57.427742,172.283227,-9533.005238
958.684147,95.712904,172.283227,-9475.577496
958.684775,133.998066,114.855485,-9437.292334
958.685402,114.855485,153.140646,-9360.722011
958.686030,133.998066,114.855485,-9418.149754
958.686657,153.140646,210.568389,-9399.007173
958.687285,133.998066,191.425808,-9399.007173
958.687912,153.140646,172.283227,-9399.007173
958.688540,133.998066,172.283227,-9418.149754
958.689167,153.140646,133.998066,-9399.007173
958.689795,153.140646,133.998066,-9456.434915
958.690422,153.140646,172.283227,-9437.292334
958.691050,95.712904,153.140646,-9418.149754
958.691678,76.570323,153.140646,-9418.149754
958.692305,38.285162,172.283227,-9418.149754
958.692933,76.570323,114.855485,-9418.149754
958.693560,153.140646,172.283227,-9437.292334
958.694188,133.998066,153.140646,-9418.149754
958.694815,76.570323,114.855485,-9418.149754
958.695443,57.427742,95.712904,-9399.007173
958.696070,76.570323,153.140646,-9418.149754
958.696698,133.998066,114.855485,-9418.149754
958.697325,133.998066,133.998066,-9399.007173
958.697953,38.285162,153.140646,-9418.149754
958.698580,95.712904,114.855485,-9437.292334
958.699208,95.712904,95.712904,-9437.292334
958.699835,95.712904,210.568389,-9360.722011
958.700463,133.998066,114.855485,-9418.149754
958.701090,133.998066,172.283227,-9437.292334
958.701718,76.570323,172.283227,-9418.149754
958.702345,153.140646,191.425808,-9456.434915
958.702973,133.998066,153.140646,-9418.149754
958.703601,38.285162,172.283227,-9418.149754
958.704228,133.998066,153.140646,-9418.149754
958.704856,57.427742,114.855485,-9418.149754
958.705483,114.855485,133.998066,-9360.722011
958.706111,133.998066,114.855485,-9437.292334
958.706738,133.998066,153.140646,-9418.149754
958.707366,153.140646,133.998066,-9399.007173
958.707993,76.570323,172.283227,-9437.292334
958.708621,133.998066,153.140646,-9437.292334
958.709248,76.570323,172.283227,-9475.577496
958.709876,76.570323,153.140646,-9475.577496
958.710503,76.570323,153.140646,-9437.292334
958.711131,76.570323,114.855485,-9456.434915
958.711758,95.712904,95.712904,-9494.720077
958.712386,153.140646,133.998066,-9399.007173
958.713013,95.712904,114.855485,-9399.007173
958.713641,172.283227,95.712904,-9399.007173
958.714269,153.140646,133.998066,-9456.434915
958.714896,76.570323,114.855485,-9475.577496
958.715524,76.570323,114.855485,-9418.149754
958.716151,95.712904,95.712904,-9437.292334
958.716779,76.570323,172.283227,-9456.434915
958.717406,76.570323,172.283227,-9437.292334
958.718034,95.712904,133.998066,-9360.722011
958.718661,133.998066,153.140646,-9418.149754
958.719289,133.998066,114.855485,-9418.149754
958.719916,95.712904,95.712904,-9399.007173
958.720544,76.570323,114.855485,-9418.149754
958.721171,76.570323,153.140646,-9418.149754
958.721799,114.855485,172.283227,-9379.864592
958.722426,133.998066,114.855485,-9418.149754
958.723054,133.998066,114.855485,-9456.434915
958.723681,133.998066,153.140646,-9418.149754
958.724309,76.570323,114.855485,-9418.149754
958.724936,133.998066,153.140646,-9437.292334
958.725564,133.998066,172.283227,-9494.720077
958.726192,38.285162,153.140646,-9418.149754
958.726819,76.570323,114.855485,-9456.434915
958.727447,133.998066,153.140646,-9437.292334
958.728074,114.855485,95.712904,-9475.577496
958.728702,133.998066,153.140646,-9418.149754
958.729329,38.285162,210.568389,-9418.149754
958.729957,76.570323,114.855485,-9360.722011
958.730584,153.140646,133.998066,-9437.292334
958.731212,153.140646,133.998066,-9399.007173
958.731839,153.140646,133.998066,-9456.434915
958.732467,153.140646,114.855485,-9418.149754
958.733094,172.283227,210.568389,-9379.864592
958.733722,76.570323,114.855485,-9418.149754
958.734349,76.570323,153.140646,-9437.292334
958.734977,38.285162,172.283227,-9418.149754
958.735604,38.285162,229.710970,-9494.720077
958.736232,38.285162,210.568389,-9418.149754
958.736859,95.712904,114.855485,-9475.577496
958.737487,133.998066,114.855485,-9418.149754
958.738115,76.570323,114.855485,-9456.434915
958.738742,133.998066,114.855485,-9418.149754
958.739370,38.285162,114.855485,-9456.434915
958.739997,172.283227,76.570323,-9456.434915
958.740625,76.570323,210.568389,-9418.149754
958.741252,76.570323,153.140646,-9418.149754
958.741880,76.570323,153.140646,-9437.292334
958.742507,76.570323,153.140646,-9418.149754
958.743135,38.285162,114.855485,-9475.577496
958.743762,133.998066,191.425808,-9399.007173
958.744390,133.998066,153.140646,-9437.292334
958.745017,133.998066,153.140646,-9418.149754
958.745645,133.998066,153.140646,-9418.149754
958.746272,210.568389,133.998066,-9399.007173
958.746900,114.855485,153.140646,-9341.579430
958.747527,133.998066,76.570323,-9341.579430
958.748155,114.855485,95.712904,-9399.007173
958.748782,153.140646,133.998066,-9456.434915
958.749410,114.855485,76.570323,-9418.149754
958.750038,133.998066,114.855485,-9475.577496
958.750665,133.998066,172.283227,-9399.007173
958.751293,76.570323,114.855485,-9418.149754
958.751920,57.427742,229.710970,-9494.720077
958.752548,76.570323,153.140646,-9456.434915
958.753175,76.570323,172.283227,-9418.149754
958.753803,76.570323,114.855485,-9437.292334
958.754430,0.000000,172.283227,-9399.007173
958.755058,133.998066,191.425808,-9399.007173
958.755685,95.712904,172.283227,-9360.722011
958.756313,133.998066,210.568389,-9418.149754
958.756940,95.712904,133.998066,-9360.722011
958.757568,133.998066,114.855485,-9418.149754
958.758195,133.998066,114.855485,-9418.149754
958.758823,133.998066,172.283227,-9418.149754
958.759450,133.998066,172.283227,-9456.434915
958.760078,38.285162,172.283227,-9418.149754
958.760706,76.570323,229.710970,-9418.149754
958.761333,-19.142581,153.140646,-9379.864592
958.761961,76.570323,114.855485,-9456.434915
958.762588,153.140646,172.283227,-9494.720077
958.763216,114.855485,133.998066,-9360.722011
958.763843,76.570323,114.855485,-9418.149754
958.764471,95.712904,172.283227,-9418.149754
958.765098,57.427742,153.140646,-9360.722011
958.765726,114.855485,172.283227,-9360.722011
958.766353,76.570323,153.140646,-9418.149754
958.766981,76.570323,114.855485,-9418.149754
958.767608,95.712904,114.855485,-9475.577496
958.768236,76.570323,114.855485,-9418.149754
958.768863,38.285162,114.855485,-9475.577496
958.769491,76.570323,114.855485,-9418.149754
958.770118,76.570323,114.855485,-9437.292334
958.770746,153.140646,191.425808,-9494.720077
958.771373,38.285162,172.283227,-9418.149754
958.772001,133.998066,229.710970,-9418.149754
958.772629,153.140646,153.140646,-9399.007173
958.773256,76.570323,172.283227,-9418.149754
958.773884,133.998066,153.140646,-9418.149754
958.774511,153.140646,133.998066,-9399.007173
958.775139,76.570323,114.855485,-9418.149754
958.775766,133.998066,172.283227,-9418.149754
958.776394,114.855485,172.283227,-9360.722011
958.777021,57.427742,133.998066,-9360.722011
958.777649,38.285162,210.568389,-9437.292334
958.778276,19.142581,229.710970,-9533.005238
958.778904,38.285162,210.568389,-9475.577496
958.779531,38.285162,114.855485,-9418.149754
958.780159,133.998066,133.998066,-9399.007173
958.780786,133.998066,191.425808,-9456.434915
958.781414,76.570323,114.855485,-9360.722011
958.782041,95.712904,191.425808,-9360.722011
958.782668,172.283227,114.855485,-9379.864592
958.783296,114.855485,76.570323,-9418.149754
958.783923,76.570323,114.855485,-9437.292334
958.784550,76.570323,114.855485,-9437.292334
958.785177,76.570323,114.855485,-9456.434915
958.785805,153.140646,153.140646,-9494.720077
958.786432,76.570323,153.140646,-9437.292334
958.787059,76.570323,210.568389,-9437.292334
958.787686,153.140646,133.998066,-9399.007173
958.788314,133.998066,153.140646,-9418.149754
958.788941,133.998066,114.855485,-9418.149754
958.789568,76.570323,210.568389,-9418.149754
958.790195,95.712904,172.283227,-9360.722011
958.790823,38.285162,229.710970,-9418.149754
958.791450,133.998066,114.855485,-9437.292334
958.792077,133.998066,172.283227,-9418.149754
958.792704,133.998066,153.140646,-9418.149754
958.793332,76.570323,229.710970,-9456.434915
958.793959,95.712904,114.855485,-9475.577496
958.794586,76.570323,114.855485,-9475.577496
958.795213,76.570323,114.855485,-9418.149754
958.795841,38.285162,114.855485,-9437.292334
958.796468,95.712904,153.140646,-9456.434915
958.797095,133.998066,153.140646,-9418.149754
958.797722,153.140646,172.283227,-9494.720077
958.798350,133.998066,153.140646,-9399.007173
958.798977,133.998066,153.140646,-9437.292334
958.799604,57.427742,210.568389,-9456.434915
958.800231,38.285162,172.283227,-9437.292334
958.800859,133.998066,153.140646,-9475.577496
958.801486,210.568389,133.998066,-9399.007173
958.802113,133.998066,133.998066,-9399.007173
958.802740,38.285162,172.283227,-9418.149754
958.803368,76.570323,114.855485,-9418.149754
958.803995,95.712904,95.712904,-9399.007173
958.804622,76.570323,210.568389,-9418.149754
958.805249,76.570323,229.710970,-9437.292334
958.805877,38.285162,172.283227,-9418.149754
958.806504,76.570323,172.283227,-9418.149754
958.807131,76.570323,114.855485,-9418.149754
958.807758,76.570323,114.855485,-9418.149754
958.808386,153.140646,172.283227,-9399.007173
958.809013,133.998066,210.568389,-9418.149754
958.809640,133.998066,153.140646,-9418.149754
958.810267,133.998066,114.855485,-9418.149754
958.810895,114.855485,95.712904,-9399.007173
958.811522,76.570323,172.283227,-9418.149754
958.812149,76.570323,114.855485,-9418.149754
958.812776,76.570323,114.855485,-9437.292334
958.813404,76.570323,172.283227,-9437.292334
958.814031,57.427742,210.568389,-9475.577496
958.814658,95.712904,153.140646,-9418.149754
958.815285,57.427742,133.998066,-9360.722011
958.815913,133.998066,114.855485,-9418.149754
958.816540,133.998066,153.140646,-9418.149754
958.817167,133.998066,153.140646,-9437.292334
958.817794,76.570323,114.855485,-9418.149754
958.818422,76.570323,114.855485,-9418.149754
958.819049,95.712904,114.855485,-9475.577496
958.819676,153.140646,172.283227,-9456.434915
958.820303,76.570323,210.568389,-9494.720077
958.820931,38.285162,172.283227,-9418.149754
958.821558,38.285162,114.855485,-9494.720077
958.822185,38.285162,153.140646,-9475.577496
958.822812,38.285162,114.855485,-9418.149754
958.823440,95.712904,95.712904,-9456.434915
958.824067,76.570323,172.283227,-9418.149754
958.824694,38.285162,172.283227,-9418.149754
958.825321,76.570323,114.855485,-9418.149754
958.825949,95.712904,133.998066,-9360.722011
958.826576,95.712904,95.712904,-9533.005238
958.827203,76.570323,153.140646,-9456.434915
958.827830,76.570323,114.855485,-9475.577496
958.828458,172.283227,133.998066,-9552.147819
958.829085,133.998066,210.568389,-9418.149754
958.829712,76.570323,114.855485,-9437.292334
958.830339,76.570323,114.855485,-9437.292334
958.830967,133.998066,114.855485,-9533.005238
958.831594,76.570323,153.140646,-9456.434915
958.832221,133.998066,172.283227,-9418.149754
958.832848,153.140646,248.853550,-9399.007173
958.833476,57.427742,172.283227,-9360.722011
958.834103,38.285162,153.140646,-9418.149754
958.834730,76.570323,153.140646,-9437.292334
958.835357,76.570323,95.712904,-9399.007173
958.835985,133.998066,114.855485,-9437.292334
958.836612,153.140646,172.283227,-9475.577496
958.837239,133.998066,133.998066,-9456.434915
958.837866,38.285162,172.283227,-9456.434915
958.838494,38.285162,172.283227,-9456.434915
958.839121,38.285162,210.568389,-9418.149754
958.839748,76.570323,172.283227,-9533.005238
958.840375,133.998066,172.283227,-9437.292334
958.841003,133.998066,114.855485,-9418.149754
958.841630,133.998066,172.283227,-9437.292334
958.842257,133.998066,133.998066,-9399.007173
958.842884,210.568389,133.998066,-9399.007173
958.843512,153.140646,133.998066,-9399.007173
958.844139,133.998066,153.140646,-9399.007173
958.844766,153.140646,133.998066,-9456.434915
958.845393,76.570323,114.855485,-9418.149754
958.846021,57.427742,95.712904,-9437.292334
958.846648,38.285162,114.855485,-9437.292334
958.847275,76.570323,210.568389,-9533.005238
958.847902,76.570323,172.283227,-9437.292334
958.848529,133.998066,114.855485,-9437.292334
958.849157,153.140646,133.998066,-9399.007173
958.849784,114.855485,153.140646,-9360.722011
958.850411,38.285162,114.855485,-9456.434915
958.851038,95.712904,95.712904,-9399.007173
958.851666,95.712904,114.855485,-9418.149754
958.852293,19.142581,114.855485,-9418.149754
958.852920,76.570323,95.712904,-9399.007173
958.853547,76.570323,114.855485,-9418.149754
958.854175,133.998066,114.855485,-9418.149754
958.854802,57.427742,153.140646,-9437.292334
958.855429,38.285162,114.855485,-9456.434915
958.856056,76.570323,210.568389,-9418.149754
958.856684,95.712904,95.712904,-9456.434915
958.857311,133.998066,114.855485,-9418.149754
958.857938,114.855485,95.712904,-9456.434915
958.858565,133.998066,133.998066,-9437.292334
958.859193,76.570323,114.855485,-9437.292334
958.859820,76.570323,114.855485,-9418.149754
958.860447,114.855485,95.712904,-9437.292334
958.861074,133.998066,172.283227,-9399.007173
958.861702,57.427742,133.998066,-9341.579430
958.862329,76.570323,114.855485,-9418.149754
958.862956,76.570323,114.855485,-9418.149754
958.863583,76.570323,114.855485,-9418.149754
958.864211,133.998066,172.283227,-9437.292334
958.864838,133.998066,172.283227,-9456.434915
958.865465,172.283227,76.570323,-9418.149754
958.866092,133.998066,172.283227,-9418.149754
958.866720,153.140646,133.998066,-9399.007173
958.867347,95.712904,114.855485,-9437.292334
958.867974,133.998066,114.855485,-9418.149754
958.868601,133.998066,114.855485,-9418.149754
958.869229,133.998066,153.140646,-9418.149754
958.869856,133.998066,114.855485,-9475.577496
958.870483,191.425808,76.570323,-9456.434915
958.871110,172.283227,76.570323,-9418.149754
958.871738,57.427742,95.712904,-9494.720077
958.872365,38.285162,210.568389,-9418.149754
958.872992,38.285162,114.855485,-9533.005238
958.873619,57.427742,95.712904,-9437.292334
958.874247,95.712904,191.425808,-9360.722011
958.874874,133.998066,172.283227,-9399.007173
958.875501,114.855485,172.283227,-9360.722011
958.876128,76.570323,153.140646,-9456.434915
958.876756,133.998066,153.140646,-9399.007173
958.877383,114.855485,76.570323,-9418.149754
958.878010,210.568389,153.140646,-9399.007173
958.878638,133.998066,172.283227,-9418.149754
958.879265,248.853550,172.283227,-9456.434915
958.879892,114.855485,95.712904,-9399.007173
958.880520,76.570323,172.283227,-9494.720077
958.881147,76.570323,114.855485,-9494.720077
958.881774,19.142581,172.283227,-9437.292334
958.882402,76.570323,153.140646,-9418.149754
958.883029,76.570323,153.140646,-9418.149754
958.883656,133.998066,114.855485,-9418.149754
958.884284,133.998066,114.855485,-9418.149754
958.884911,114.855485,133.998066,-9360.722011
958.885538,76.570323,153.140646,-9418.149754
958.886166,95.712904,153.140646,-9360.722011
958.886793,76.570323,114.855485,-9475.577496
958.887420,95.712904,95.712904,-9456.434915
958.888048,57.427742,95.712904,-9456.434915
958.888675,133.998066,114.855485,-9418.149754
958.889302,76.570323,114.855485,-9437.292334
958.889930,133.998066,210.568389,-9456.434915
958.890557,153.140646,191.425808,-9456.434915
958.891184,76.570323,153.140646,-9456.434915
958.891812,133.998066,210.568389,-9418.149754
958.892439,76.570323,210.568389,-9418.149754
958.893066,133.998066,153.140646,-9418.149754
958.893693,76.570323,229.710970,-9418.149754
958.894321,76.570323,210.568389,-9418.149754
958.894948,133.998066,153.140646,-9437.292334
958.895575,133.998066,114.855485,-9418.149754
958.896203,95.712904,95.712904,-9399.007173
958.896830,133.998066,114.855485,-9418.149754
958.897457,38.285162,172.283227,-9437.292334
958.898085,95.712904,114.855485,-9456.434915
958.898712,38.285162,172.283227,-9437.292334
958.899339,76.570323,114.855485,-9418.149754
958.899967,76.570323,114.855485,-9475.577496
958.900594,133.998066,114.855485,-9418.149754
958.901221,76.570323,172.283227,-9475.577496
958.901849,95.712904,210.568389,-9399.007173
958.902476,38.285162,153.140646,-9418.149754
958.903103,114.855485,95.712904,-9456.434915
958.903731,95.712904,172.283227,-9494.720077
958.904358,76.570323,210.568389,-9456.434915
958.904985,172.283227,114.855485,-9379.864592
958.905613,114.855485,95.712904,-9437.292334
958.906240,114.855485,76.570323,-9418.149754
958.906867,114.855485,95.712904,-9437.292334
958.907495,95.712904,95.712904,-9456.434915
958.908122,76.570323,114.855485,-9437.292334
958.908749,133.998066,210.568389,-9418.149754
958.909377,95.712904,172.283227,-9418.149754
958.910004,38.285162,114.855485,-9418.149754
958.910631,38.285162,114.855485,-9418.149754
958.911259,95.712904,114.855485,-9475.577496
958.911886,172.283227,114.855485,-9379.864592
958.912513,172.283227,76.570323,-9437.292334
958.913141,210.568389,133.998066,-9379.864592
958.913768,172.283227,76.570323,-9418.149754
958.914395,114.855485,95.712904,-9513.862658
958.915023,76.570323,153.140646,-9418.149754
958.915650,76.570323,114.855485,-9475.577496
958.916277,76.570323,210.568389,-9533.005238
958.916905,133.998066,210.568389,-9418.149754
958.917532,76.570323,95.712904,-9399.007173
958.918159,153.140646,133.998066,-9399.007173
958.918787,114.855485,248.853550,-9437.292334
958.919414,133.998066,210.568389,-9437.292334
958.920041,114.855485,153.140646,-9360.722011
958.920669,38.285162,153.140646,-9418.149754
958.921296,76.570323,76.570323,-9399.007173
958.921923,133.998066,114.855485,-9456.434915
958.922551,76.570323,114.855485,-9533.005238
958.923178,76.570323,114.855485,-9456.434915
958.923805,76.570323,114.855485,-9418.149754
958.924432,38.285162,114.855485,-9418.149754
958.925060,38.285162,172.283227,-9437.292334
958.925687,114.855485,133.998066,-9475.577496
958.926314,153.140646,153.140646,-9418.149754
958.926942,133.998066,114.855485,-9418.149754
958.927569,133.998066,114.855485,-9418.149754
958.928196,76.570323,114.855485,-9418.149754
958.928824,76.570323,172.283227,-9418.149754
958.929451,76.570323,153.140646,-9418.149754
958.930078,133.998066,114.855485,-9437.292334
958.930706,133.998066,133.998066,-9399.007173
958.931333,76.570323,114.855485,-9533.005238
958.931960,38.285162,210.568389,-9475.577496
958.932588,57.427742,172.283227,-9456.434915
958.933215,38.285162,172.283227,-9456.434915
958.933842,133.998066,172.283227,-9418.149754
958.934470,133.998066,153.140646,-9418.149754
958.935097,76.570323,114.855485,-9437.292334
958.935724,172.283227,76.570323,-9475.577496
958.936352,38.285162,153.140646,-9437.292334
958.936979,172.283227,76.570323,-9456.434915
958.937606,76.570323,172.283227,-9418.149754
958.938234,76.570323,153.140646,-9341.579430
958.938861,153.140646,114.855485,-9418.149754
958.939488,133.998066,76.570323,-9379.864592
958.940116,153.140646,114.855485,-9418.149754
958.940743,114.855485,95.712904,-9399.007173
958.941370,76.570323,114.855485,-9418.149754
958.941998,38.285162,114.855485,-9418.149754
958.942625,38.285162,172.283227,-9437.292334
958.943252,76.570323,229.710970,-9418.149754
958.943880,38.285162,114.855485,-9456.434915
958.944507,133.998066,76.570323,-9379.864592
958.945134,76.570323,191.425808,-9360.722011
958.945762,76.570323,172.283227,-9418.149754
958.946389,172.283227,191.425808,-9379.864592
958.947016,114.855485,95.712904,-9456.434915
958.947644,210.568389,133.998066,-9399.007173
958.948271,76.570323,153.140646,-9418.149754
958.948898,133.998066,172.283227,-9418.149754
958.949526,38.285162,210.568389,-9437.292334
958.950153,38.285162,114.855485,-9456.434915
958.950780,38.285162,114.855485,-9475.577496
958.951408,133.998066,114.855485,-9456.434915
958.952035,76.570323,210.568389,-9456.434915
958.952662,76.570323,114.855485,-9418.149754
958.953290,133.998066,172.283227,-9418.149754
958.953917,76.570323,114.855485,-9418.149754
958.954544,76.570323,172.283227,-9418.149754
958.955172,95.712904,153.140646,-9418.149754
958.955799,114.855485,133.998066,-9360.722011
958.956426,153.140646,95.712904,-9360.722011
958.957053,133.998066,114.855485,-9475.577496
958.957681,133.998066,114.855485,-9437.292334
958.958308,76.570323,114.855485,-9456.434915
958.958935,76.570323,210.568389,-9418.149754
958.959563,95.712904,153.140646,-9418.149754
958.960190,133.998066,114.855485,-9475.577496
958.960817,133.998066,114.855485,-9418.149754
958.961445,153.140646,172.283227,-9379.864592
958.962072,133.998066,191.425808,-9399.007173
958.962699,76.570323,153.140646,-9418.149754
958.963327,76.570323,114.855485,-9418.149754
958.963954,95.712904,153.140646,-9437.292334
958.964581,76.570323,114.855485,-9418.149754
958.965209,133.998066,172.283227,-9418.149754
958.965836,133.998066,153.140646,-9418.149754
958.966463,57.427742,210.568389,-9533.005238
958.967091,57.427742,229.710970,-9399.007173
958.967718,95.712904,114.855485,-9418.149754
958.968345,76.570323,210.568389,-9418.149754
958.968973,133.998066,210.568389,-9456.434915
958.969600,133.998066,114.855485,-9418.149754
958.970227,76.570323,172.283227,-9437.292334
958.970855,95.712904,210.568389,-9437.292334
958.971482,95.712904,114.855485,-9418.149754
958.972109,57.427742,95.712904,-9437.292334
958.972737,76.570323,114.855485,-9437.292334
958.973364,133.998066,114.855485,-9437.292334
958.973991,76.570323,153.140646,-9418.149754
958.974619,38.285162,95.712904,-9456.434915
958.975246,38.285162,172.283227,-9437.292334
958.975873,38.285162,172.283227,-9456.434915
958.976501,133.998066,229.710970,-9418.149754
958.977128,57.427742,114.855485,-9399.007173
958.977755,133.998066,210.568389,-9418.149754
958.978383,57.427742,133.998066,-9360.722011
958.979010,76.570323,172.283227,-9418.149754
958.979638,76.570323,153.140646,-9418.149754
958.980265,57.427742,133.998066,-9360.722011
958.980893,133.998066,133.998066,-9399.007173
958.981520,133.998066,153.140646,-9418.149754
958.982147,76.570323,76.570323,-9379.864592
958.982775,133.998066,114.855485,-9418.149754
958.983402,76.570323,210.568389,-9418.149754
958.984030,76.570323,210.568389,-9494.720077
958.984657,76.570323,153.140646,-9456.434915
958.985285,95.712904,210.568389,-9418.149754
958.985912,133.998066,153.140646,-9399.007173
958.986540,38.285162,191.425808,-9418.149754
958.987167,76.570323,153.140646,-9418.149754
958.987795,133.998066,114.855485,-9360.722011
958.988422,172.283227,114.855485,-9379.864592
958.989049,153.140646,76.570323,-9322.436850
958.989677,95.712904,95.712904,-9399.007173
958.990304,133.998066,172.283227,-9418.149754
958.990932,57.427742,191.425808,-9360.722011
958.991559,133.998066,114.855485,-9418.149754
958.992187,76.570323,153.140646,-9475.577496
958.992814,38.285162,114.855485,-9533.005238
958.993442,38.285162,114.855485,-9456.434915
958.994069,133.998066,172.283227,-9456.434915
958.994696,76.570323,153.140646,-9456.434915
958.995324,114.855485,153.140646,-9360.722011
958.995951,114.855485,248.853550,-9360.722011
958.996579,95.712904,114.855485,-9418.149754
958.997206,133.998066,172.283227,-9399.007173
958.997834,133.998066,153.140646,-9418.149754
958.998461,133.998066,114.855485,-9437.292334
958.999089,133.998066,114.855485,-9437.292334
958.999716,95.712904,95.712904,-9437.292334
959.000343,76.570323,114.855485,-9533.005238
959.000971,38.285162,153.140646,-9418.149754
959.001598,38.285162,153.140646,-9418.149754
959.002226,76.570323,114.855485,-9418.149754
959.002853,38.285162,114.855485,-9418.149754
959.003481,95.712904,172.283227,-9418.149754
959.004108,133.998066,210.568389,-9418.149754
959.004736,76.570323,153.140646,-9418.149754
959.005363,95.712904,133.998066,-9360.722011
959.005990,95.712904,172.283227,-9360.722011
959.006618,95.712904,95.712904,-9399.007173
959.007245,114.855485,191.425808,-9360.722011
959.007873,38.285162,114.855485,-9418.149754
959.008500,133.998066,114.855485,-9437.292334
959.009128,76.570323,114.855485,-9418.149754
959.009755,38.285162,153.140646,-9418.149754
959.010383,38.285162,191.425808,-9437.292334
959.011010,76.570323,153.140646,-9418.149754
959.011637,76.570323,153.140646,-9418.149754
959.012265,133.998066,153.140646,-9418.149754
959.012892,76.570323,172.283227,-9418.149754
959.013520,133.998066,114.855485,-9437.292334
959.014147,95.712904,95.712904,-9494.720077
959.014775,133.998066,114.855485,-9475.577496
959.015402,210.568389,133.998066,-9399.007173
959.016030,172.283227,76.570323,-9418.149754
959.016657,153.140646,133.998066,-9456.434915
959.017284,57.427742,95.712904,-9494.720077
959.017912,76.570323,153.140646,-9475.577496
959.018539,76.570323,172.283227,-9437.292334
959.019167,76.570323,229.710970,-9437.292334
959.019794,38.285162,114.855485,-9475.577496
959.020422,38.285162,153.140646,-9418.149754
959.021049,95.712904,114.855485,-9418.149754
959.021677,153.140646,153.140646,-9399.007173
959.022304,133.998066,153.140646,-9418.149754
959.022931,114.855485,114.855485,-9379.864592
959.023559,114.855485,133.998066,-9360.722011
959.024186,133.998066,114.855485,-9456.434915
959.024814,172.283227,76.570323,-9418.149754
959.025441,133.998066,172.283227,-9418.149754
959.026069,76.570323,114.855485,-9418.149754
959.026696,76.570323,153.140646,-9494.720077
959.027324,76.570323,114.855485,-9494.720077
959.027951,76.570323,210.568389,-9418.149754
959.028578,133.998066,153.140646,-9456.434915
959.029206,76.570323,114.855485,-9418.149754
959.029833,133.998066,153.140646,-9418.149754
959.030461,133.998066,191.425808,-9399.007173
959.031088,76.570323,153.140646,-9418.149754
959.031716,38.285162,114.855485,-9418.149754
959.032343,76.570323,95.712904,-9513.862658
959.032971,153.140646,133.998066,-9494.720077
959.033598,153.140646,133.998066,-9494.720077
959.034225,114.855485,95.712904,-9437.292334
959.034853,95.712904,114.855485,-9437.292334
959.035480,76.570323,153.140646,-9418.149754
959.036108,38.285162,153.140646,-9456.434915
959.036735,133.998066,114.855485,-9418.149754
959.037363,114.855485,133.998066,-9360.722011
959.037990,133.998066,153.140646,-9418.149754
959.038618,133.998066,133.998066,-9437.292334
959.039245,95.712904,172.283227,-9360.722011
959.039872,38.285162,229.710970,-9418.149754
959.040500,38.285162,229.710970,-9418.149754
959.041127,38.285162,153.140646,-9437.292334
959.041755,95.712904,210.568389,-9418.149754
959.042382,76.570323,153.140646,-9418.149754
959.043010,133.998066,172.283227,-9418.149754
959.043637,76.570323,210.568389,-9437.292334
959.044265,95.712904,210.568389,-9418.149754
959.044892,19.142581,210.568389,-9418.149754
959.045519,76.570323,172.283227,-9456.434915
959.046147,38.285162,210.568389,-9475.577496
959.046774,114.855485,133.998066,-9475.577496
959.047402,133.998066,210.568389,-9456.434915
959.048029,133.998066,114.855485,-9418.149754
959.048657,153.140646,133.998066,-9399.007173
959.049284,114.855485,191.425808,-9418.149754
959.049912,153.140646,172.283227,-9399.007173
959.050539,95.712904,95.712904,-9437.292334
959.051167,114.855485,95.712904,-9475.577496
959.051794,153.140646,133.998066,-9494.720077
959.052421,76.570323,114.855485,-9533.005238
959.053049,38.285162,172.283227,-9456.434915
959.053676,38.285162,210.568389,-9418.149754
959.054304,38.285162,114.855485,-9475.577496
959.054931,95.712904,133.998066,-9360.722011
959.055559,133.998066,114.855485,-9418.149754
959.056186,133.998066,133.998066,-9399.007173
959.056814,133.998066,114.855485,-9360.722011
959.057441,133.998066,153.140646,-9418.149754
959.058068,114.855485,114.855485,-9399.007173
959.058696,76.570323,114.855485,-9418.149754
959.059323,133.998066,114.855485,-9494.720077
959.059951,172.283227,114.855485,-9456.434915
959.060578,76.570323,153.140646,-9418.149754
959.061206,76.570323,172.283227,-9437.292334
959.061833,19.142581,172.283227,-9437.292334
959.062461,57.427742,172.283227,-9418.149754
959.063088,133.998066,172.283227,-9418.149754
959.063715,133.998066,114.855485,-9418.149754
959.064343,114.855485,95.712904,-9399.007173
959.064970,95.712904,172.283227,-9322.436850
959.065598,76.570323,114.855485,-9418.149754
959.066225,133.998066,114.855485,-9418.149754
959.066853,153.140646,95.712904,-9360.722011
959.067480,114.855485,95.712904,-9399.007173
959.068108,191.425808,172.283227,-9494.720077
959.068735,133.998066,191.425808,-9494.720077
959.069362,133.998066,210.568389,-9437.292334
959.069990,95.712904,153.140646,-9437.292334
959.070617,76.570323,172.283227,-9456.434915
959.071245,133.998066,210.568389,-9475.577496
959.071872,153.140646,153.140646,-9437.292334
959.072500,133.998066,114.855485,-9418.149754
959.073127,38.285162,114.855485,-9399.007173
959.073755,133.998066,172.283227,-9418.149754
