#time,accel_x,accel_y,accel_z
1184.753450,133.998066,172.283227,-9418.149754
1184.754077,95.712904,172.283227,-9418.149754
1184.754705,133.998066,114.855485,-9418.149754
1184.755332,133.998066,114.855485,-9418.149754
1184.755960,38.285162,114.855485,-9437.292334
1184.756588,38.285162,114.855485,-9418.149754
1184.757215,76.570323,172.283227,-9456.434915
1184.757843,133.998066,172.283227,-9399.007173
1184.758470,95.712904,133.998066,-9360.722011
1184.759098,133.998066,114.855485,-9418.149754
1184.759726,114.855485,133.998066,-9475.577496
1184.760353,133.998066,114.855485,-9456.434915
1184.760981,153.140646,133.998066,-9399.007173
1184.761608,153.140646,248.853550,-9399.007173
1184.762236,133.998066,153.140646,-9418.149754
1184.762864,38.285162,172.283227,-9418.149754
1184.763491,133.998066,114.855485,-9418.149754
1184.764119,95.712904,172.283227,-9360.722011
1184.764746,133.998066,114.855485,-9418.149754
1184.765374,19.142581,114.855485,-9456.434915
1184.766002,38.285162,114.855485,-9475.577496
1184.766629,95.712904,153.140646,-9475.577496
1184.767257,133.998066,153.140646,-9418.149754
1184.767884,76.570323,153.140646,-9418.149754
1184.768512,133.998066,114.855485,-9418.149754
1184.769140,133.998066,114.855485,-9456.434915
1184.769767,133.998066,210.568389,-9456.434915
1184.770395,133.998066,172.283227,-9475.577496
1184.771022,38.285162,114.855485,-9456.434915
1184.771650,133.998066,210.568389,-9437.292334
1184.772278,133.998066,153.140646,-9418.149754
1184.772905,76.570323,153.140646,-9418.149754
1184.773533,133.998066,153.140646,-9418.149754
1184.774160,76.570323,114.855485,-9418.149754
1184.774788,57.427742,172.283227,-9360.722011
1184.775416,76.570323,172.283227,-9456.434915
1184.776043,38.285162,172.283227,-9418.149754
1184.776671,38.285162,153.140646,-9418.149754
1184.777298,57.427742,153.140646,-9360.722011
1184.777926,57.427742,133.998066,-9360.722011
1184.778554,76.570323,114.855485,-9456.434915
1184.779181,153.140646,95.712904,-9418.149754
1184.779809,76.570323,114.855485,-9418.149754
1184.780436,133.998066,133.998066,-9399.007173
1184.781064,133.998066,153.140646,-9475.577496
1184.781692,153.140646,191.425808,-9399.007173
1184.782319,133.998066,153.140646,-9437.292334
1184.782947,153.140646,153.140646,-9437.292334
1184.783574,153.140646,133.998066,-9437.292334
1184.784202,95.712904,133.998066,-9360.722011
1184.784830,95.712904,95.712904,-9475.577496
1184.785457,114.855485,95.712904,-9494.720077
1184.786085,76.570323,114.855485,-9418.149754
1184.786712,76.570323,229.710970,-9418.149754
1184.787340,38.285162,153.140646,-9494.720077
1184.787968,38.285162,153.140646,-9418.149754
1184.788595,76.570323,114.855485,-9418.149754
1184.789223,114.855485,95.712904,-9399.007173
1184.789850,133.998066,114.855485,-9418.149754
1184.790478,57.427742,133.998066,-9360.722011
1184.791106,114.855485,76.570323,-9418.149754
1184.791733,133.998066,153.140646,-9418.149754
1184.792361,133.998066,114.855485,-9456.434915
1184.792988,76.570323,114.855485,-9437.292334
1184.793616,153.140646,114.855485,-9533.005238
1184.794244,153.140646,133.998066,-9456.434915
1184.794871,76.570323,172.283227,-9494.720077
1184.795499,76.570323,114.855485,-9475.577496
1184.796126,76.570323,153.140646,-9437.292334
1184.796754,95.712904,133.998066,-9360.722011
1184.797382,76.570323,153.140646,-9418.149754
1184.798009,76.570323,114.855485,-9418.149754
1184.798637,114.855485,95.712904,-9437.292334
1184.799264,76.570323,172.283227,-9418.149754
1184.799892,57.427742,133.998066,-9341.579430
1184.800520,95.712904,133.998066,-9360.722011
1184.801147,38.285162,114.855485,-9418.149754
1184.801775,57.427742,172.283227,-9360.722011
1184.802402,133.998066,191.425808,-9418.149754
1184.803030,38.285162,114.855485,-9418.149754
1184.803658,114.855485,95.712904,-9437.292334
1184.804285,133.998066,114.855485,-9437.292334
1184.804913,133.998066,172.283227,-9437.292334
1184.805540,133.998066,172.283227,-9437.292334
1184.806168,153.140646,172.283227,-9494.720077
1184.806796,133.998066,114.855485,-9475.577496
1184.807424,133.998066,114.855485,-9418.149754
1184.808051,133.998066,114.855485,-9456.434915
1184.808679,76.570323,172.283227,-9418.149754
1184.809307,133.998066,229.710970,-9418.149754
1184.809934,133.998066,210.568389,-9456.434915
1184.810562,76.570323,172.283227,-9456.434915
1184.811190,95.712904,114.855485,-9456.434915
1184.811817,95.712904,133.998066,-9360.722011
1184.812445,0.000000,133.998066,-9360.722011
1184.813073,76.570323,114.855485,-9418.149754
1184.813700,57.427742,133.998066,-9360.722011
1184.814328,76.570323,210.568389,-9475.577496
1184.814956,133.998066,114.855485,-9437.292334
1184.815584,133.998066,114.855485,-9475.577496
1184.816211,172.283227,76.570323,-9456.434915
1184.816839,76.570323,172.283227,-9456.434915
1184.817467,133.998066,114.855485,-9437.292334
1184.818094,76.570323,114.855485,-9437.292334
1184.818722,38.285162,153.140646,-9475.577496
1184.819350,114.855485,133.998066,-9418.149754
1184.819977,114.855485,95.712904,-9399.007173
1184.820605,95.712904,95.712904,-9437.292334
1184.821233,133.998066,114.855485,-9418.149754
1184.821861,133.998066,133.998066,-9456.434915
1184.822488,133.998066,210.568389,-9418.149754
1184.823116,38.285162,114.855485,-9418.149754
1184.823744,38.285162,114.855485,-9456.434915
1184.824371,76.570323,114.855485,-9418.149754
1184.824999,76.570323,114.855485,-9418.149754
1184.825627,76.570323,114.855485,-9418.149754
1184.826254,57.427742,153.140646,-9418.149754
1184.826882,38.285162,114.855485,-9475.577496
1184.827510,133.998066,114.855485,-9418.149754
1184.828137,133.998066,114.855485,-9437.292334
1184.828765,133.998066,114.855485,-9418.149754
1184.829393,76.570323,133.998066,-9360.722011
1184.830021,133.998066,172.283227,-9418.149754
1184.830648,133.998066,172.283227,-9456.434915
1184.831276,76.570323,210.568389,-9418.149754
1184.831904,133.998066,191.425808,-9418.149754
1184.832531,133.998066,114.855485,-9418.149754
1184.833159,133.998066,153.140646,-9418.149754
1184.833787,133.998066,248.853550,-9456.434915
1184.834414,76.570323,76.570323,-9379.864592
1184.835042,76.570323,114.855485,-9418.149754
1184.835670,76.570323,114.855485,-9418.149754
1184.836297,76.570323,114.855485,-9418.149754
1184.836925,133.998066,114.855485,-9360.722011
1184.837553,95.712904,191.425808,-9360.722011
1184.838181,38.285162,114.855485,-9418.149754
1184.838808,133.998066,172.283227,-9418.149754
1184.839436,133.998066,114.855485,-9418.149754
1184.840064,76.570323,114.855485,-9418.149754
1184.840691,57.427742,114.855485,-9456.434915
1184.841319,76.570323,114.855485,-9418.149754
1184.841947,38.285162,172.283227,-9418.149754
1184.842574,76.570323,210.568389,-9437.292334
1184.843202,76.570323,172.283227,-9418.149754
1184.843830,76.570323,153.140646,-9418.149754
1184.844457,153.140646,172.283227,-9399.007173
1184.845085,76.570323,114.855485,-9418.149754
1184.845713,76.570323,114.855485,-9418.149754
1184.846341,76.570323,114.855485,-9456.434915
1184.846968,133.998066,114.855485,-9475.577496
1184.847596,95.712904,95.712904,-9456.434915
1184.848224,76.570323,153.140646,-9475.577496
1184.848851,76.570323,114.855485,-9437.292334
1184.849479,76.570323,114.855485,-9418.149754
1184.850107,114.855485,95.712904,-9399.007173
1184.850734,76.570323,114.855485,-9418.149754
1184.851362,133.998066,172.283227,-9437.292334
1184.851990,76.570323,172.283227,-9418.149754
1184.852618,76.570323,114.855485,-9418.149754
1184.853245,57.427742,133.998066,-9360.722011
1184.853873,114.855485,210.568389,-9379.864592
1184.854501,95.712904,114.855485,-9456.434915
1184.855128,76.570323,114.855485,-9418.149754
1184.855756,76.570323,114.855485,-9437.292334
1184.856384,153.140646,114.855485,-9418.149754
1184.857011,133.998066,114.855485,-9418.149754
1184.857639,133.998066,172.283227,-9456.434915
1184.858267,38.285162,153.140646,-9494.720077
1184.858894,76.570323,133.998066,-9379.864592
1184.859522,76.570323,114.855485,-9437.292334
1184.860150,133.998066,153.140646,-9399.007173
1184.860778,95.712904,95.712904,-9437.292334
1184.861405,76.570323,210.568389,-9418.149754
1184.862033,38.285162,172.283227,-9456.434915
1184.862661,19.142581,210.568389,-9418.149754
1184.863288,38.285162,153.140646,-9418.149754
1184.863916,95.712904,172.283227,-9418.149754
1184.864544,76.570323,210.568389,-9418.149754
1184.865171,95.712904,95.712904,-9399.007173
1184.865799,76.570323,114.855485,-9456.434915
1184.866427,153.140646,172.283227,-9418.149754
1184.867054,133.998066,191.425808,-9418.149754
1184.867682,133.998066,114.855485,-9456.434915
1184.868310,76.570323,114.855485,-9418.149754
1184.868938,76.570323,210.568389,-9456.434915
1184.869565,153.140646,133.998066,-9494.720077
1184.870193,76.570323,172.283227,-9456.434915
1184.870821,76.570323,210.568389,-9341.579430
1184.871448,57.427742,210.568389,-9360.722011
1184.872076,38.285162,172.283227,-9456.434915
1184.872704,114.855485,133.998066,-9360.722011
1184.873331,76.570323,153.140646,-9418.149754
1184.873959,19.142581,114.855485,-9475.577496
1184.874587,95.712904,95.712904,-9399.007173
1184.875215,19.142581,133.998066,-9399.007173
1184.875842,0.000000,95.712904,-9379.864592
1184.876470,76.570323,95.712904,-9399.007173
1184.877098,114.855485,210.568389,-9399.007173
1184.877725,133.998066,114.855485,-9418.149754
1184.878353,133.998066,114.855485,-9418.149754
1184.878981,172.283227,76.570323,-9437.292334
1184.879608,114.855485,133.998066,-9418.149754
1184.880236,114.855485,95.712904,-9437.292334
1184.880864,76.570323,172.283227,-9437.292334
1184.881491,95.712904,210.568389,-9418.149754
1184.882119,95.712904,210.568389,-9418.149754
1184.882747,76.570323,172.283227,-9437.292334
1184.883375,133.998066,114.855485,-9456.434915
1184.884002,114.855485,76.570323,-9418.149754
1184.884630,95.712904,95.712904,-9399.007173
1184.885258,57.427742,95.712904,-9437.292334
1184.885885,38.285162,114.855485,-9418.149754
1184.886513,38.285162,172.283227,-9418.149754
1184.887141,57.427742,210.568389,-9360.722011
1184.887768,133.998066,153.140646,-9418.149754
1184.888396,38.285162,114.855485,-9475.577496
1184.889024,76.570323,114.855485,-9456.434915
1184.889651,95.712904,114.855485,-9399.007173
1184.890279,133.998066,133.998066,-9399.007173
1184.890907,76.570323,114.855485,-9418.149754
1184.891535,76.570323,153.140646,-9418.149754
1184.892162,76.570323,172.283227,-9418.149754
1184.892790,133.998066,153.140646,-9418.149754
1184.893418,210.568389,133.998066,-9399.007173
1184.894045,133.998066,114.855485,-9456.434915
1184.894673,76.570323,114.855485,-9418.149754
1184.895301,133.998066,114.855485,-9437.292334
1184.895928,76.570323,114.855485,-9456.434915
1184.896556,19.142581,114.855485,-9418.149754
1184.897184,38.285162,153.140646,-9456.434915
1184.897811,76.570323,114.855485,-9475.577496
1184.898439,95.712904,114.855485,-9418.149754
1184.899067,76.570323,172.283227,-9418.149754
1184.899695,38.285162,172.283227,-9418.149754
1184.900322,57.427742,95.712904,-9399.007173
1184.900950,76.570323,114.855485,-9437.292334
1184.901578,133.998066,210.568389,-9418.149754
1184.902205,133.998066,153.140646,-9418.149754
1184.902833,133.998066,114.855485,-9418.149754
1184.903461,76.570323,210.568389,-9418.149754
1184.904088,38.285162,114.855485,-9418.149754
1184.904716,133.998066,210.568389,-9418.149754
1184.905344,95.712904,133.998066,-9360.722011
1184.905972,95.712904,114.855485,-9418.149754
1184.906599,133.998066,210.568389,-9437.292334
1184.907227,114.855485,95.712904,-9399.007173
1184.907855,191.425808,133.998066,-9399.007173
1184.908483,38.285162,153.140646,-9418.149754
1184.909111,0.000000,76.570323,-9418.149754
1184.909739,38.285162,153.140646,-9418.149754
1184.910367,38.285162,191.425808,-9418.149754
1184.910995,153.140646,133.998066,-9399.007173
1184.911623,76.570323,114.855485,-9437.292334
1184.912251,95.712904,114.855485,-9437.292334
1184.912879,114.855485,133.998066,-9360.722011
1184.913507,76.570323,172.283227,-9418.149754
1184.914135,133.998066,133.998066,-9399.007173
1184.914763,95.712904,210.568389,-9418.149754
1184.915391,76.570323,172.283227,-9360.722011
1184.916019,153.140646,95.712904,-9360.722011
1184.916647,153.140646,153.140646,-9418.149754
1184.917275,133.998066,114.855485,-9418.149754
1184.917903,133.998066,153.140646,-9399.007173
1184.918530,133.998066,153.140646,-9399.007173
1184.919158,38.285162,172.283227,-9418.149754
1184.919786,38.285162,114.855485,-9418.149754
1184.920414,133.998066,114.855485,-9418.149754
1184.921042,133.998066,133.998066,-9399.007173
1184.921670,133.998066,114.855485,-9437.292334
1184.922298,133.998066,114.855485,-9418.149754
1184.922926,153.140646,210.568389,-9399.007173
1184.923554,76.570323,191.425808,-9456.434915
1184.924182,76.570323,114.855485,-9418.149754
1184.924810,133.998066,114.855485,-9418.149754
1184.925438,133.998066,153.140646,-9437.292334
1184.926066,114.855485,95.712904,-9399.007173
1184.926694,76.570323,114.855485,-9418.149754
1184.927322,133.998066,153.140646,-9513.862658
1184.927950,95.712904,172.283227,-9418.149754
1184.928578,76.570323,172.283227,-9418.149754
1184.929206,38.285162,172.283227,-9475.577496
1184.929834,76.570323,114.855485,-9418.149754
1184.930461,95.712904,95.712904,-9399.007173
1184.931089,76.570323,114.855485,-9418.149754
1184.931717,95.712904,114.855485,-9437.292334
1184.932345,133.998066,114.855485,-9418.149754
1184.932973,76.570323,210.568389,-9437.292334
1184.933601,133.998066,210.568389,-9437.292334
1184.934229,114.855485,229.710970,-9399.007173
1184.934857,76.570323,172.283227,-9418.149754
1184.935485,38.285162,172.283227,-9418.149754
1184.936113,76.570323,114.855485,-9418.149754
1184.936741,133.998066,114.855485,-9418.149754
1184.937369,133.998066,191.425808,-9418.149754
1184.937997,38.285162,114.855485,-9437.292334
1184.938625,76.570323,172.283227,-9456.434915
1184.939253,38.285162,210.568389,-9418.149754
1184.939881,133.998066,114.855485,-9418.149754
1184.940509,76.570323,153.140646,-9475.577496
1184.941137,76.570323,114.855485,-9418.149754
1184.941764,57.427742,114.855485,-9418.149754
1184.942392,38.285162,172.283227,-9418.149754
1184.943020,133.998066,114.855485,-9437.292334
1184.943648,114.855485,76.570323,-9456.434915
1184.944276,114.855485,133.998066,-9360.722011
1184.944904,95.712904,95.712904,-9437.292334
1184.945532,133.998066,191.425808,-9494.720077
1184.946160,57.427742,95.712904,-9399.007173
1184.946788,114.855485,95.712904,-9379.864592
1184.947416,133.998066,153.140646,-9418.149754
1184.948044,133.998066,172.283227,-9418.149754
1184.948672,133.998066,153.140646,-9475.577496
1184.949300,114.855485,153.140646,-9533.005238
1184.949928,133.998066,114.855485,-9456.434915
1184.950556,76.570323,114.855485,-9437.292334
1184.951184,76.570323,153.140646,-9456.434915
1184.951812,38.285162,114.855485,-9475.577496
1184.952440,76.570323,172.283227,-9418.149754
1184.953068,38.285162,114.855485,-9456.434915
1184.953695,133.998066,114.855485,-9418.149754
1184.954323,76.570323,114.855485,-9475.577496
1184.954951,76.570323,95.712904,-9437.292334
1184.955579,114.855485,95.712904,-9399.007173
1184.956207,95.712904,95.712904,-9399.007173
1184.956835,133.998066,210.568389,-9418.149754
1184.957463,76.570323,114.855485,-9418.149754
1184.958091,172.283227,133.998066,-9418.149754
1184.958719,133.998066,114.855485,-9418.149754
1184.959347,133.998066,210.568389,-9418.149754
1184.959975,76.570323,114.855485,-9418.149754
1184.960603,133.998066,172.283227,-9418.149754
1184.961231,76.570323,210.568389,-9418.149754
1184.961859,133.998066,153.140646,-9418.149754
1184.962487,76.570323,153.140646,-9418.149754
1184.963115,133.998066,153.140646,-9418.149754
1184.963743,133.998066,172.283227,-9418.149754
1184.964371,76.570323,153.140646,-9418.149754
1184.964999,76.570323,114.855485,-9437.292334
1184.965626,38.285162,172.283227,-9475.577496
1184.966254,114.855485,133.998066,-9360.722011
1184.966882,95.712904,191.425808,-9475.577496
1184.967510,76.570323,114.855485,-9437.292334
1184.968138,172.283227,76.570323,-9418.149754
1184.968766,153.140646,133.998066,-9399.007173
1184.969394,76.570323,114.855485,-9437.292334
1184.970022,76.570323,191.425808,-9456.434915
1184.970650,95.712904,153.140646,-9437.292334
1184.971278,76.570323,114.855485,-9418.149754
1184.971906,38.285162,210.568389,-9418.149754
1184.972534,95.712904,95.712904,-9456.434915
1184.973162,133.998066,114.855485,-9456.434915
1184.973790,133.998066,191.425808,-9437.292334
1184.974418,114.855485,114.855485,-9379.864592
1184.975046,133.998066,114.855485,-9418.149754
1184.975674,76.570323,210.568389,-9418.149754
1184.976302,76.570323,210.568389,-9418.149754
1184.976930,133.998066,133.998066,-9456.434915
1184.977557,153.140646,153.140646,-9437.292334
1184.978185,95.712904,172.283227,-9418.149754
1184.978813,133.998066,191.425808,-9456.434915
1184.979441,76.570323,114.855485,-9418.149754
1184.980069,76.570323,114.855485,-9437.292334
1184.980697,38.285162,153.140646,-9418.149754
1184.981325,133.998066,153.140646,-9456.434915
1184.981953,133.998066,153.140646,-9418.149754
1184.982581,76.570323,114.855485,-9437.292334
1184.983209,76.570323,153.140646,-9437.292334
1184.983837,76.570323,153.140646,-9437.292334
1184.984465,76.570323,191.425808,-9360.722011
1184.985093,76.570323,153.140646,-9437.292334
1184.985721,133.998066,172.283227,-9418.149754
1184.986349,133.998066,114.855485,-9475.577496
1184.986977,114.855485,95.712904,-9437.292334
1184.987605,153.140646,133.998066,-9399.007173
1184.988233,76.570323,133.998066,-9379.864592
1184.988861,133.998066,114.855485,-9456.434915
1184.989488,76.570323,114.855485,-9437.292334
1184.990116,38.285162,114.855485,-9418.149754
1184.990744,133.998066,114.855485,-9418.149754
1184.991372,172.283227,95.712904,-9399.007173
1184.992000,210.568389,191.425808,-9399.007173
1184.992628,133.998066,114.855485,-9418.149754
1184.993256,76.570323,153.140646,-9418.149754
1184.993884,76.570323,172.283227,-9456.434915
1184.994512,57.427742,95.712904,-9399.007173
1184.995140,153.140646,153.140646,-9399.007173
1184.995768,133.998066,153.140646,-9418.149754
1184.996396,114.855485,153.140646,-9360.722011
1184.997024,76.570323,172.283227,-9475.577496
1184.997652,76.570323,191.425808,-9418.149754
1184.998280,76.570323,210.568389,-9418.149754
1184.998908,57.427742,153.140646,-9418.149754
1184.999536,38.285162,153.140646,-9418.149754
1185.000164,210.568389,133.998066,-9399.007173
1185.000792,172.283227,76.570323,-9418.149754
1185.001419,95.712904,95.712904,-9437.292334
1185.002047,57.427742,114.855485,-9399.007173
1185.002675,57.427742,191.425808,-9360.722011
1185.003303,133.998066,229.710970,-9360.722011
1185.003931,76.570323,172.283227,-9418.149754
1185.004559,38.285162,153.140646,-9418.149754
1185.005187,153.140646,133.998066,-9456.434915
1185.005815,153.140646,191.425808,-9399.007173
1185.006443,95.712904,114.855485,-9418.149754
1185.007070,76.570323,114.855485,-9418.149754
1185.007697,76.570323,114.855485,-9437.292334
1185.008324,76.570323,153.140646,-9456.434915
1185.008951,133.998066,114.855485,-9456.434915
1185.009578,153.140646,114.855485,-9418.149754
1185.010205,153.140646,153.140646,-9513.862658
1185.010832,76.570323,210.568389,-9437.292334
1185.011459,38.285162,153.140646,-9418.149754
1185.012086,76.570323,172.283227,-9418.149754
1185.012713,95.712904,133.998066,-9360.722011
1185.013340,38.285162,172.283227,-9456.434915
1185.013967,76.570323,172.283227,-9418.149754
1185.014595,114.855485,133.998066,-9360.722011
1185.015222,76.570323,114.855485,-9456.434915
1185.015849,57.427742,114.855485,-9418.149754
1185.016476,38.285162,153.140646,-9456.434915
1185.017103,76.570323,153.140646,-9360.722011
1185.017730,95.712904,114.855485,-9475.577496
1185.018357,153.140646,172.283227,-9418.149754
1185.018984,153.140646,133.998066,-9399.007173
1185.019611,76.570323,172.283227,-9418.149754
1185.020238,133.998066,114.855485,-9418.149754
1185.020865,38.285162,114.855485,-9418.149754
1185.021492,38.285162,114.855485,-9418.149754
1185.022119,133.998066,191.425808,-9360.722011
1185.022746,133.998066,153.140646,-9360.722011
1185.023373,133.998066,114.855485,-9437.292334
1185.024000,153.140646,153.140646,-9399.007173
1185.024627,57.427742,153.140646,-9418.149754
1185.025254,114.855485,172.283227,-9360.722011
1185.025881,95.712904,114.855485,-9437.292334
1185.026508,133.998066,191.425808,-9418.149754
1185.027135,95.712904,114.855485,-9475.577496
1185.027762,76.570323,114.855485,-9437.292334
1185.028389,133.998066,210.568389,-9456.434915
1185.029016,153.140646,210.568389,-9399.007173
1185.029643,38.285162,172.283227,-9437.292334
1185.030270,19.142581,153.140646,-9437.292334
1185.030897,38.285162,114.855485,-9418.149754
1185.031524,133.998066,172.283227,-9418.149754
1185.032151,133.998066,114.855485,-9418.149754
1185.032778,133.998066,114.855485,-9418.149754
1185.033406,114.855485,76.570323,-9418.149754
1185.034033,38.285162,191.425808,-9437.292334
1185.034660,19.142581,114.855485,-9418.149754
1185.035287,38.285162,172.283227,-9418.149754
1185.035914,76.570323,114.855485,-9418.149754
1185.036541,133.998066,114.855485,-9437.292334
1185.037168,133.998066,114.855485,-9418.149754
1185.037795,153.140646,133.998066,-9456.434915
1185.038422,133.998066,133.998066,-9494.720077
1185.039049,19.142581,153.140646,-9456.434915
1185.039676,38.285162,114.855485,-9437.292334
1185.040303,133.998066,153.140646,-9456.434915
1185.040930,153.140646,153.140646,-9475.577496
1185.041557,172.283227,76.570323,-9456.434915
1185.042184,133.998066,114.855485,-9456.434915
1185.042811,153.140646,133.998066,-9437.292334
1185.043438,133.998066,133.998066,-9379.864592
1185.044065,19.142581,191.425808,-9418.149754
1185.044692,76.570323,114.855485,-9418.149754
1185.045319,133.998066,153.140646,-9418.149754
1185.045946,153.140646,114.855485,-9418.149754
1185.046573,172.283227,57.427742,-9418.149754
1185.047200,133.998066,133.998066,-9399.007173
1185.047827,38.285162,172.283227,-9418.149754
1185.048454,76.570323,191.425808,-9418.149754
1185.049081,76.570323,210.568389,-9437.292334
1185.049708,133.998066,114.855485,-9437.292334
1185.050335,172.283227,95.712904,-9399.007173
1185.050962,172.283227,76.570323,-9437.292334
1185.051589,133.998066,76.570323,-9379.864592
1185.052217,57.427742,191.425808,-9418.149754
1185.052844,19.142581,210.568389,-9418.149754
1185.053471,38.285162,191.425808,-9418.149754
1185.054098,133.998066,191.425808,-9399.007173
1185.054725,76.570323,114.855485,-9418.149754
1185.055352,95.712904,114.855485,-9418.149754
1185.055979,95.712904,133.998066,-9360.722011
1185.056606,114.855485,114.855485,-9399.007173
1185.057233,57.427742,153.140646,-9437.292334
1185.057860,38.285162,229.710970,-9418.149754
1185.058487,95.712904,153.140646,-9418.149754
1185.059114,153.140646,153.140646,-9399.007173
1185.059741,172.283227,76.570323,-9437.292334
1185.060368,133.998066,114.855485,-9418.149754
1185.060995,57.427742,153.140646,-9418.149754
1185.061622,38.285162,229.710970,-9418.149754
1185.062249,38.285162,210.568389,-9456.434915
1185.062876,38.285162,210.568389,-9456.434915
1185.063503,133.998066,153.140646,-9418.149754
1185.064130,76.570323,114.855485,-9418.149754
1185.064757,76.570323,114.855485,-9456.434915
1185.065384,76.570323,114.855485,-9456.434915
1185.066011,95.712904,191.425808,-9360.722011
1185.066638,76.570323,114.855485,-9418.149754
1185.067265,76.570323,114.855485,-9418.149754
1185.067892,153.140646,133.998066,-9399.007173
1185.068519,114.855485,76.570323,-9437.292334
1185.069146,133.998066,114.855485,-9475.577496
1185.069773,76.570323,172.283227,-9437.292334
1185.070400,76.570323,153.140646,-9475.577496
1185.071028,38.285162,229.710970,-9456.434915
1185.071655,38.285162,229.710970,-9475.577496
1185.072282,76.570323,114.855485,-9456.434915
1185.072909,114.855485,133.998066,-9360.722011
1185.073536,172.283227,76.570323,-9456.434915
1185.074163,57.427742,95.712904,-9399.007173
1185.074790,57.427742,210.568389,-9360.722011
1185.075417,38.285162,229.710970,-9418.149754
1185.076044,76.570323,153.140646,-9456.434915
1185.076671,95.712904,172.283227,-9475.577496
1185.077298,114.855485,95.712904,-9399.007173
1185.077925,210.568389,133.998066,-9437.292334
1185.078552,95.712904,153.140646,-9360.722011
1185.079179,95.712904,191.425808,-9418.149754
1185.079806,19.142581,210.568389,-9456.434915
1185.080433,76.570323,210.568389,-9437.292334
1185.081060,133.998066,153.140646,-9456.434915
1185.081687,133.998066,114.855485,-9456.434915
1185.082314,153.140646,133.998066,-9399.007173
1185.082941,153.140646,133.998066,-9399.007173
1185.083568,76.570323,172.283227,-9418.149754
1185.084195,76.570323,153.140646,-9418.149754
1185.084822,76.570323,191.425808,-9418.149754
1185.085449,133.998066,229.710970,-9418.149754
1185.086076,153.140646,172.283227,-9456.434915
1185.086703,133.998066,153.140646,-9418.149754
1185.087330,95.712904,38.285162,-9456.434915
1185.087957,38.285162,38.285162,-9379.864592
1185.088584,76.570323,229.710970,-9437.292334
1185.089211,76.570323,153.140646,-9418.149754
1185.089839,133.998066,248.853550,-9399.007173
1185.090466,153.140646,133.998066,-9456.434915
1185.091093,95.712904,95.712904,-9456.434915
1185.091720,95.712904,114.855485,-9475.577496
1185.092347,38.285162,114.855485,-9494.720077
1185.092974,38.285162,172.283227,-9418.149754
1185.093601,133.998066,210.568389,-9418.149754
1185.094228,57.427742,229.710970,-9399.007173
1185.094855,76.570323,114.855485,-9456.434915
1185.095482,133.998066,114.855485,-9418.149754
1185.096109,76.570323,210.568389,-9418.149754
1185.096736,76.570323,114.855485,-9418.149754
1185.097363,95.712904,229.710970,-9418.149754
1185.097990,76.570323,114.855485,-9418.149754
1185.098617,133.998066,172.283227,-9494.720077
1185.099244,153.140646,133.998066,-9399.007173
1185.099871,133.998066,114.855485,-9475.577496
1185.100498,172.283227,76.570323,-9456.434915
1185.101125,38.285162,210.568389,-9437.292334
1185.101752,76.570323,153.140646,-9456.434915
1185.102379,133.998066,114.855485,-9418.149754
1185.103006,76.570323,114.855485,-9437.292334
1185.103633,95.712904,114.855485,-9418.149754
1185.104260,76.570323,114.855485,-9418.149754
1185.104887,210.568389,133.998066,-9399.007173
1185.105514,133.998066,172.283227,-9379.864592
1185.106141,76.570323,172.283227,-9418.149754
1185.106768,133.998066,191.425808,-9418.149754
1185.107395,76.570323,114.855485,-9418.149754
1185.108023,76.570323,114.855485,-9418.149754
1185.108650,133.998066,153.140646,-9418.149754
1185.109277,76.570323,114.855485,-9418.149754
1185.109904,76.570323,229.710970,-9437.292334
1185.110531,95.712904,229.710970,-9418.149754
1185.111158,95.712904,153.140646,-9437.292334
1185.111785,153.140646,133.998066,-9456.434915
1185.112412,133.998066,114.855485,-9418.149754
1185.113040,114.855485,95.712904,-9399.007173
1185.113668,133.998066,172.283227,-9418.149754
1185.114295,172.283227,191.425808,-9360.722011
1185.114923,76.570323,210.568389,-9418.149754
1185.115551,133.998066,114.855485,-9418.149754
1185.116179,133.998066,153.140646,-9418.149754
1185.116806,133.998066,133.998066,-9456.434915
1185.117434,114.855485,95.712904,-9494.720077
1185.118062,153.140646,133.998066,-9399.007173
1185.118689,95.712904,95.712904,-9494.720077
1185.119317,38.285162,114.855485,-9437.292334
1185.119945,76.570323,153.140646,-9418.149754
1185.120572,95.712904,95.712904,-9456.434915
1185.121200,76.570323,95.712904,-9456.434915
1185.121828,57.427742,114.855485,-9456.434915
1185.122456,76.570323,114.855485,-9418.149754
1185.123083,133.998066,210.568389,-9418.149754
1185.123711,38.285162,114.855485,-9456.434915
1185.124339,153.140646,153.140646,-9418.149754
1185.124966,133.998066,172.283227,-9437.292334
1185.125594,133.998066,114.855485,-9418.149754
1185.126222,76.570323,114.855485,-9418.149754
1185.126849,76.570323,114.855485,-9418.149754
1185.127477,133.998066,114.855485,-9437.292334
1185.128105,133.998066,172.283227,-9418.149754
1185.128733,133.998066,114.855485,-9418.149754
1185.129360,76.570323,153.140646,-9494.720077
1185.129988,76.570323,114.855485,-9418.149754
1185.130616,38.285162,114.855485,-9418.149754
1185.131243,95.712904,172.283227,-9456.434915
1185.131871,76.570323,114.855485,-9418.149754
1185.132499,133.998066,172.283227,-9418.149754
1185.133126,95.712904,210.568389,-9418.149754
1185.133754,133.998066,114.855485,-9456.434915
1185.134382,57.427742,95.712904,-9379.864592
1185.135009,76.570323,210.568389,-9418.149754
1185.135637,133.998066,133.998066,-9399.007173
1185.136265,133.998066,114.855485,-9437.292334
1185.136893,153.140646,172.283227,-9399.007173
1185.137520,76.570323,114.855485,-9418.149754
1185.138148,133.998066,172.283227,-9437.292334
1185.138776,76.570323,114.855485,-9437.292334
1185.139403,38.285162,210.568389,-9475.577496
1185.140031,57.427742,191.425808,-9360.722011
1185.140659,38.285162,210.568389,-9418.149754
1185.141286,38.285162,153.140646,-9437.292334
1185.141914,133.998066,114.855485,-9456.434915
1185.142542,76.570323,76.570323,-9379.864592
1185.143170,57.427742,95.712904,-9456.434915
1185.143797,133.998066,172.283227,-9418.149754
1185.144425,133.998066,191.425808,-9456.434915
1185.145053,133.998066,153.140646,-9418.149754
1185.145680,76.570323,153.140646,-9418.149754
1185.146308,133.998066,114.855485,-9418.149754
1185.146936,191.425808,133.998066,-9399.007173
1185.147563,76.570323,172.283227,-9418.149754
1185.148191,38.285162,172.283227,-9418.149754
1185.148819,38.285162,210.568389,-9494.720077
1185.149447,76.570323,210.568389,-9418.149754
1185.150074,19.142581,172.283227,-9418.149754
1185.150702,76.570323,172.283227,-9418.149754
1185.151330,133.998066,133.998066,-9494.720077
1185.151957,38.285162,114.855485,-9418.149754
1185.152585,76.570323,114.855485,-9418.149754
1185.153213,76.570323,229.710970,-9418.149754
1185.153840,133.998066,172.283227,-9494.720077
1185.154468,133.998066,114.855485,-9418.149754
1185.155096,38.285162,114.855485,-9418.149754
1185.155723,38.285162,114.855485,-9437.292334
1185.156351,76.570323,210.568389,-9360.722011
1185.156979,133.998066,172.283227,-9418.149754
1185.157607,76.570323,210.568389,-9437.292334
1185.158234,38.285162,210.568389,-9418.149754
1185.158862,133.998066,210.568389,-9418.149754
1185.159490,153.140646,210.568389,-9399.007173
1185.160117,153.140646,153.140646,-9437.292334
1185.160745,95.712904,153.140646,-9418.149754
1185.161373,133.998066,114.855485,-9418.149754
1185.162000,76.570323,153.140646,-9418.149754
1185.162628,133.998066,172.283227,-9418.149754
1185.163256,153.140646,153.140646,-9456.434915
1185.163884,153.140646,133.998066,-9456.434915
1185.164511,133.998066,114.855485,-9418.149754
1185.165139,133.998066,114.855485,-9418.149754
1185.165767,114.855485,95.712904,-9399.007173
1185.166394,153.140646,133.998066,-9456.434915
1185.167022,19.142581,114.855485,-9418.149754
1185.167650,76.570323,114.855485,-9418.149754
1185.168277,95.712904,114.855485,-9418.149754
1185.168905,38.285162,114.855485,-9418.149754
1185.169533,57.427742,114.855485,-9456.434915
1185.170161,38.285162,153.140646,-9475.577496
1185.170788,95.712904,153.140646,-9341.579430
1185.171416,133.998066,172.283227,-9418.149754
1185.172044,76.570323,191.425808,-9418.149754
1185.172671,76.570323,172.283227,-9418.149754
1185.173299,133.998066,114.855485,-9475.577496
1185.173927,133.998066,172.283227,-9437.292334
1185.174554,95.712904,114.855485,-9418.149754
1185.175182,153.140646,210.568389,-9456.434915
1185.175810,172.283227,76.570323,-9418.149754
1185.176437,153.140646,95.712904,-9360.722011
1185.177065,133.998066,172.283227,-9399.007173
1185.177693,76.570323,210.568389,-9418.149754
1185.178321,95.712904,172.283227,-9494.720077
1185.178948,38.285162,229.710970,-9475.577496
1185.179576,19.142581,153.140646,-9437.292334
1185.180204,38.285162,114.855485,-9456.434915
1185.180831,76.570323,114.855485,-9418.149754
1185.181459,133.998066,172.283227,-9418.149754
1185.182087,38.285162,114.855485,-9418.149754
1185.182714,38.285162,114.855485,-9456.434915
1185.183342,133.998066,114.855485,-9437.292334
1185.183970,95.712904,95.712904,-9399.007173
1185.184598,133.998066,114.855485,-9418.149754
1185.185225,114.855485,95.712904,-9399.007173
1185.185853,114.855485,95.712904,-9494.720077
1185.186481,95.712904,95.712904,-9513.862658
1185.187108,76.570323,210.568389,-9418.149754
1185.187736,38.285162,210.568389,-9418.149754
1185.188364,38.285162,153.140646,-9418.149754
1185.188991,133.998066,172.283227,-9456.434915
1185.189619,133.998066,133.998066,-9399.007173
1185.190247,95.712904,133.998066,-9360.722011
1185.190875,133.998066,153.140646,-9399.007173
1185.191502,76.570323,114.855485,-9418.149754
1185.192130,114.855485,76.570323,-9418.149754
1185.192758,76.570323,114.855485,-9418.149754
1185.193385,133.998066,114.855485,-9456.434915
1185.194013,133.998066,153.140646,-9418.149754
1185.194641,133.998066,114.855485,-9418.149754
1185.195268,114.855485,133.998066,-9360.722011
1185.195896,76.570323,172.283227,-9418.149754
1185.196524,76.570323,172.283227,-9475.577496
1185.197151,38.285162,114.855485,-9418.149754
1185.197779,76.570323,210.568389,-9418.149754
1185.198407,133.998066,114.855485,-9418.149754
1185.199035,76.570323,210.568389,-9418.149754
1185.199662,95.712904,114.855485,-9418.149754
1185.200290,76.570323,172.283227,-9475.577496
1185.200918,76.570323,210.568389,-9437.292334
1185.201545,76.570323,114.855485,-9418.149754
1185.202173,76.570323,172.283227,-9418.149754
1185.202801,133.998066,114.855485,-9418.149754
1185.203428,153.140646,133.998066,-9399.007173
1185.204056,153.140646,133.998066,-9399.007173
1185.204684,153.140646,133.998066,-9475.577496
1185.205312,153.140646,133.998066,-9399.007173
1185.205939,95.712904,172.283227,-9418.149754
1185.206567,76.570323,172.283227,-9418.149754
1185.207195,19.142581,153.140646,-9399.007173
1185.207822,76.570323,210.568389,-9418.149754
1185.208450,76.570323,191.425808,-9418.149754
1185.209078,38.285162,153.140646,-9418.149754
1185.209705,76.570323,172.283227,-9418.149754
1185.210333,133.998066,114.855485,-9437.292334
1185.210961,76.570323,114.855485,-9437.292334
1185.211589,76.570323,114.855485,-9399.007173
1185.212216,153.140646,114.855485,-9418.149754
1185.212843,172.283227,76.570323,-9418.149754
1185.213471,76.570323,114.855485,-9475.577496
1185.214098,172.283227,76.570323,-9475.577496
1185.214725,133.998066,114.855485,-9418.149754
1185.215352,133.998066,153.140646,-9418.149754
1185.215980,38.285162,210.568389,-9418.149754
1185.216607,95.712904,172.283227,-9360.722011
1185.217234,57.427742,133.998066,-9360.722011
1185.217861,76.570323,114.855485,-9418.149754
1185.218488,38.285162,153.140646,-9418.149754
1185.219116,114.855485,191.425808,-9360.722011
1185.219743,95.712904,133.998066,-9418.149754
1185.220370,38.285162,114.855485,-9418.149754
1185.220997,76.570323,114.855485,-9456.434915
1185.221625,76.570323,114.855485,-9437.292334
1185.222252,153.140646,133.998066,-9456.434915
1185.222879,153.140646,133.998066,-9437.292334
1185.223506,191.425808,76.570323,-9418.149754
1185.224133,133.998066,114.855485,-9475.577496
1185.224761,76.570323,114.855485,-9437.292334
1185.225388,38.285162,172.283227,-9418.149754
1185.226015,38.285162,114.855485,-9418.149754
1185.226642,38.285162,114.855485,-9437.292334
1185.227269,76.570323,114.855485,-9456.434915
1185.227897,76.570323,210.568389,-9418.149754
1185.228524,114.855485,133.998066,-9360.722011
1185.229151,114.855485,172.283227,-9360.722011
1185.229778,38.285162,153.140646,-9437.292334
1185.230406,38.285162,114.855485,-9418.149754
1185.231033,133.998066,114.855485,-9456.434915
1185.231660,191.425808,76.570323,-9437.292334
1185.232287,114.855485,95.712904,-9399.007173
1185.232914,76.570323,114.855485,-9437.292334
1185.233542,95.712904,95.712904,-9437.292334
1185.234169,133.998066,114.855485,-9418.149754
1185.234796,76.570323,172.283227,-9418.149754
1185.235423,38.285162,153.140646,-9437.292334
1185.236051,133.998066,153.140646,-9418.149754
1185.236678,133.998066,210.568389,-9418.149754
1185.237305,76.570323,114.855485,-9456.434915
1185.237932,95.712904,133.998066,-9360.722011
1185.238559,76.570323,153.140646,-9418.149754
1185.239187,76.570323,114.855485,-9437.292334
1185.239814,172.283227,133.998066,-9360.722011
1185.240441,210.568389,76.570323,-9418.149754
1185.241068,133.998066,114.855485,-9437.292334
1185.241696,153.140646,133.998066,-9399.007173
1185.242323,172.283227,76.570323,-9418.149754
1185.242950,172.283227,76.570323,-9418.149754
1185.243577,76.570323,114.855485,-9418.149754
1185.244204,76.570323,114.855485,-9418.149754
1185.244832,38.285162,153.140646,-9418.149754
1185.245459,76.570323,153.140646,-9418.149754
1185.246086,76.570323,114.855485,-9418.149754
1185.246713,153.140646,153.140646,-9399.007173
1185.247341,38.285162,153.140646,-9418.149754
1185.247968,95.712904,172.283227,-9418.149754
1185.248595,114.855485,153.140646,-9360.722011
1185.249222,114.855485,153.140646,-9360.722011
1185.249849,133.998066,114.855485,-9418.149754
1185.250477,153.140646,133.998066,-9399.007173
1185.251104,153.140646,133.998066,-9475.577496
1185.251731,133.998066,114.855485,-9418.149754
1185.252358,76.570323,153.140646,-9456.434915
1185.252985,133.998066,114.855485,-9437.292334
1185.253613,38.285162,153.140646,-9418.149754
1185.254240,38.285162,114.855485,-9418.149754
1185.254867,76.570323,114.855485,-9418.149754
1185.255494,114.855485,191.425808,-9360.722011
1185.256122,133.998066,172.283227,-9418.149754
1185.256749,95.712904,133.998066,-9418.149754
1185.257376,38.285162,229.710970,-9360.722011
1185.258003,38.285162,153.140646,-9418.149754
1185.258630,133.998066,114.855485,-9418.149754
1185.259258,172.283227,95.712904,-9399.007173
1185.259885,153.140646,114.855485,-9418.149754
1185.260512,153.140646,191.425808,-9418.149754
1185.261139,133.998066,210.568389,-9456.434915
1185.261767,76.570323,114.855485,-9475.577496
1185.262394,76.570323,114.855485,-9456.434915
1185.263021,76.570323,172.283227,-9475.577496
1185.263648,153.140646,153.140646,-9456.434915
1185.264275,133.998066,114.855485,-9437.292334
1185.264903,133.998066,114.855485,-9437.292334
1185.265530,76.570323,114.855485,-9418.149754
1185.266157,19.142581,114.855485,-9418.149754
1185.266784,57.427742,153.140646,-9437.292334
1185.267412,133.998066,114.855485,-9418.149754
1185.268039,133.998066,114.855485,-9418.149754
1185.268666,95.712904,76.570323,-9379.864592
1185.269293,76.570323,153.140646,-9437.292334
1185.269920,76.570323,153.140646,-9494.720077
1185.270548,133.998066,114.855485,-9475.577496
1185.271175,95.712904,95.712904,-9399.007173
1185.271802,38.285162,114.855485,-9418.149754
1185.272429,76.570323,114.855485,-9418.149754
1185.273057,153.140646,114.855485,-9456.434915
1185.273684,133.998066,210.568389,-9418.149754
1185.274311,133.998066,114.855485,-9418.149754
1185.274938,57.427742,114.855485,-9437.292334
1185.275565,76.570323,210.568389,-9456.434915
1185.276193,133.998066,210.568389,-9437.292334
1185.276820,38.285162,114.855485,-9418.149754
1185.277447,133.998066,114.855485,-9418.149754
1185.278074,133.998066,114.855485,-9418.149754
1185.278701,153.140646,133.998066,-9399.007173
1185.279329,133.998066,172.283227,-9418.149754
1185.279956,153.140646,191.425808,-9399.007173
1185.280583,133.998066,172.283227,-9475.577496
1185.281210,76.570323,210.568389,-9437.292334
1185.281838,153.140646,191.425808,-9399.007173
1185.282465,153.140646,153.140646,-9399.007173
1185.283092,76.570323,153.140646,-9437.292334
1185.283719,76.570323,153.140646,-9418.149754
1185.284346,76.570323,114.855485,-9418.149754
1185.284974,95.712904,153.140646,-9418.149754
1185.285601,95.712904,114.855485,-9475.577496
1185.286228,133.998066,114.855485,-9418.149754
1185.286855,95.712904,95.712904,-9513.862658
1185.287483,114.855485,95.712904,-9399.007173
1185.288110,133.998066,114.855485,-9437.292334
1185.288737,133.998066,210.568389,-9399.007173
1185.289364,76.570323,229.710970,-9475.577496
1185.289991,76.570323,153.140646,-9418.149754
1185.290619,153.140646,133.998066,-9399.007173
1185.291246,153.140646,133.998066,-9399.007173
1185.291873,172.283227,95.712904,-9399.007173
1185.292500,76.570323,114.855485,-9418.149754
1185.293128,38.285162,210.568389,-9437.292334
1185.293755,38.285162,210.568389,-9418.149754
1185.294382,76.570323,114.855485,-9418.149754
1185.295009,76.570323,114.855485,-9437.292334
1185.295636,133.998066,114.855485,-9418.149754
1185.296264,153.140646,133.998066,-9399.007173
1185.296891,133.998066,114.855485,-9437.292334
1185.297518,38.285162,114.855485,-9418.149754
1185.298145,153.140646,191.425808,-9456.434915
1185.298773,153.140646,210.568389,-9418.149754
1185.299400,114.855485,95.712904,-9456.434915
1185.300027,133.998066,172.283227,-9456.434915
1185.300654,76.570323,153.140646,-9418.149754
1185.301281,76.570323,114.855485,-9456.434915
1185.301909,38.285162,114.855485,-9418.149754
1185.302536,38.285162,114.855485,-9437.292334
1185.303163,38.285162,172.283227,-9418.149754
1185.303790,95.712904,114.855485,-9494.720077
1185.304417,95.712904,172.283227,-9494.720077
1185.305045,153.140646,133.998066,-9399.007173
1185.305672,114.855485,95.712904,-9494.720077
1185.306299,76.570323,114.855485,-9456.434915
1185.306926,38.285162,172.283227,-9418.149754
1185.307554,133.998066,210.568389,-9418.149754
1185.308181,76.570323,229.710970,-9399.007173
1185.308808,133.998066,114.855485,-9418.149754
1185.309435,153.140646,153.140646,-9399.007173
1185.310062,133.998066,133.998066,-9399.007173
1185.310690,114.855485,95.712904,-9456.434915
1185.311317,38.285162,114.855485,-9456.434915
1185.311944,76.570323,114.855485,-9437.292334
1185.312571,95.712904,114.855485,-9437.292334
1185.313199,133.998066,191.425808,-9475.577496
1185.313826,95.712904,153.140646,-9418.149754
1185.314453,133.998066,114.855485,-9456.434915
1185.315081,133.998066,133.998066,-9399.007173
1185.315708,76.570323,114.855485,-9437.292334
1185.316336,38.285162,229.710970,-9418.149754
1185.316963,76.570323,153.140646,-9418.149754
1185.317590,133.998066,153.140646,-9418.149754
1185.318218,114.855485,95.712904,-9399.007173
1185.318845,172.283227,76.570323,-9418.149754
1185.319472,95.712904,95.712904,-9437.292334
1185.320100,76.570323,114.855485,-9437.292334
1185.320727,38.285162,114.855485,-9418.149754
1185.321354,133.998066,153.140646,-9418.149754
1185.321982,133.998066,114.855485,-9475.577496
1185.322609,153.140646,133.998066,-9437.292334
1185.323237,114.855485,95.712904,-9437.292334
1185.323864,133.998066,114.855485,-9418.149754
1185.324491,76.570323,172.283227,-9437.292334
1185.325119,38.285162,210.568389,-9418.149754
1185.325746,57.427742,153.140646,-9475.577496
1185.326373,38.285162,210.568389,-9418.149754
1185.327001,38.285162,114.855485,-9456.434915
1185.327628,153.140646,133.998066,-9437.292334
1185.328255,95.712904,95.712904,-9399.007173
1185.328883,76.570323,172.283227,-9418.149754
1185.329510,76.570323,153.140646,-9437.292334
1185.330138,95.712904,172.283227,-9456.434915
1185.330765,133.998066,153.140646,-9418.149754
1185.331392,76.570323,114.855485,-9437.292334
1185.332020,38.285162,114.855485,-9418.149754
1185.332647,76.570323,114.855485,-9418.149754
1185.333274,38.285162,210.568389,-9437.292334
1185.333902,38.285162,114.855485,-9437.292334
1185.334529,38.285162,172.283227,-9418.149754
1185.335156,76.570323,114.855485,-9418.149754
1185.335784,76.570323,95.712904,-9399.007173
1185.336411,153.140646,133.998066,-9399.007173
1185.337039,133.998066,153.140646,-9437.292334
1185.337666,76.570323,172.283227,-9418.149754
1185.338293,38.285162,172.283227,-9418.149754
1185.338921,76.570323,153.140646,-9475.577496
1185.339548,38.285162,172.283227,-9418.149754
1185.340175,153.140646,133.998066,-9494.720077
1185.340803,114.855485,95.712904,-9437.292334
1185.341430,114.855485,76.570323,-9418.149754
1185.342057,133.998066,172.283227,-9456.434915
1185.342685,95.712904,210.568389,-9418.149754
1185.343312,76.570323,210.568389,-9418.149754
1185.343940,76.570323,210.568389,-9418.149754
1185.344567,76.570323,210.568389,-9418.149754
1185.345194,76.570323,114.855485,-9475.577496
1185.345822,133.998066,114.855485,-9418.149754
1185.346449,114.855485,133.998066,-9360.722011
1185.347076,19.142581,153.140646,-9418.149754
1185.347704,133.998066,153.140646,-9456.434915
1185.348331,38.285162,153.140646,-9456.434915
1185.348958,191.425808,76.570323,-9418.149754
1185.349586,133.998066,114.855485,-9456.434915
1185.350213,172.283227,76.570323,-9437.292334
1185.350841,133.998066,114.855485,-9437.292334
1185.351468,76.570323,210.568389,-9418.149754
1185.352095,76.570323,172.283227,-9437.292334
1185.352723,57.427742,210.568389,-9437.292334
1185.353350,76.570323,114.855485,-9456.434915
1185.353977,38.285162,114.855485,-9418.149754
1185.354605,133.998066,114.855485,-9456.434915
1185.355232,76.570323,153.140646,-9475.577496
1185.355859,76.570323,172.283227,-9437.292334
1185.356487,76.570323,153.140646,-9418.149754
1185.357114,133.998066,114.855485,-9418.149754
1185.357741,95.712904,95.712904,-9456.434915
1185.358369,153.140646,133.998066,-9437.292334
1185.358996,76.570323,172.283227,-9456.434915
1185.359624,153.140646,191.425808,-9456.434915
1185.360251,133.998066,172.283227,-9494.720077
1185.360878,38.285162,153.140646,-9456.434915
1185.361506,38.285162,114.855485,-9456.434915
1185.362133,38.285162,114.855485,-9418.149754
1185.362760,38.285162,114.855485,-9418.149754
1185.363388,76.570323,229.710970,-9456.434915
1185.364015,76.570323,229.710970,-9418.149754
1185.364642,95.712904,210.568389,-9418.149754
1185.365270,38.285162,114.855485,-9437.292334
1185.365897,133.998066,114.855485,-9437.292334
1185.366525,114.855485,95.712904,-9399.007173
1185.367152,133.998066,114.855485,-9437.292334
1185.367779,95.712904,114.855485,-9418.149754
1185.368407,76.570323,153.140646,-9418.149754
1185.369034,76.570323,114.855485,-9418.149754
1185.369661,76.570323,114.855485,-9418.149754
1185.370289,133.998066,210.568389,-9418.149754
1185.370916,38.285162,229.710970,-9494.720077
1185.371543,76.570323,210.568389,-9475.577496
1185.372171,38.285162,172.283227,-9456.434915
1185.372798,95.712904,210.568389,-9399.007173
1185.373426,76.570323,114.855485,-9437.292334
1185.374053,133.998066,153.140646,-9456.434915
1185.374680,153.140646,172.283227,-9399.007173
1185.375308,153.140646,191.425808,-9399.007173
1185.375935,153.140646,76.570323,-9437.292334
1185.376562,95.712904,95.712904,-9399.007173
1185.377190,153.140646,172.283227,-9399.007173
1185.377817,153.140646,172.283227,-9437.292334
1185.378444,76.570323,210.568389,-9418.149754
1185.379072,133.998066,172.283227,-9418.149754
1185.379699,133.998066,172.283227,-9418.149754
1185.380327,76.570323,210.568389,-9418.149754
1185.380954,76.570323,210.568389,-9437.292334
1185.381581,76.570323,114.855485,-9475.577496
1185.382209,76.570323,210.568389,-9418.149754
1185.382836,38.285162,210.568389,-9456.434915
1185.383463,153.140646,133.998066,-9399.007173
1185.384091,95.712904,95.712904,-9437.292334
1185.384718,76.570323,114.855485,-9437.292334
1185.385345,133.998066,172.283227,-9437.292334
1185.385973,38.285162,114.855485,-9418.149754
1185.386600,133.998066,114.855485,-9437.292334
1185.387228,95.712904,229.710970,-9475.577496
1185.387855,76.570323,210.568389,-9418.149754
1185.388482,76.570323,153.140646,-9418.149754
1185.389110,76.570323,172.283227,-9418.149754
1185.389737,76.570323,153.140646,-9418.149754
1185.390364,76.570323,114.855485,-9418.149754
1185.390992,57.427742,114.855485,-9456.434915
1185.391619,76.570323,114.855485,-9494.720077
1185.392246,114.855485,95.712904,-9456.434915
1185.392874,114.855485,38.285162,-9456.434915
1185.393501,76.570323,210.568389,-9475.577496
1185.394129,133.998066,153.140646,-9437.292334
1185.394756,76.570323,114.855485,-9456.434915
1185.395383,153.140646,133.998066,-9456.434915
1185.396011,153.140646,133.998066,-9456.434915
1185.396638,133.998066,114.855485,-9418.149754
1185.397265,172.283227,114.855485,-9379.864592
1185.397893,76.570323,191.425808,-9475.577496
1185.398520,133.998066,210.568389,-9437.292334
1185.399147,76.570323,229.710970,-9418.149754
1185.399775,38.285162,114.855485,-9533.005238
1185.400402,133.998066,114.855485,-9437.292334
1185.401030,153.140646,133.998066,-9399.007173
1185.401657,76.570323,153.140646,-9418.149754
1185.402284,95.712904,95.712904,-9437.292334
1185.402912,57.427742,133.998066,-9360.722011
1185.403539,38.285162,153.140646,-9418.149754
1185.404166,133.998066,172.283227,-9418.149754
1185.404794,133.998066,114.855485,-9418.149754
1185.405421,153.140646,172.283227,-9418.149754
1185.406048,57.427742,133.998066,-9418.149754
1185.406676,19.142581,191.425808,-9418.149754
1185.407303,38.285162,114.855485,-9418.149754
1185.407931,76.570323,114.855485,-9418.149754
1185.408558,76.570323,210.568389,-9418.149754
1185.409185,133.998066,114.855485,-9418.149754
1185.409813,153.140646,153.140646,-9399.007173
1185.410440,133.998066,114.855485,-9456.434915
1185.411067,133.998066,114.855485,-9437.292334
1185.411695,133.998066,172.283227,-9456.434915
1185.412322,133.998066,114.855485,-9475.577496
1185.412949,133.998066,191.425808,-9456.434915
1185.413577,133.998066,210.568389,-9475.577496
1185.414204,38.285162,114.855485,-9418.149754
1185.414832,38.285162,172.283227,-9418.149754
1185.415459,76.570323,172.283227,-9418.149754
1185.416087,76.570323,210.568389,-9418.149754
1185.416714,76.570323,210.568389,-9418.149754
1185.417341,133.998066,114.855485,-9418.149754
1185.417969,95.712904,133.998066,-9360.722011
1185.418596,38.285162,114.855485,-9437.292334
1185.419224,57.427742,114.855485,-9418.149754
1185.419851,38.285162,153.140646,-9418.149754
1185.420478,114.855485,95.712904,-9494.720077
1185.421106,95.712904,153.140646,-9418.149754
1185.421733,38.285162,210.568389,-9418.149754
1185.422361,133.998066,210.568389,-9360.722011
1185.422988,133.998066,191.425808,-9399.007173
1185.423615,172.283227,153.140646,-9456.434915
1185.424243,76.570323,114.855485,-9456.434915
1185.424870,95.712904,114.855485,-9437.292334
1185.425498,133.998066,153.140646,-9418.149754
1185.426125,95.712904,114.855485,-9437.292334
1185.426753,38.285162,114.855485,-9437.292334
1185.427380,95.712904,114.855485,-9437.292334
1185.428007,76.570323,153.140646,-9418.149754
1185.428635,76.570323,114.855485,-9418.149754
1185.429262,95.712904,172.283227,-9418.149754
1185.429890,19.142581,172.283227,-9418.149754
1185.430517,95.712904,133.998066,-9360.722011
1185.431144,76.570323,172.283227,-9418.149754
1185.431772,38.285162,133.998066,-9360.722011
1185.432399,76.570323,210.568389,-9418.149754
1185.433027,38.285162,114.855485,-9437.292334
1185.433654,133.998066,114.855485,-9418.149754
1185.434281,153.140646,172.283227,-9399.007173
1185.434909,114.855485,95.712904,-9399.007173
1185.435536,57.427742,95.712904,-9399.007173
1185.436164,133.998066,172.283227,-9418.149754
1185.436791,133.998066,133.998066,-9456.434915
1185.437418,133.998066,153.140646,-9399.007173
1185.438046,76.570323,172.283227,-9418.149754
1185.438673,133.998066,114.855485,-9456.434915
1185.439301,133.998066,114.855485,-9437.292334
1185.439928,95.712904,114.855485,-9399.007173
1185.440556,133.998066,153.140646,-9418.149754
1185.441183,133.998066,114.855485,-9418.149754
1185.441810,76.570323,114.855485,-9418.149754
1185.442438,95.712904,172.283227,-9360.722011
1185.443065,133.998066,153.140646,-9418.149754
1185.443693,76.570323,114.855485,-9437.292334
1185.444320,133.998066,210.568389,-9533.005238
1185.444947,95.712904,95.712904,-9399.007173
1185.445575,153.140646,114.855485,-9418.149754
1185.446202,133.998066,114.855485,-9437.292334
1185.446830,133.998066,114.855485,-9437.292334
1185.447457,76.570323,229.710970,-9418.149754
1185.448084,76.570323,210.568389,-9456.434915
1185.448712,133.998066,153.140646,-9418.149754
1185.449339,76.570323,114.855485,-9475.577496
1185.449967,114.855485,133.998066,-9360.722011
1185.450594,76.570323,114.855485,-9456.434915
1185.451222,133.998066,76.570323,-9379.864592
1185.451849,114.855485,95.712904,-9475.577496
1185.452476,133.998066,153.140646,-9418.149754
1185.453104,95.712904,172.283227,-9437.292334
1185.453731,76.570323,210.568389,-9418.149754
1185.454359,133.998066,172.283227,-9418.149754
1185.454986,57.427742,153.140646,-9418.149754
1185.455613,95.712904,153.140646,-9437.292334
1185.456241,76.570323,191.425808,-9456.434915
1185.456868,153.140646,191.425808,-9437.292334
1185.457496,76.570323,229.710970,-9418.149754
1185.458123,133.998066,114.855485,-9418.149754
1185.458750,133.998066,76.570323,-9379.864592
1185.459378,76.570323,114.855485,-9418.149754
1185.460005,133.998066,133.998066,-9399.007173
1185.460633,133.998066,95.712904,-9456.434915
1185.461260,153.140646,191.425808,-9456.434915
1185.461887,76.570323,210.568389,-9418.149754
1185.462515,133.998066,114.855485,-9437.292334
1185.463142,95.712904,133.998066,-9437.292334
1185.463770,114.855485,133.998066,-9360.722011
1185.464397,133.998066,153.140646,-9437.292334
1185.465025,76.570323,114.855485,-9418.149754
1185.465652,57.427742,172.283227,-9360.722011
1185.466279,38.285162,172.283227,-9418.149754
1185.466907,153.140646,133.998066,-9399.007173
1185.467534,95.712904,95.712904,-9399.007173
1185.468162,95.712904,95.712904,-9437.292334
1185.468789,76.570323,114.855485,-9418.149754
1185.469416,76.570323,114.855485,-9418.149754
1185.470044,76.570323,210.568389,-9418.149754
1185.470671,76.570323,114.855485,-9418.149754
1185.471299,76.570323,114.855485,-9494.720077
1185.471926,133.998066,172.283227,-9418.149754
1185.472553,153.140646,133.998066,-9513.862658
1185.473181,76.570323,114.855485,-9456.434915
1185.473808,76.570323,172.283227,-9437.292334
1185.474436,76.570323,114.855485,-9418.149754
1185.475063,38.285162,191.425808,-9418.149754
1185.475690,95.712904,133.998066,-9418.149754
1185.476318,114.855485,114.855485,-9399.007173
1185.476945,38.285162,210.568389,-9418.149754
1185.477573,114.855485,95.712904,-9437.292334
1185.478200,76.570323,191.425808,-9533.005238
1185.478828,95.712904,153.140646,-9456.434915
1185.479455,133.998066,172.283227,-9437.292334
1185.480082,114.855485,172.283227,-9360.722011
1185.480710,133.998066,153.140646,-9418.149754
1185.481337,38.285162,114.855485,-9418.149754
1185.481965,76.570323,210.568389,-9418.149754
1185.482592,76.570323,210.568389,-9418.149754
1185.483219,114.855485,133.998066,-9360.722011
1185.483847,133.998066,133.998066,-9399.007173
1185.484474,76.570323,114.855485,-9456.434915
1185.485102,133.998066,210.568389,-9418.149754
1185.485729,76.570323,114.855485,-9418.149754
1185.486356,153.140646,133.998066,-9437.292334
1185.486984,210.568389,133.998066,-9494.720077
1185.487611,114.855485,95.712904,-9399.007173
1185.488239,133.998066,172.283227,-9418.149754
1185.488866,76.570323,153.140646,-9437.292334
1185.489494,76.570323,172.283227,-9456.434915
1185.490121,95.712904,191.425808,-9418.149754
1185.490748,95.712904,191.425808,-9360.722011
1185.491376,76.570323,76.570323,-9379.864592
1185.492003,133.998066,76.570323,-9322.436850
1185.492631,76.570323,133.998066,-9360.722011
1185.493258,57.427742,95.712904,-9399.007173
1185.493885,76.570323,114.855485,-9418.149754
1185.494513,153.140646,191.425808,-9456.434915
1185.495140,133.998066,210.568389,-9456.434915
1185.495768,153.140646,172.283227,-9418.149754
1185.496395,76.570323,114.855485,-9418.149754
1185.497022,114.855485,95.712904,-9437.292334
1185.497650,133.998066,172.283227,-9437.292334
1185.498277,133.998066,248.853550,-9399.007173
1185.498905,153.140646,172.283227,-9399.007173
1185.499532,153.140646,133.998066,-9399.007173
1185.500159,133.998066,133.998066,-9399.007173
1185.500787,76.570323,95.712904,-9399.007173
1185.501414,114.855485,95.712904,-9399.007173
1185.502042,153.140646,172.283227,-9399.007173
1185.502669,38.285162,114.855485,-9418.149754
1185.503297,133.998066,210.568389,-9418.149754
1185.503924,133.998066,153.140646,-9399.007173
1185.504551,95.712904,133.998066,-9360.722011
1185.505179,38.285162,172.283227,-9418.149754
1185.505806,76.570323,114.855485,-9475.577496
1185.506434,76.570323,172.283227,-9437.292334
1185.507061,133.998066,210.568389,-9456.434915
1185.507688,153.140646,191.425808,-9456.434915
1185.508316,133.998066,153.140646,-9418.149754
1185.508943,76.570323,153.140646,-9437.292334
1185.509571,133.998066,153.140646,-9418.149754
1185.510198,153.140646,133.998066,-9437.292334
1185.510825,133.998066,133.998066,-9456.434915
1185.511453,133.998066,114.855485,-9418.149754
1185.512080,76.570323,114.855485,-9475.577496
1185.512708,38.285162,114.855485,-9475.577496
1185.513335,38.285162,172.283227,-9418.149754
1185.513962,76.570323,114.855485,-9437.292334
1185.514590,133.998066,153.140646,-9418.149754
1185.515217,133.998066,210.568389,-9418.149754
1185.515844,38.285162,210.568389,-9418.149754
1185.516472,19.142581,114.855485,-9418.149754
1185.517099,38.285162,114.855485,-9418.149754
1185.517727,133.998066,114.855485,-9437.292334
1185.518354,133.998066,153.140646,-9437.292334
1185.518981,153.140646,133.998066,-9456.434915
1185.519609,153.140646,133.998066,-9399.007173
1185.520236,38.285162,172.283227,-9475.577496
1185.520863,38.285162,95.712904,-9399.007173
1185.521491,38.285162,153.140646,-9418.149754
1185.522118,38.285162,114.855485,-9456.434915
1185.522745,95.712904,114.855485,-9437.292334
1185.523373,133.998066,114.855485,-9475.577496
1185.524000,153.140646,133.998066,-9437.292334
1185.524627,95.712904,153.140646,-9418.149754
1185.525255,76.570323,114.855485,-9418.149754
1185.525882,76.570323,95.712904,-9399.007173
1185.526509,114.855485,153.140646,-9360.722011
1185.527137,19.142581,172.283227,-9456.434915
1185.527764,76.570323,153.140646,-9418.149754
1185.528391,76.570323,191.425808,-9437.292334
1185.529019,133.998066,172.283227,-9456.434915
1185.529646,95.712904,95.712904,-9379.864592
1185.530273,19.142581,153.140646,-9456.434915
1185.530901,38.285162,210.568389,-9437.292334
1185.531528,76.570323,210.568389,-9418.149754
1185.532155,38.285162,172.283227,-9418.149754
1185.532783,76.570323,114.855485,-9494.720077
1185.533410,95.712904,114.855485,-9437.292334
1185.534038,133.998066,153.140646,-9418.149754
1185.534665,38.285162,172.283227,-9418.149754
1185.535292,76.570323,153.140646,-9418.149754
1185.535920,114.855485,267.996131,-9418.149754
1185.536547,172.283227,114.855485,-9322.436850
1185.537174,133.998066,133.998066,-9399.007173
1185.537802,76.570323,114.855485,-9360.722011
1185.538429,57.427742,95.712904,-9399.007173
1185.539056,57.427742,95.712904,-9399.007173
1185.539684,19.142581,191.425808,-9399.007173
1185.540311,38.285162,153.140646,-9418.149754
1185.540938,114.855485,133.998066,-9360.722011
1185.541566,38.285162,76.570323,-9379.864592
1185.542193,76.570323,114.855485,-9418.149754
1185.542820,95.712904,114.855485,-9399.007173
1185.543448,76.570323,114.855485,-9494.720077
1185.544075,76.570323,191.425808,-9418.149754
1185.544702,38.285162,210.568389,-9437.292334
1185.545330,133.998066,191.425808,-9418.149754
1185.545957,133.998066,153.140646,-9418.149754
1185.546584,76.570323,210.568389,-9494.720077
1185.547212,76.570323,191.425808,-9494.720077
1185.547839,133.998066,114.855485,-9418.149754
1185.548466,38.285162,153.140646,-9418.149754
1185.549094,0.000000,95.712904,-9399.007173
1185.549721,38.285162,114.855485,-9418.149754
1185.550348,38.285162,114.855485,-9475.577496
1185.550976,133.998066,95.712904,-9418.149754
1185.551603,191.425808,133.998066,-9399.007173
1185.552231,210.568389,172.283227,-9399.007173
1185.552858,133.998066,114.855485,-9418.149754
1185.553485,0.000000,172.283227,-9399.007173
1185.554113,19.142581,191.425808,-9437.292334
1185.554740,38.285162,210.568389,-9437.292334
1185.555367,76.570323,114.855485,-9418.149754
1185.555995,133.998066,172.283227,-9418.149754
1185.556622,153.140646,153.140646,-9399.007173
1185.557249,133.998066,153.140646,-9418.149754
1185.557877,133.998066,114.855485,-9418.149754
1185.558504,76.570323,210.568389,-9437.292334
1185.559131,76.570323,172.283227,-9418.149754
1185.559759,153.140646,172.283227,-9533.005238
1185.560386,114.855485,153.140646,-9533.005238
1185.561013,172.283227,76.570323,-9533.005238
1185.561641,76.570323,114.855485,-9456.434915
1185.562268,38.285162,114.855485,-9418.149754
1185.562895,38.285162,229.710970,-9418.149754
1185.563523,38.285162,229.710970,-9475.577496
1185.564150,153.140646,172.283227,-9494.720077
1185.564777,133.998066,114.855485,-9418.149754
1185.565405,153.140646,133.998066,-9399.007173
1185.566032,76.570323,172.283227,-9418.149754
1185.566659,38.285162,114.855485,-9418.149754
1185.567287,38.285162,153.140646,-9418.149754
1185.567914,38.285162,153.140646,-9418.149754
1185.568542,133.998066,172.283227,-9437.292334
1185.569169,153.140646,133.998066,-9399.007173
1185.569796,172.283227,76.570323,-9418.149754
1185.570424,114.855485,95.712904,-9437.292334
1185.571051,38.285162,114.855485,-9418.149754
1185.571678,38.285162,172.283227,-9437.292334
1185.572306,76.570323,114.855485,-9437.292334
1185.572933,95.712904,114.855485,-9437.292334
1185.573560,114.855485,95.712904,-9475.577496
1185.574188,172.283227,76.570323,-9418.149754
1185.574815,153.140646,133.998066,-9399.007173
1185.575442,76.570323,114.855485,-9418.149754
1185.576070,95.712904,172.283227,-9360.722011
1185.576697,38.285162,229.710970,-9418.149754
1185.577324,76.570323,210.568389,-9418.149754
1185.577952,133.998066,172.283227,-9418.149754
1185.578579,133.998066,114.855485,-9533.005238
1185.579206,133.998066,114.855485,-9418.149754
1185.579834,76.570323,153.140646,-9418.149754
1185.580461,57.427742,191.425808,-9360.722011
1185.581088,38.285162,153.140646,-9418.149754
1185.581716,38.285162,114.855485,-9418.149754
1185.582343,133.998066,114.855485,-9418.149754
1185.582970,76.570323,114.855485,-9437.292334
1185.583598,95.712904,95.712904,-9475.577496
1185.584225,19.142581,133.998066,-9399.007173
1185.584852,95.712904,172.283227,-9437.292334
1185.585480,133.998066,229.710970,-9437.292334
1185.586107,153.140646,191.425808,-9456.434915
1185.586735,38.285162,114.855485,-9494.720077
1185.587362,153.140646,133.998066,-9494.720077
1185.587989,153.140646,133.998066,-9456.434915
1185.588617,114.855485,95.712904,-9399.007173
1185.589244,153.140646,133.998066,-9399.007173
1185.589871,76.570323,153.140646,-9418.149754
1185.590499,19.142581,210.568389,-9456.434915
1185.591126,95.712904,114.855485,-9456.434915
1185.591753,133.998066,172.283227,-9475.577496
1185.592381,153.140646,114.855485,-9533.005238
1185.593008,153.140646,133.998066,-9437.292334
1185.593635,114.855485,76.570323,-9418.149754
1185.594263,76.570323,210.568389,-9456.434915
1185.594890,19.142581,210.568389,-9418.149754
1185.595517,57.427742,133.998066,-9360.722011
1185.596145,114.855485,133.998066,-9360.722011
1185.596772,172.283227,95.712904,-9399.007173
1185.597399,114.855485,114.855485,-9379.864592
1185.598027,114.855485,95.712904,-9399.007173
1185.598654,19.142581,153.140646,-9418.149754
1185.599281,19.142581,248.853550,-9456.434915
1185.599909,19.142581,210.568389,-9418.149754
1185.600536,172.283227,76.570323,-9418.149754
1185.601163,153.140646,133.998066,-9456.434915
1185.601791,210.568389,133.998066,-9513.862658
1185.602418,95.712904,95.712904,-9494.720077
1185.603046,76.570323,114.855485,-9418.149754
1185.603673,114.855485,191.425808,-9437.292334
1185.604300,57.427742,95.712904,-9437.292334
1185.604928,133.998066,114.855485,-9494.720077
1185.605555,172.283227,76.570323,-9418.149754
1185.606182,133.998066,133.998066,-9399.007173
1185.606810,133.998066,133.998066,-9418.149754
1185.607437,38.285162,172.283227,-9418.149754
1185.608064,0.000000,133.998066,-9360.722011
1185.608692,57.427742,172.283227,-9360.722011
1185.609319,114.855485,133.998066,-9360.722011
1185.609946,153.140646,153.140646,-9437.292334
1185.610574,133.998066,133.998066,-9456.434915
1185.611201,76.570323,114.855485,-9475.577496
1185.611828,38.285162,114.855485,-9418.149754
1185.612456,38.285162,172.283227,-9418.149754
1185.613083,57.427742,114.855485,-9456.434915
1185.613710,153.140646,172.283227,-9399.007173
1185.614338,76.570323,153.140646,-9418.149754
1185.614965,133.998066,153.140646,-9437.292334
1185.615592,38.285162,114.855485,-9418.149754
1185.616220,57.427742,95.712904,-9399.007173
1185.616847,38.285162,172.283227,-9418.149754
1185.617474,95.712904,114.855485,-9437.292334
1185.618102,76.570323,210.568389,-9437.292334
1185.618729,76.570323,114.855485,-9437.292334
1185.619356,153.140646,133.998066,-9437.292334
1185.619984,172.283227,76.570323,-9418.149754
1185.620611,114.855485,114.855485,-9379.864592
1185.621238,133.998066,191.425808,-9399.007173
1185.621866,95.712904,153.140646,-9360.722011
1185.622493,95.712904,191.425808,-9360.722011
1185.623120,133.998066,153.140646,-9418.149754
1185.623748,172.283227,76.570323,-9418.149754
1185.624375,153.140646,133.998066,-9399.007173
1185.625002,133.998066,153.140646,-9399.007173
1185.625630,57.427742,210.568389,-9456.434915
1185.626257,38.285162,153.140646,-9437.292334
1185.626884,38.285162,210.568389,-9418.149754
1185.627512,133.998066,114.855485,-9418.149754
1185.628139,114.855485,95.712904,-9399.007173
1185.628767,172.283227,76.570323,-9418.149754
1185.629394,172.283227,133.998066,-9418.149754
1185.630021,76.570323,210.568389,-9418.149754
1185.630649,76.570323,210.568389,-9437.292334
1185.631276,38.285162,172.283227,-9418.149754
1185.631903,38.285162,153.140646,-9456.434915
1185.632531,95.712904,114.855485,-9475.577496
1185.633158,133.998066,114.855485,-9475.577496
1185.633785,133.998066,133.998066,-9399.007173
1185.634413,133.998066,153.140646,-9399.007173
1185.635040,57.427742,153.140646,-9418.149754
1185.635667,38.285162,153.140646,-9418.149754
1185.636295,133.998066,210.568389,-9418.149754
1185.636922,133.998066,114.855485,-9418.149754
1185.637549,153.140646,133.998066,-9399.007173
1185.638177,153.140646,133.998066,-9399.007173
1185.638804,95.712904,95.712904,-9494.720077
1185.639431,19.142581,172.283227,-9418.149754
1185.640059,38.285162,114.855485,-9456.434915
1185.640686,76.570323,114.855485,-9437.292334
1185.641313,153.140646,153.140646,-9399.007173
1185.641941,114.855485,95.712904,-9399.007173
1185.642568,133.998066,114.855485,-9418.149754
1185.643195,76.570323,172.283227,-9418.149754
1185.643823,57.427742,210.568389,-9360.722011
1185.644450,38.285162,153.140646,-9418.149754
1185.645077,133.998066,191.425808,-9399.007173
1185.645705,114.855485,172.283227,-9360.722011
1185.646332,76.570323,114.855485,-9418.149754
1185.646959,114.855485,95.712904,-9399.007173
1185.647587,133.998066,114.855485,-9494.720077
1185.648214,133.998066,153.140646,-9456.434915
1185.648841,172.283227,229.710970,-9379.864592
1185.649469,133.998066,153.140646,-9399.007173
1185.650096,76.570323,114.855485,-9418.149754
1185.650723,57.427742,95.712904,-9399.007173
1185.651351,95.712904,95.712904,-9399.007173
1185.651978,114.855485,95.712904,-9399.007173
1185.652605,76.570323,172.283227,-9418.149754
1185.653233,38.285162,210.568389,-9456.434915
1185.653860,95.712904,172.283227,-9418.149754
1185.654487,114.855485,95.712904,-9399.007173
1185.655115,191.425808,76.570323,-9418.149754
1185.655742,191.425808,133.998066,-9399.007173
1185.656369,76.570323,191.425808,-9418.149754
1185.656997,76.570323,153.140646,-9418.149754
1185.657624,133.998066,114.855485,-9418.149754
1185.658251,133.998066,114.855485,-9418.149754
1185.658879,153.140646,153.140646,-9399.007173
1185.659506,133.998066,153.140646,-9418.149754
1185.660133,76.570323,172.283227,-9418.149754
1185.660761,133.998066,172.283227,-9418.149754
1185.661388,133.998066,114.855485,-9418.149754
1185.662015,95.712904,172.283227,-9360.722011
1185.662643,57.427742,114.855485,-9418.149754
1185.663270,38.285162,114.855485,-9437.292334
1185.663898,76.570323,172.283227,-9418.149754
1185.664525,133.998066,114.855485,-9418.149754
1185.665152,133.998066,114.855485,-9418.149754
1185.665780,76.570323,114.855485,-9494.720077
1185.666407,19.142581,153.140646,-9418.149754
1185.667034,38.285162,114.855485,-9437.292334
1185.667662,133.998066,210.568389,-9418.149754
1185.668289,153.140646,191.425808,-9379.864592
1185.668916,95.712904,95.712904,-9399.007173
1185.669544,38.285162,114.855485,-9418.149754
1185.670171,19.142581,153.140646,-9418.149754
1185.670798,38.285162,153.140646,-9418.149754
1185.671426,76.570323,210.568389,-9437.292334
1185.672053,133.998066,210.568389,-9494.720077
1185.672680,76.570323,114.855485,-9456.434915
1185.673308,76.570323,114.855485,-9418.149754
1185.673935,95.712904,95.712904,-9399.007173
1185.674562,38.285162,114.855485,-9418.149754
1185.675190,76.570323,172.283227,-9418.149754
1185.675817,38.285162,172.283227,-9475.577496
1185.676444,57.427742,114.855485,-9437.292334
1185.677072,57.427742,95.712904,-9399.007173
1185.677699,133.998066,114.855485,-9418.149754
1185.678326,133.998066,248.853550,-9494.720077
1185.678954,76.570323,114.855485,-9418.149754
1185.679581,38.285162,114.855485,-9475.577496
1185.680208,76.570323,114.855485,-9418.149754
1185.680836,76.570323,114.855485,-9418.149754
1185.681463,133.998066,114.855485,-9418.149754
1185.682090,95.712904,172.283227,-9418.149754
1185.682718,133.998066,210.568389,-9437.292334
1185.683345,76.570323,210.568389,-9456.434915
1185.683972,38.285162,114.855485,-9418.149754
1185.684600,114.855485,133.998066,-9418.149754
1185.685227,76.570323,172.283227,-9399.007173
1185.685854,76.570323,114.855485,-9475.577496
1185.686482,19.142581,172.283227,-9399.007173
1185.687109,38.285162,114.855485,-9418.149754
1185.687736,38.285162,114.855485,-9437.292334
1185.688364,95.712904,114.855485,-9437.292334
1185.688991,133.998066,76.570323,-9379.864592
1185.689618,133.998066,172.283227,-9437.292334
1185.690246,133.998066,191.425808,-9418.149754
1185.690873,95.712904,229.710970,-9418.149754
1185.691500,95.712904,114.855485,-9418.149754
1185.692128,133.998066,114.855485,-9456.434915
1185.692755,76.570323,114.855485,-9418.149754
1185.693382,114.855485,153.140646,-9418.149754
1185.694010,153.140646,172.283227,-9399.007173
1185.694637,76.570323,114.855485,-9418.149754
1185.695264,153.140646,114.855485,-9437.292334
1185.695892,95.712904,95.712904,-9456.434915
1185.696519,76.570323,114.855485,-9418.149754
1185.697146,76.570323,114.855485,-9418.149754
1185.697774,133.998066,153.140646,-9437.292334
1185.698401,172.283227,76.570323,-9418.149754
1185.699028,133.998066,172.283227,-9418.149754
1185.699656,38.285162,114.855485,-9437.292334
1185.700283,38.285162,172.283227,-9418.149754
1185.700911,95.712904,133.998066,-9360.722011
1185.701538,172.283227,133.998066,-9418.149754
1185.702165,210.568389,153.140646,-9475.577496
1185.702793,76.570323,114.855485,-9437.292334
1185.703420,38.285162,172.283227,-9418.149754
1185.704047,19.142581,114.855485,-9456.434915
1185.704675,57.427742,133.998066,-9360.722011
1185.705302,76.570323,114.855485,-9418.149754
1185.705929,133.998066,133.998066,-9399.007173
1185.706557,38.285162,172.283227,-9418.149754
1185.707184,38.285162,153.140646,-9418.149754
1185.707811,76.570323,95.712904,-9399.007173
1185.708439,76.570323,114.855485,-9456.434915
1185.709066,76.570323,76.570323,-9379.864592
1185.709693,76.570323,153.140646,-9418.149754
1185.710321,76.570323,153.140646,-9418.149754
1185.710948,133.998066,114.855485,-9418.149754
1185.711575,153.140646,172.283227,-9399.007173
1185.712203,133.998066,153.140646,-9418.149754
1185.712830,172.283227,210.568389,-9379.864592
1185.713457,38.285162,210.568389,-9418.149754
1185.714085,153.140646,210.568389,-9418.149754
1185.714712,153.140646,153.140646,-9399.007173
1185.715339,153.140646,114.855485,-9418.149754
1185.715966,153.140646,133.998066,-9456.434915
1185.716593,38.285162,210.568389,-9418.149754
1185.717221,57.427742,172.283227,-9475.577496
1185.717848,95.712904,153.140646,-9418.149754
1185.718475,114.855485,95.712904,-9456.434915
1185.719102,153.140646,133.998066,-9494.720077
1185.719729,76.570323,172.283227,-9456.434915
1185.720357,76.570323,229.710970,-9437.292334
1185.720984,57.427742,229.710970,-9437.292334
1185.721611,38.285162,172.283227,-9418.149754
1185.722238,95.712904,114.855485,-9418.149754
1185.722865,191.425808,133.998066,-9399.007173
1185.723492,153.140646,191.425808,-9494.720077
1185.724120,95.712904,153.140646,-9475.577496
1185.724747,133.998066,133.998066,-9456.434915
1185.725374,76.570323,114.855485,-9456.434915
1185.726001,76.570323,114.855485,-9437.292334
1185.726628,38.285162,114.855485,-9418.149754
1185.727256,95.712904,191.425808,-9418.149754
1185.727883,153.140646,153.140646,-9399.007173
1185.728510,133.998066,248.853550,-9513.862658
1185.729137,76.570323,114.855485,-9437.292334
1185.729764,76.570323,153.140646,-9418.149754
1185.730392,57.427742,248.853550,-9360.722011
1185.731019,38.285162,153.140646,-9437.292334
1185.731646,172.283227,210.568389,-9379.864592
1185.732273,153.140646,133.998066,-9399.007173
1185.732900,133.998066,114.855485,-9418.149754
1185.733528,95.712904,153.140646,-9341.579430
1185.734155,57.427742,153.140646,-9360.722011
1185.734782,76.570323,114.855485,-9418.149754
1185.735409,57.427742,172.283227,-9437.292334
1185.736036,38.285162,114.855485,-9418.149754
1185.736663,57.427742,95.712904,-9399.007173
1185.737291,133.998066,114.855485,-9418.149754
1185.737918,114.855485,133.998066,-9475.577496
1185.738545,76.570323,114.855485,-9456.434915
1185.739172,153.140646,210.568389,-9456.434915
1185.739799,76.570323,172.283227,-9494.720077
1185.740427,38.285162,153.140646,-9437.292334
1185.741054,95.712904,95.712904,-9456.434915
1185.741681,133.998066,114.855485,-9437.292334
1185.742308,133.998066,210.568389,-9456.434915
1185.742935,76.570323,114.855485,-9418.149754
1185.743563,38.285162,153.140646,-9418.149754
1185.744190,95.712904,172.283227,-9437.292334
1185.744817,133.998066,114.855485,-9418.149754
1185.745444,114.855485,172.283227,-9341.579430
1185.746071,133.998066,114.855485,-9418.149754
1185.746699,38.285162,114.855485,-9418.149754
1185.747326,38.285162,114.855485,-9475.577496
1185.747953,76.570323,172.283227,-9437.292334
1185.748580,133.998066,114.855485,-9418.149754
1185.749207,95.712904,114.855485,-9456.434915
1185.749835,133.998066,153.140646,-9437.292334
1185.750462,76.570323,172.283227,-9418.149754
1185.751089,76.570323,114.855485,-9437.292334
1185.751716,38.285162,114.855485,-9418.149754
1185.752343,114.855485,133.998066,-9360.722011
1185.752970,95.712904,95.712904,-9475.577496
1185.753598,76.570323,114.855485,-9456.434915
1185.754225,38.285162,114.855485,-9494.720077
1185.754852,76.570323,210.568389,-9418.149754
1185.755479,95.712904,114.855485,-9456.434915
1185.756106,133.998066,172.283227,-9456.434915
1185.756734,114.855485,114.855485,-9379.864592
1185.757361,76.570323,114.855485,-9456.434915
1185.757988,133.998066,153.140646,-9360.722011
1185.758615,38.285162,114.855485,-9418.149754
1185.759242,95.712904,133.998066,-9360.722011
1185.759870,38.285162,114.855485,-9437.292334
1185.760497,38.285162,114.855485,-9418.149754
1185.761124,95.712904,114.855485,-9399.007173
1185.761751,76.570323,114.855485,-9418.149754
1185.762378,76.570323,95.712904,-9399.007173
1185.763006,133.998066,114.855485,-9418.149754
1185.763633,133.998066,210.568389,-9418.149754
1185.764260,133.998066,210.568389,-9418.149754
1185.764887,133.998066,229.710970,-9456.434915
1185.765514,76.570323,153.140646,-9418.149754
1185.766141,153.140646,114.855485,-9418.149754
1185.766769,95.712904,153.140646,-9418.149754
1185.767396,114.855485,229.710970,-9399.007173
1185.768023,76.570323,114.855485,-9456.434915
1185.768650,95.712904,114.855485,-9437.292334
1185.769277,38.285162,153.140646,-9418.149754
1185.769905,133.998066,76.570323,-9379.864592
1185.770532,114.855485,95.712904,-9399.007173
1185.771159,172.283227,133.998066,-9437.292334
1185.771786,153.140646,133.998066,-9399.007173
1185.772413,38.285162,114.855485,-9475.577496
1185.773041,95.712904,114.855485,-9418.149754
1185.773668,133.998066,172.283227,-9456.434915
1185.774295,172.283227,95.712904,-9437.292334
1185.774922,153.140646,153.140646,-9399.007173
1185.775549,133.998066,172.283227,-9399.007173
1185.776177,76.570323,153.140646,-9418.149754
1185.776804,76.570323,114.855485,-9418.149754
1185.777431,114.855485,133.998066,-9360.722011
1185.778058,133.998066,114.855485,-9418.149754
1185.778685,133.998066,133.998066,-9437.292334
1185.779312,76.570323,191.425808,-9418.149754
1185.779940,133.998066,210.568389,-9475.577496
1185.780567,76.570323,153.140646,-9418.149754
1185.781194,153.140646,133.998066,-9399.007173
1185.781821,153.140646,133.998066,-9456.434915
1185.782448,133.998066,172.283227,-9399.007173
1185.783076,114.855485,95.712904,-9494.720077
1185.783703,153.140646,172.283227,-9456.434915
1185.784330,76.570323,210.568389,-9437.292334
1185.784957,114.855485,95.712904,-9437.292334
1185.785584,133.998066,114.855485,-9418.149754
1185.786212,76.570323,172.283227,-9418.149754
1185.786839,133.998066,153.140646,-9475.577496
1185.787466,133.998066,153.140646,-9456.434915
1185.788093,76.570323,153.140646,-9418.149754
1185.788720,76.570323,114.855485,-9437.292334
1185.789348,76.570323,114.855485,-9418.149754
1185.789975,76.570323,172.283227,-9456.434915
1185.790602,76.570323,172.283227,-9475.577496
1185.791229,38.285162,172.283227,-9418.149754
1185.791856,114.855485,133.998066,-9341.579430
1185.792483,133.998066,210.568389,-9418.149754
1185.793111,38.285162,114.855485,-9437.292334
1185.793738,38.285162,114.855485,-9437.292334
1185.794365,76.570323,114.855485,-9418.149754
1185.794992,133.998066,210.568389,-9418.149754
1185.795619,38.285162,114.855485,-9418.149754
1185.796247,95.712904,133.998066,-9418.149754
1185.796874,76.570323,114.855485,-9418.149754
1185.797501,76.570323,153.140646,-9418.149754
1185.798128,133.998066,210.568389,-9437.292334
1185.798755,114.855485,133.998066,-9360.722011
1185.799383,133.998066,114.855485,-9418.149754
1185.800010,153.140646,133.998066,-9437.292334
1185.800637,153.140646,133.998066,-9475.577496
1185.801264,133.998066,210.568389,-9456.434915
1185.801891,133.998066,172.283227,-9399.007173
1185.802519,95.712904,153.140646,-9360.722011
1185.803146,133.998066,153.140646,-9399.007173
1185.803773,95.712904,133.998066,-9360.722011
1185.804400,38.285162,114.855485,-9418.149754
1185.805027,76.570323,114.855485,-9418.149754
1185.805654,76.570323,172.283227,-9418.149754
1185.806282,76.570323,114.855485,-9418.149754
1185.806909,38.285162,114.855485,-9437.292334
1185.807536,95.712904,153.140646,-9418.149754
1185.808163,76.570323,153.140646,-9437.292334
1185.808790,76.570323,153.140646,-9456.434915
1185.809418,76.570323,229.710970,-9418.149754
1185.810045,76.570323,114.855485,-9418.149754
1185.810672,133.998066,248.853550,-9379.864592
1185.811299,95.712904,114.855485,-9456.434915
1185.811926,172.283227,153.140646,-9418.149754
1185.812554,76.570323,210.568389,-9437.292334
1185.813181,38.285162,210.568389,-9437.292334
1185.813808,153.140646,133.998066,-9494.720077
1185.814435,153.140646,114.855485,-9456.434915
1185.815062,172.283227,172.283227,-9360.722011
1185.815689,153.140646,133.998066,-9437.292334
1185.816317,133.998066,133.998066,-9437.292334
1185.816944,95.712904,133.998066,-9360.722011
1185.817571,153.140646,114.855485,-9418.149754
1185.818198,95.712904,114.855485,-9418.149754
1185.818825,38.285162,114.855485,-9418.149754
1185.819452,19.142581,114.855485,-9437.292334
1185.820079,76.570323,172.283227,-9418.149754
1185.820706,38.285162,114.855485,-9418.149754
1185.821334,133.998066,114.855485,-9418.149754
1185.821961,133.998066,153.140646,-9418.149754
1185.822588,76.570323,153.140646,-9437.292334
1185.823215,76.570323,114.855485,-9475.577496
1185.823842,133.998066,114.855485,-9418.149754
1185.824469,172.283227,114.855485,-9399.007173
1185.825096,133.998066,114.855485,-9418.149754
1185.825723,76.570323,114.855485,-9418.149754
1185.826351,95.712904,114.855485,-9437.292334
1185.826978,76.570323,153.140646,-9437.292334
1185.827605,76.570323,153.140646,-9418.149754
1185.828232,76.570323,210.568389,-9494.720077
1185.828859,76.570323,210.568389,-9456.434915
1185.829486,76.570323,210.568389,-9418.149754
1185.830113,57.427742,153.140646,-9418.149754
1185.830740,38.285162,114.855485,-9437.292334
1185.831368,38.285162,133.998066,-9399.007173
1185.831995,133.998066,114.855485,-9418.149754
1185.832622,76.570323,114.855485,-9418.149754
1185.833249,133.998066,114.855485,-9437.292334
1185.833876,153.140646,133.998066,-9399.007173
1185.834503,153.140646,133.998066,-9399.007173
1185.835130,114.855485,172.283227,-9418.149754
1185.835757,133.998066,210.568389,-9418.149754
1185.836385,38.285162,114.855485,-9437.292334
1185.837012,76.570323,210.568389,-9437.292334
1185.837639,95.712904,210.568389,-9418.149754
1185.838266,153.140646,172.283227,-9399.007173
1185.838893,153.140646,133.998066,-9456.434915
1185.839520,153.140646,133.998066,-9399.007173
1185.840147,114.855485,95.712904,-9399.007173
1185.840774,76.570323,114.855485,-9437.292334
1185.841402,114.855485,95.712904,-9399.007173
1185.842029,133.998066,114.855485,-9418.149754
1185.842656,153.140646,191.425808,-9399.007173
1185.843283,133.998066,172.283227,-9456.434915
1185.843910,133.998066,114.855485,-9418.149754
1185.844537,153.140646,153.140646,-9456.434915
1185.845164,133.998066,172.283227,-9418.149754
1185.845791,133.998066,114.855485,-9418.149754
1185.846419,153.140646,133.998066,-9399.007173
1185.847046,95.712904,95.712904,-9399.007173
1185.847673,0.000000,95.712904,-9399.007173
1185.848300,38.285162,114.855485,-9418.149754
1185.848927,95.712904,114.855485,-9418.149754
1185.849554,76.570323,210.568389,-9418.149754
1185.850181,38.285162,153.140646,-9418.149754
1185.850808,95.712904,191.425808,-9360.722011
1185.851436,95.712904,114.855485,-9418.149754
1185.852063,76.570323,114.855485,-9418.149754
1185.852690,76.570323,114.855485,-9494.720077
1185.853317,153.140646,133.998066,-9399.007173
1185.853944,76.570323,172.283227,-9418.149754
1185.854571,38.285162,114.855485,-9437.292334
1185.855198,38.285162,114.855485,-9418.149754
1185.855825,76.570323,114.855485,-9494.720077
1185.856453,133.998066,172.283227,-9456.434915
1185.857080,191.425808,191.425808,-9437.292334
1185.857707,133.998066,114.855485,-9418.149754
1185.858334,76.570323,114.855485,-9456.434915
1185.858961,76.570323,172.283227,-9418.149754
1185.859588,95.712904,95.712904,-9399.007173
1185.860215,114.855485,95.712904,-9399.007173
1185.860843,133.998066,172.283227,-9418.149754
1185.861470,76.570323,172.283227,-9437.292334
1185.862097,133.998066,114.855485,-9418.149754
1185.862724,133.998066,114.855485,-9437.292334
1185.863351,210.568389,133.998066,-9399.007173
1185.863978,133.998066,172.283227,-9456.434915
1185.864605,133.998066,114.855485,-9418.149754
1185.865232,57.427742,114.855485,-9494.720077
1185.865860,76.570323,114.855485,-9418.149754
1185.866487,210.568389,172.283227,-9399.007173
1185.867114,133.998066,114.855485,-9418.149754
1185.867741,76.570323,114.855485,-9418.149754
1185.868368,76.570323,153.140646,-9456.434915
1185.868995,38.285162,153.140646,-9418.149754
1185.869622,133.998066,153.140646,-9418.149754
1185.870249,153.140646,191.425808,-9399.007173
1185.870877,133.998066,229.710970,-9418.149754
1185.871504,76.570323,210.568389,-9437.292334
1185.872131,133.998066,114.855485,-9437.292334
1185.872758,76.570323,153.140646,-9418.149754
1185.873385,133.998066,114.855485,-9456.434915
1185.874012,153.140646,133.998066,-9379.864592
1185.874639,133.998066,133.998066,-9399.007173
1185.875266,153.140646,133.998066,-9399.007173
1185.875894,38.285162,114.855485,-9418.149754
1185.876521,133.998066,210.568389,-9418.149754
1185.877148,133.998066,210.568389,-9418.149754
1185.877775,76.570323,210.568389,-9418.149754
1185.878402,76.570323,114.855485,-9437.292334
1185.879029,19.142581,229.710970,-9456.434915
1185.879656,57.427742,172.283227,-9418.149754
1185.880283,133.998066,153.140646,-9418.149754
1185.880911,38.285162,153.140646,-9418.149754
1185.881538,38.285162,114.855485,-9418.149754
1185.882165,38.285162,153.140646,-9418.149754
1185.882792,76.570323,114.855485,-9418.149754
1185.883419,133.998066,133.998066,-9399.007173
1185.884046,114.855485,95.712904,-9399.007173
1185.884673,76.570323,114.855485,-9418.149754
1185.885300,76.570323,210.568389,-9475.577496
1185.885928,76.570323,153.140646,-9475.577496
1185.886555,76.570323,114.855485,-9456.434915
1185.887182,95.712904,153.140646,-9418.149754
1185.887809,133.998066,153.140646,-9418.149754
1185.888436,133.998066,114.855485,-9418.149754
1185.889063,76.570323,172.283227,-9418.149754
1185.889690,19.142581,153.140646,-9418.149754
1185.890317,76.570323,114.855485,-9418.149754
1185.890945,95.712904,114.855485,-9418.149754
1185.891572,133.998066,114.855485,-9418.149754
1185.892199,76.570323,172.283227,-9456.434915
1185.892826,19.142581,210.568389,-9399.007173
1185.893453,76.570323,191.425808,-9360.722011
1185.894080,133.998066,210.568389,-9418.149754
1185.894707,133.998066,172.283227,-9437.292334
1185.895334,153.140646,133.998066,-9399.007173
1185.895962,95.712904,191.425808,-9360.722011
1185.896589,0.000000,191.425808,-9360.722011
1185.897216,153.140646,133.998066,-9399.007173
1185.897843,172.283227,95.712904,-9399.007173
1185.898470,133.998066,114.855485,-9437.292334
1185.899097,153.140646,191.425808,-9399.007173
1185.899724,133.998066,114.855485,-9418.149754
1185.900351,172.283227,114.855485,-9379.864592
1185.900979,133.998066,210.568389,-9456.434915
1185.901606,248.853550,153.140646,-9437.292334
1185.902233,172.283227,76.570323,-9456.434915
1185.902860,76.570323,114.855485,-9418.149754
1185.903487,76.570323,172.283227,-9418.149754
1185.904114,133.998066,210.568389,-9418.149754
1185.904741,95.712904,114.855485,-9418.149754
1185.905368,114.855485,153.140646,-9341.579430
1185.905996,38.285162,210.568389,-9494.720077
1185.906623,19.142581,172.283227,-9418.149754
1185.907250,38.285162,114.855485,-9418.149754
1185.907877,133.998066,172.283227,-9399.007173
1185.908504,153.140646,172.283227,-9399.007173
1185.909131,133.998066,133.998066,-9399.007173
1185.909758,38.285162,114.855485,-9418.149754
1185.910385,133.998066,114.855485,-9418.149754
1185.911013,133.998066,114.855485,-9418.149754
1185.911640,153.140646,133.998066,-9399.007173
1185.912267,133.998066,210.568389,-9418.149754
1185.912894,133.998066,172.283227,-9533.005238
1185.913521,76.570323,153.140646,-9437.292334
1185.914148,76.570323,114.855485,-9418.149754
1185.914775,76.570323,133.998066,-9494.720077
1185.915403,76.570323,114.855485,-9418.149754
1185.916030,95.712904,153.140646,-9360.722011
1185.916658,76.570323,114.855485,-9437.292334
1185.917285,76.570323,172.283227,-9456.434915
1185.917912,76.570323,114.855485,-9418.149754
1185.918540,133.998066,114.855485,-9456.434915
1185.919167,95.712904,114.855485,-9418.149754
1185.919794,76.570323,114.855485,-9418.149754
1185.920422,19.142581,172.283227,-9456.434915
1185.921049,38.285162,229.710970,-9360.722011
1185.921677,95.712904,153.140646,-9418.149754
1185.922304,95.712904,133.998066,-9360.722011
1185.922931,76.570323,172.283227,-9418.149754
1185.923559,133.998066,191.425808,-9475.577496
1185.924186,76.570323,210.568389,-9418.149754
1185.924814,153.140646,172.283227,-9437.292334
1185.925441,153.140646,133.998066,-9399.007173
1185.926068,133.998066,114.855485,-9437.292334
1185.926696,133.998066,153.140646,-9475.577496
1185.927323,76.570323,210.568389,-9437.292334
1185.927951,133.998066,153.140646,-9456.434915
1185.928578,114.855485,191.425808,-9418.149754
1185.929205,95.712904,153.140646,-9456.434915
1185.929833,153.140646,172.283227,-9399.007173
1185.930460,76.570323,76.570323,-9379.864592
1185.931088,133.998066,133.998066,-9399.007173
1185.931715,57.427742,95.712904,-9399.007173
1185.932342,172.283227,153.140646,-9322.436850
1185.932970,76.570323,172.283227,-9418.149754
1185.933597,38.285162,172.283227,-9437.292334
1185.934225,76.570323,76.570323,-9399.007173
1185.934852,76.570323,172.283227,-9418.149754
1185.935479,133.998066,114.855485,-9456.434915
1185.936107,76.570323,172.283227,-9494.720077
1185.936734,76.570323,114.855485,-9418.149754
1185.937361,133.998066,114.855485,-9418.149754
1185.937989,76.570323,114.855485,-9418.149754
1185.938616,76.570323,153.140646,-9418.149754
1185.939244,76.570323,114.855485,-9418.149754
1185.939871,76.570323,114.855485,-9456.434915
1185.940498,38.285162,114.855485,-9437.292334
1185.941126,76.570323,114.855485,-9533.005238
1185.941753,95.712904,153.140646,-9533.005238
1185.942381,76.570323,114.855485,-9418.149754
1185.943008,133.998066,172.283227,-9456.434915
1185.943635,-38.285162,191.425808,-9399.007173
1185.944263,57.427742,210.568389,-9399.007173
1185.944890,95.712904,76.570323,-9379.864592
1185.945518,114.855485,76.570323,-9456.434915
1185.946145,191.425808,76.570323,-9418.149754
1185.946772,95.712904,95.712904,-9399.007173
1185.947400,19.142581,153.140646,-9456.434915
1185.948027,38.285162,210.568389,-9418.149754
1185.948655,95.712904,210.568389,-9418.149754
1185.949282,76.570323,210.568389,-9437.292334
1185.949909,153.140646,133.998066,-9399.007173
1185.950537,57.427742,114.855485,-9418.149754
1185.951164,95.712904,114.855485,-9418.149754
1185.951791,210.568389,133.998066,-9399.007173
1185.952419,133.998066,172.283227,-9360.722011
1185.953046,76.570323,210.568389,-9418.149754
1185.953674,38.285162,153.140646,-9418.149754
1185.954301,76.570323,172.283227,-9418.149754
1185.954928,95.712904,95.712904,-9475.577496
1185.955556,133.998066,114.855485,-9418.149754
1185.956183,114.855485,95.712904,-9399.007173
1185.956811,133.998066,172.283227,-9456.434915
1185.957438,38.285162,153.140646,-9418.149754
1185.958065,95.712904,133.998066,-9360.722011
1185.958693,38.285162,114.855485,-9418.149754
1185.959320,133.998066,153.140646,-9418.149754
1185.959948,76.570323,76.570323,-9379.864592
1185.960575,76.570323,114.855485,-9418.149754
1185.961202,57.427742,114.855485,-9418.149754
1185.961830,95.712904,114.855485,-9418.149754
1185.962457,76.570323,114.855485,-9437.292334
1185.963085,133.998066,172.283227,-9475.577496
1185.963712,76.570323,114.855485,-9418.149754
1185.964339,95.712904,133.998066,-9418.149754
1185.964967,38.285162,114.855485,-9418.149754
1185.965594,133.998066,172.283227,-9418.149754
1185.966222,133.998066,114.855485,-9456.434915
1185.966849,114.855485,95.712904,-9437.292334
1185.967476,95.712904,95.712904,-9456.434915
1185.968104,76.570323,114.855485,-9418.149754
1185.968731,38.285162,95.712904,-9456.434915
1185.969358,57.427742,133.998066,-9360.722011
1185.969986,38.285162,114.855485,-9418.149754
1185.970613,38.285162,153.140646,-9437.292334
1185.971241,38.285162,114.855485,-9456.434915
1185.971868,95.712904,114.855485,-9418.149754
1185.972495,153.140646,153.140646,-9456.434915
1185.973123,133.998066,172.283227,-9418.149754
1185.973750,133.998066,191.425808,-9418.149754
1185.974378,133.998066,210.568389,-9418.149754
1185.975005,19.142581,229.710970,-9437.292334
1185.975632,114.855485,95.712904,-9399.007173
1185.976260,114.855485,114.855485,-9399.007173
1185.976887,133.998066,172.283227,-9418.149754
1185.977515,76.570323,210.568389,-9456.434915
1185.978142,38.285162,114.855485,-9418.149754
1185.978769,57.427742,153.140646,-9360.722011
1185.979397,76.570323,191.425808,-9360.722011
1185.980024,133.998066,153.140646,-9360.722011
1185.980652,133.998066,114.855485,-9418.149754
1185.981279,95.712904,133.998066,-9360.722011
1185.981906,76.570323,114.855485,-9418.149754
1185.982534,133.998066,114.855485,-9437.292334
1185.983161,153.140646,210.568389,-9399.007173
1185.983789,133.998066,153.140646,-9437.292334
1185.984416,76.570323,114.855485,-9437.292334
1185.985043,95.712904,114.855485,-9437.292334
1185.985671,95.712904,153.140646,-9360.722011
1185.986298,172.283227,248.853550,-9456.434915
1185.986925,76.570323,153.140646,-9418.149754
1185.987553,38.285162,172.283227,-9494.720077
1185.988180,19.142581,153.140646,-9437.292334
1185.988808,95.712904,172.283227,-9456.434915
1185.989435,153.140646,172.283227,-9456.434915
1185.990062,172.283227,57.427742,-9418.149754
1185.990690,114.855485,76.570323,-9437.292334
1185.991317,76.570323,172.283227,-9418.149754
1185.991945,133.998066,114.855485,-9418.149754
1185.992572,76.570323,76.570323,-9379.864592
1185.993199,133.998066,114.855485,-9437.292334
1185.993827,133.998066,114.855485,-9456.434915
1185.994454,38.285162,172.283227,-9456.434915
1185.995082,57.427742,95.712904,-9437.292334
1185.995709,95.712904,95.712904,-9437.292334
1185.996336,76.570323,114.855485,-9456.434915
1185.996964,76.570323,114.855485,-9418.149754
1185.997591,19.142581,114.855485,-9456.434915
1185.998219,76.570323,95.712904,-9399.007173
1185.998846,133.998066,114.855485,-9418.149754
1185.999473,191.425808,76.570323,-9418.149754
1186.000101,172.283227,76.570323,-9418.149754
1186.000728,76.570323,114.855485,-9437.292334
1186.001355,38.285162,114.855485,-9418.149754
1186.001983,38.285162,210.568389,-9418.149754
1186.002610,153.140646,210.568389,-9418.149754
1186.003238,133.998066,133.998066,-9456.434915
1186.003865,76.570323,114.855485,-9456.434915
1186.004492,57.427742,114.855485,-9360.722011
1186.005120,95.712904,229.710970,-9360.722011
1186.005747,133.998066,210.568389,-9418.149754
1186.006375,133.998066,210.568389,-9418.149754
1186.007002,95.712904,172.283227,-9360.722011
1186.007629,38.285162,114.855485,-9437.292334
1186.008257,19.142581,172.283227,-9456.434915
1186.008884,133.998066,114.855485,-9437.292334
1186.009512,133.998066,114.855485,-9360.722011
1186.010139,191.425808,153.140646,-9379.864592
1186.010766,133.998066,153.140646,-9494.720077
1186.011394,38.285162,153.140646,-9418.149754
1186.012021,153.140646,172.283227,-9437.292334
1186.012649,172.283227,76.570323,-9418.149754
1186.013276,133.998066,153.140646,-9437.292334
1186.013903,76.570323,114.855485,-9418.149754
1186.014531,57.427742,114.855485,-9418.149754
1186.015158,19.142581,133.998066,-9399.007173
1186.015786,76.570323,114.855485,-9456.434915
1186.016413,153.140646,133.998066,-9399.007173
1186.017041,76.570323,114.855485,-9475.577496
1186.017668,76.570323,114.855485,-9437.292334
1186.018296,95.712904,95.712904,-9399.007173
1186.018923,114.855485,133.998066,-9360.722011
1186.019551,172.283227,114.855485,-9379.864592
1186.020178,76.570323,114.855485,-9418.149754
1186.020806,133.998066,114.855485,-9456.434915
1186.021433,76.570323,114.855485,-9533.005238
1186.022061,76.570323,114.855485,-9475.577496
1186.022688,133.998066,210.568389,-9418.149754
1186.023316,133.998066,114.855485,-9418.149754
1186.023943,76.570323,114.855485,-9418.149754
1186.024571,76.570323,114.855485,-9418.149754
1186.025198,133.998066,153.140646,-9437.292334
1186.025826,114.855485,95.712904,-9475.577496
1186.026454,248.853550,133.998066,-9399.007173
1186.027081,133.998066,133.998066,-9399.007173
1186.027709,19.142581,172.283227,-9418.149754
1186.028336,38.285162,153.140646,-9418.149754
1186.028964,38.285162,172.283227,-9418.149754
1186.029591,57.427742,172.283227,-9360.722011
1186.030219,76.570323,153.140646,-9418.149754
1186.030846,38.285162,114.855485,-9418.149754
1186.031474,57.427742,95.712904,-9399.007173
1186.032101,76.570323,172.283227,-9437.292334
1186.032729,133.998066,172.283227,-9437.292334
1186.033356,133.998066,191.425808,-9399.007173
1186.033984,38.285162,153.140646,-9456.434915
1186.034611,133.998066,153.140646,-9418.149754
1186.035239,76.570323,114.855485,-9418.149754
1186.035866,133.998066,172.283227,-9399.007173
1186.036494,153.140646,153.140646,-9494.720077
1186.037121,38.285162,210.568389,-9437.292334
1186.037749,76.570323,114.855485,-9418.149754
1186.038376,114.855485,95.712904,-9399.007173
1186.039004,114.855485,133.998066,-9418.149754
1186.039631,76.570323,153.140646,-9418.149754
1186.040259,76.570323,114.855485,-9437.292334
1186.040887,38.285162,172.283227,-9418.149754
1186.041514,76.570323,229.710970,-9418.149754
1186.042142,76.570323,133.998066,-9379.864592
1186.042769,76.570323,114.855485,-9418.149754
1186.043397,76.570323,114.855485,-9437.292334
1186.044024,95.712904,95.712904,-9437.292334
1186.044652,76.570323,114.855485,-9418.149754
1186.045279,38.285162,114.855485,-9418.149754
1186.045907,95.712904,114.855485,-9418.149754
1186.046534,133.998066,172.283227,-9418.149754
1186.047162,95.712904,95.712904,-9399.007173
1186.047789,76.570323,114.855485,-9475.577496
1186.048417,153.140646,114.855485,-9418.149754
1186.049044,153.140646,133.998066,-9399.007173
1186.049672,133.998066,133.998066,-9399.007173
1186.050299,76.570323,153.140646,-9475.577496
1186.050927,95.712904,114.855485,-9494.720077
1186.051554,133.998066,172.283227,-9437.292334
1186.052182,172.283227,133.998066,-9418.149754
1186.052809,153.140646,153.140646,-9494.720077
1186.053437,38.285162,210.568389,-9399.007173
1186.054064,38.285162,153.140646,-9418.149754
1186.054692,19.142581,191.425808,-9399.007173
1186.055320,38.285162,114.855485,-9418.149754
1186.055947,114.855485,133.998066,-9360.722011
1186.056575,76.570323,114.855485,-9418.149754
1186.057202,95.712904,95.712904,-9399.007173
1186.057830,57.427742,114.855485,-9399.007173
1186.058457,57.427742,172.283227,-9360.722011
1186.059085,133.998066,210.568389,-9418.149754
1186.059712,153.140646,191.425808,-9399.007173
1186.060340,76.570323,114.855485,-9418.149754
1186.060967,133.998066,229.710970,-9437.292334
1186.061595,133.998066,114.855485,-9475.577496
1186.062222,153.140646,133.998066,-9399.007173
1186.062850,153.140646,133.998066,-9437.292334
1186.063477,38.285162,210.568389,-9533.005238
1186.064105,95.712904,114.855485,-9437.292334
1186.064732,38.285162,191.425808,-9418.149754
1186.065360,114.855485,210.568389,-9399.007173
1186.065987,133.998066,114.855485,-9456.434915
1186.066615,57.427742,133.998066,-9360.722011
1186.067242,57.427742,95.712904,-9437.292334
1186.067870,38.285162,210.568389,-9418.149754
1186.068497,76.570323,114.855485,-9418.149754
1186.069125,38.285162,114.855485,-9418.149754
1186.069753,57.427742,133.998066,-9418.149754
1186.070380,133.998066,114.855485,-9418.149754
1186.071008,114.855485,133.998066,-9360.722011
1186.071635,76.570323,114.855485,-9437.292334
1186.072263,133.998066,153.140646,-9456.434915
1186.072890,95.712904,153.140646,-9475.577496
1186.073518,133.998066,172.283227,-9456.434915
1186.074145,153.140646,133.998066,-9399.007173
1186.074773,114.855485,210.568389,-9360.722011
1186.075400,133.998066,153.140646,-9418.149754
1186.076028,76.570323,172.283227,-9418.149754
1186.076655,76.570323,114.855485,-9418.149754
1186.077283,153.140646,114.855485,-9456.434915
1186.077910,133.998066,133.998066,-9399.007173
1186.078538,76.570323,114.855485,-9418.149754
1186.079165,76.570323,114.855485,-9418.149754
1186.079793,57.427742,133.998066,-9360.722011
1186.080420,19.142581,172.283227,-9418.149754
1186.081048,38.285162,229.710970,-9418.149754
1186.081675,38.285162,153.140646,-9418.149754
1186.082303,38.285162,172.283227,-9418.149754
1186.082930,76.570323,172.283227,-9418.149754
1186.083558,95.712904,114.855485,-9437.292334
1186.084186,76.570323,210.568389,-9418.149754
1186.084813,133.998066,210.568389,-9475.577496
1186.085441,133.998066,172.283227,-9418.149754
1186.086068,153.140646,133.998066,-9513.862658
1186.086696,114.855485,210.568389,-9456.434915
1186.087323,153.140646,133.998066,-9456.434915
1186.087951,153.140646,133.998066,-9399.007173
1186.088578,76.570323,172.283227,-9475.577496
1186.089206,57.427742,210.568389,-9418.149754
1186.089833,95.712904,229.710970,-9456.434915
1186.090461,133.998066,114.855485,-9437.292334
1186.091088,76.570323,210.568389,-9418.149754
1186.091716,133.998066,172.283227,-9399.007173
1186.092343,38.285162,172.283227,-9418.149754
1186.092971,38.285162,172.283227,-9475.577496
1186.093598,38.285162,172.283227,-9437.292334
1186.094226,133.998066,114.855485,-9418.149754
1186.094853,95.712904,114.855485,-9418.149754
1186.095481,76.570323,153.140646,-9418.149754
1186.096108,133.998066,114.855485,-9475.577496
1186.096736,133.998066,114.855485,-9494.720077
1186.097363,172.283227,114.855485,-9456.434915
1186.097991,76.570323,210.568389,-9418.149754
1186.098619,114.855485,114.855485,-9456.434915
1186.099246,38.285162,114.855485,-9418.149754
1186.099874,133.998066,210.568389,-9437.292334
1186.100501,153.140646,133.998066,-9399.007173
1186.101129,133.998066,210.568389,-9418.149754
1186.101756,76.570323,172.283227,-9456.434915
1186.102384,38.285162,114.855485,-9418.149754
1186.103011,95.712904,172.283227,-9418.149754
1186.103639,153.140646,153.140646,-9399.007173
1186.104266,133.998066,229.710970,-9418.149754
1186.104894,76.570323,153.140646,-9437.292334
1186.105521,76.570323,114.855485,-9456.434915
1186.106149,38.285162,153.140646,-9437.292334
1186.106776,76.570323,172.283227,-9418.149754
1186.107404,95.712904,133.998066,-9360.722011
1186.108031,19.142581,114.855485,-9418.149754
1186.108659,38.285162,114.855485,-9418.149754
1186.109286,38.285162,114.855485,-9360.722011
1186.109914,114.855485,172.283227,-9360.722011
1186.110541,133.998066,114.855485,-9418.149754
1186.111169,133.998066,114.855485,-9418.149754
1186.111796,133.998066,114.855485,-9437.292334
1186.112424,133.998066,153.140646,-9533.005238
1186.113052,133.998066,172.283227,-9494.720077
1186.113679,210.568389,133.998066,-9494.720077
1186.114307,133.998066,172.283227,-9418.149754
1186.114934,95.712904,114.855485,-9418.149754
1186.115562,133.998066,229.710970,-9475.577496
1186.116189,133.998066,210.568389,-9437.292334
1186.116817,76.570323,191.425808,-9418.149754
1186.117444,76.570323,153.140646,-9418.149754
1186.118071,38.285162,172.283227,-9418.149754
1186.118699,38.285162,76.570323,-9399.007173
1186.119326,76.570323,114.855485,-9437.292334
1186.119954,95.712904,95.712904,-9456.434915
1186.120581,38.285162,114.855485,-9418.149754
1186.121209,38.285162,114.855485,-9418.149754
1186.121836,76.570323,114.855485,-9418.149754
1186.122464,172.283227,76.570323,-9418.149754
1186.123091,57.427742,133.998066,-9360.722011
1186.123719,133.998066,133.998066,-9494.720077
1186.124346,133.998066,172.283227,-9399.007173
1186.124973,76.570323,172.283227,-9456.434915
1186.125601,76.570323,153.140646,-9437.292334
1186.126228,133.998066,210.568389,-9360.722011
1186.126856,76.570323,114.855485,-9494.720077
1186.127483,153.140646,133.998066,-9513.862658
1186.128111,133.998066,114.855485,-9456.434915
1186.128738,153.140646,172.283227,-9399.007173
1186.129366,76.570323,114.855485,-9456.434915
1186.129993,38.285162,153.140646,-9456.434915
1186.130620,57.427742,114.855485,-9418.149754
1186.131248,95.712904,172.283227,-9418.149754
1186.131875,38.285162,114.855485,-9475.577496
1186.132503,114.855485,114.855485,-9399.007173
1186.133130,57.427742,114.855485,-9418.149754
1186.133758,133.998066,114.855485,-9418.149754
1186.134385,38.285162,133.998066,-9360.722011
1186.135013,76.570323,210.568389,-9418.149754
1186.135640,76.570323,172.283227,-9360.722011
1186.136268,76.570323,229.710970,-9437.292334
1186.136895,153.140646,191.425808,-9513.862658
1186.137522,133.998066,114.855485,-9418.149754
1186.138150,210.568389,191.425808,-9456.434915
1186.138777,153.140646,172.283227,-9494.720077
1186.139405,172.283227,114.855485,-9399.007173
1186.140032,133.998066,229.710970,-9475.577496
1186.140660,153.140646,191.425808,-9456.434915
1186.141287,153.140646,191.425808,-9379.864592
1186.141915,153.140646,153.140646,-9418.149754
1186.142542,172.283227,229.710970,-9379.864592
1186.143170,76.570323,114.855485,-9437.292334
1186.143797,133.998066,114.855485,-9437.292334
1186.144424,57.427742,95.712904,-9399.007173
1186.145052,133.998066,114.855485,-9418.149754
1186.145679,76.570323,114.855485,-9437.292334
1186.146307,114.855485,95.712904,-9437.292334
1186.146934,95.712904,172.283227,-9360.722011
1186.147562,38.285162,114.855485,-9418.149754
1186.148189,114.855485,114.855485,-9399.007173
1186.148817,95.712904,114.855485,-9418.149754
1186.149444,38.285162,114.855485,-9437.292334
1186.150072,153.140646,114.855485,-9418.149754
1186.150699,133.998066,172.283227,-9437.292334
1186.151326,76.570323,153.140646,-9418.149754
1186.151954,114.855485,95.712904,-9437.292334
1186.152581,133.998066,114.855485,-9437.292334
1186.153209,114.855485,114.855485,-9456.434915
1186.153836,133.998066,210.568389,-9418.149754
1186.154464,133.998066,114.855485,-9418.149754
1186.155091,76.570323,172.283227,-9418.149754
1186.155719,133.998066,210.568389,-9437.292334
1186.156346,76.570323,191.425808,-9456.434915
1186.156974,95.712904,210.568389,-9399.007173
1186.157601,38.285162,114.855485,-9418.149754
1186.158228,95.712904,153.140646,-9418.149754
1186.158856,57.427742,114.855485,-9418.149754
1186.159483,38.285162,114.855485,-9418.149754
1186.160111,95.712904,191.425808,-9360.722011
1186.160738,19.142581,191.425808,-9399.007173
1186.161366,76.570323,153.140646,-9418.149754
1186.161993,38.285162,210.568389,-9418.149754
1186.162621,153.140646,172.283227,-9399.007173
1186.163248,133.998066,210.568389,-9418.149754
1186.163875,191.425808,76.570323,-9456.434915
1186.164503,153.140646,191.425808,-9494.720077
1186.165130,153.140646,191.425808,-9399.007173
1186.165758,153.140646,172.283227,-9399.007173
1186.166385,153.140646,248.853550,-9437.292334
1186.167013,76.570323,114.855485,-9437.292334
1186.167640,133.998066,114.855485,-9456.434915
1186.168268,133.998066,153.140646,-9437.292334
1186.168895,133.998066,210.568389,-9418.149754
1186.169523,133.998066,153.140646,-9418.149754
1186.170150,38.285162,114.855485,-9418.149754
1186.170777,57.427742,133.998066,-9360.722011
1186.171405,57.427742,114.855485,-9418.149754
1186.172032,38.285162,114.855485,-9418.149754
1186.172660,76.570323,95.712904,-9399.007173
1186.173287,38.285162,76.570323,-9379.864592
1186.173915,57.427742,133.998066,-9360.722011
1186.174542,76.570323,114.855485,-9437.292334
1186.175170,76.570323,76.570323,-9379.864592
1186.175797,95.712904,114.855485,-9437.292334
1186.176425,153.140646,133.998066,-9513.862658
1186.177052,153.140646,133.998066,-9399.007173
1186.177679,191.425808,76.570323,-9418.149754
1186.178307,191.425808,76.570323,-9494.720077
1186.178934,153.140646,172.283227,-9399.007173
1186.179562,133.998066,114.855485,-9437.292334
1186.180189,114.855485,95.712904,-9399.007173
1186.180817,38.285162,210.568389,-9360.722011
1186.181444,76.570323,153.140646,-9418.149754
1186.182072,76.570323,114.855485,-9418.149754
1186.182699,76.570323,114.855485,-9418.149754
1186.183327,57.427742,95.712904,-9437.292334
1186.183954,76.570323,172.283227,-9456.434915
1186.184581,38.285162,191.425808,-9418.149754
1186.185209,95.712904,191.425808,-9360.722011
1186.185836,76.570323,172.283227,-9418.149754
1186.186464,-38.285162,133.998066,-9494.720077
1186.187091,19.142581,210.568389,-9418.149754
1186.187719,153.140646,153.140646,-9456.434915
1186.188346,153.140646,114.855485,-9475.577496
1186.188974,133.998066,133.998066,-9513.862658
1186.189601,114.855485,114.855485,-9379.864592
1186.190228,133.998066,229.710970,-9418.149754
1186.190856,114.855485,191.425808,-9360.722011
1186.191483,210.568389,248.853550,-9399.007173
1186.192111,153.140646,153.140646,-9399.007173
1186.192738,172.283227,153.140646,-9399.007173
1186.193366,38.285162,210.568389,-9456.434915
1186.193993,76.570323,114.855485,-9456.434915
1186.194621,57.427742,114.855485,-9399.007173
1186.195248,19.142581,210.568389,-9418.149754
1186.195876,-38.285162,248.853550,-9456.434915
1186.196503,38.285162,153.140646,-9418.149754
1186.197130,76.570323,153.140646,-9360.722011
1186.197758,114.855485,95.712904,-9399.007173
1186.198385,133.998066,114.855485,-9418.149754
1186.199013,133.998066,114.855485,-9418.149754
1186.199640,114.855485,95.712904,-9399.007173
1186.200268,95.712904,95.712904,-9399.007173
1186.200895,76.570323,114.855485,-9456.434915
1186.201523,133.998066,114.855485,-9456.434915
1186.202150,172.283227,76.570323,-9456.434915
1186.202778,133.998066,114.855485,-9437.292334
1186.203405,114.855485,95.712904,-9437.292334
1186.204032,114.855485,95.712904,-9437.292334
1186.204660,133.998066,153.140646,-9399.007173
1186.205287,38.285162,210.568389,-9437.292334
1186.205915,133.998066,153.140646,-9418.149754
1186.206542,133.998066,153.140646,-9418.149754
1186.207170,133.998066,114.855485,-9418.149754
1186.207797,57.427742,133.998066,-9418.149754
1186.208425,38.285162,191.425808,-9418.149754
1186.209052,38.285162,229.710970,-9360.722011
1186.209680,0.000000,191.425808,-9360.722011
1186.210307,19.142581,210.568389,-9360.722011
1186.210934,95.712904,210.568389,-9418.149754
1186.211562,38.285162,210.568389,-9418.149754
1186.212189,114.855485,95.712904,-9437.292334
1186.212817,76.570323,210.568389,-9418.149754
1186.213444,76.570323,210.568389,-9456.434915
1186.214072,133.998066,210.568389,-9533.005238
1186.214699,153.140646,229.710970,-9475.577496
1186.215327,172.283227,248.853550,-9418.149754
1186.215954,133.998066,191.425808,-9437.292334
1186.216581,76.570323,153.140646,-9437.292334
1186.217209,114.855485,172.283227,-9360.722011
1186.217836,95.712904,133.998066,-9418.149754
1186.218463,133.998066,114.855485,-9418.149754
1186.219090,76.570323,114.855485,-9399.007173
1186.219718,76.570323,210.568389,-9418.149754
1186.220345,-19.142581,172.283227,-9379.864592
1186.220972,95.712904,153.140646,-9437.292334
1186.221600,114.855485,95.712904,-9399.007173
1186.222227,76.570323,114.855485,-9437.292334
1186.222854,57.427742,95.712904,-9399.007173
1186.223481,57.427742,114.855485,-9399.007173
1186.224109,153.140646,133.998066,-9399.007173
1186.224736,133.998066,114.855485,-9418.149754
1186.225363,133.998066,114.855485,-9475.577496
1186.225991,133.998066,114.855485,-9437.292334
1186.226618,133.998066,114.855485,-9456.434915
1186.227245,172.283227,95.712904,-9456.434915
1186.227872,210.568389,38.285162,-9494.720077
1186.228500,114.855485,95.712904,-9475.577496
1186.229127,153.140646,172.283227,-9456.434915
1186.229754,133.998066,210.568389,-9437.292334
1186.230382,153.140646,172.283227,-9399.007173
1186.231009,210.568389,172.283227,-9437.292334
1186.231636,76.570323,153.140646,-9418.149754
1186.232263,38.285162,114.855485,-9418.149754
1186.232891,38.285162,172.283227,-9360.722011
1186.233518,133.998066,172.283227,-9418.149754
1186.234145,95.712904,133.998066,-9360.722011
1186.234773,38.285162,191.425808,-9418.149754
1186.235400,0.000000,210.568389,-9360.722011
1186.236027,38.285162,153.140646,-9437.292334
1186.236654,133.998066,172.283227,-9418.149754
1186.237282,76.570323,114.855485,-9437.292334
1186.237909,133.998066,114.855485,-9418.149754
1186.238536,76.570323,172.283227,-9418.149754
1186.239164,76.570323,229.710970,-9456.434915
1186.239791,153.140646,229.710970,-9418.149754
1186.240418,133.998066,229.710970,-9418.149754
1186.241045,95.712904,287.138712,-9399.007173
1186.241673,76.570323,210.568389,-9456.434915
1186.242300,153.140646,153.140646,-9494.720077
1186.242927,76.570323,153.140646,-9418.149754
1186.243554,133.998066,172.283227,-9418.149754
1186.244182,95.712904,133.998066,-9360.722011
1186.244809,38.285162,114.855485,-9437.292334
1186.245436,38.285162,114.855485,-9418.149754
1186.246064,57.427742,153.140646,-9360.722011
1186.246691,38.285162,114.855485,-9456.434915
1186.247318,57.427742,95.712904,-9399.007173
1186.247945,133.998066,114.855485,-9456.434915
1186.248573,76.570323,114.855485,-9418.149754
1186.249200,76.570323,153.140646,-9360.722011
1186.249827,76.570323,114.855485,-9437.292334
1186.250455,114.855485,114.855485,-9399.007173
1186.251082,133.998066,114.855485,-9418.149754
1186.251709,114.855485,95.712904,-9399.007173
1186.252336,76.570323,76.570323,-9379.864592
1186.252964,172.283227,76.570323,-9494.720077
1186.253591,95.712904,133.998066,-9552.147819
1186.254218,133.998066,153.140646,-9456.434915
1186.254846,76.570323,153.140646,-9437.292334
1186.255473,133.998066,153.140646,-9418.149754
1186.256100,38.285162,114.855485,-9456.434915
1186.256727,76.570323,114.855485,-9418.149754
1186.257355,57.427742,172.283227,-9360.722011
1186.257982,95.712904,172.283227,-9360.722011
1186.258609,38.285162,248.853550,-9360.722011
1186.259237,38.285162,153.140646,-9418.149754
1186.259864,76.570323,210.568389,-9418.149754
1186.260491,133.998066,114.855485,-9418.149754
1186.261118,95.712904,95.712904,-9399.007173
1186.261746,114.855485,38.285162,-9399.007173
1186.262373,133.998066,210.568389,-9399.007173
1186.263000,38.285162,210.568389,-9437.292334
1186.263628,133.998066,229.710970,-9418.149754
1186.264255,95.712904,172.283227,-9418.149754
1186.264882,133.998066,248.853550,-9475.577496
1186.265509,133.998066,114.855485,-9533.005238
1186.266137,153.140646,191.425808,-9494.720077
1186.266764,153.140646,114.855485,-9418.149754
1186.267391,153.140646,133.998066,-9399.007173
1186.268018,76.570323,229.710970,-9418.149754
1186.268646,38.285162,114.855485,-9418.149754
1186.269273,38.285162,114.855485,-9418.149754
1186.269900,57.427742,210.568389,-9418.149754
1186.270528,38.285162,172.283227,-9418.149754
1186.271155,19.142581,114.855485,-9437.292334
1186.271782,38.285162,114.855485,-9437.292334
1186.272409,95.712904,95.712904,-9399.007173
1186.273037,76.570323,153.140646,-9475.577496
1186.273664,95.712904,133.998066,-9360.722011
1186.274291,133.998066,114.855485,-9418.149754
1186.274919,95.712904,95.712904,-9399.007173
1186.275546,133.998066,114.855485,-9456.434915
1186.276173,153.140646,133.998066,-9399.007173
1186.276800,133.998066,133.998066,-9456.434915
1186.277428,133.998066,114.855485,-9494.720077
1186.278055,133.998066,133.998066,-9494.720077
1186.278682,95.712904,114.855485,-9418.149754
1186.279310,153.140646,133.998066,-9456.434915
1186.279937,114.855485,95.712904,-9437.292334
1186.280564,95.712904,95.712904,-9456.434915
1186.281191,76.570323,114.855485,-9418.149754
1186.281819,95.712904,153.140646,-9360.722011
1186.282446,38.285162,172.283227,-9360.722011
1186.283073,19.142581,133.998066,-9437.292334
1186.283701,38.285162,114.855485,-9418.149754
1186.284328,76.570323,114.855485,-9418.149754
1186.284955,153.140646,133.998066,-9399.007173
1186.285582,133.998066,153.140646,-9418.149754
1186.286210,95.712904,114.855485,-9418.149754
1186.286837,76.570323,229.710970,-9418.149754
1186.287464,153.140646,191.425808,-9475.577496
1186.288092,95.712904,229.710970,-9475.577496
1186.288719,133.998066,210.568389,-9437.292334
1186.289346,76.570323,114.855485,-9533.005238
1186.289973,133.998066,191.425808,-9513.862658
1186.290601,133.998066,210.568389,-9533.005238
1186.291228,153.140646,210.568389,-9494.720077
1186.291855,133.998066,229.710970,-9418.149754
1186.292483,76.570323,153.140646,-9418.149754
1186.293110,95.712904,191.425808,-9418.149754
1186.293737,38.285162,210.568389,-9418.149754
1186.294364,38.285162,153.140646,-9437.292334
1186.294992,19.142581,114.855485,-9494.720077
1186.295619,95.712904,114.855485,-9533.005238
1186.296246,38.285162,114.855485,-9437.292334
1186.296873,38.285162,114.855485,-9418.149754
1186.297501,38.285162,114.855485,-9418.149754
1186.298128,133.998066,172.283227,-9456.434915
1186.298755,114.855485,95.712904,-9399.007173
1186.299383,172.283227,57.427742,-9456.434915
1186.300010,95.712904,133.998066,-9360.722011
1186.300637,172.283227,95.712904,-9399.007173
1186.301264,153.140646,133.998066,-9437.292334
1186.301892,191.425808,76.570323,-9437.292334
1186.302519,153.140646,133.998066,-9399.007173
1186.303146,133.998066,133.998066,-9437.292334
1186.303774,114.855485,95.712904,-9399.007173
1186.304401,172.283227,76.570323,-9456.434915
1186.305028,95.712904,95.712904,-9475.577496
1186.305655,76.570323,114.855485,-9437.292334
1186.306283,19.142581,153.140646,-9456.434915
1186.306910,57.427742,248.853550,-9341.579430
1186.307537,57.427742,191.425808,-9360.722011
1186.308165,38.285162,114.855485,-9418.149754
1186.308792,95.712904,114.855485,-9437.292334
1186.309419,95.712904,95.712904,-9456.434915
1186.310046,76.570323,210.568389,-9418.149754
1186.310674,133.998066,153.140646,-9418.149754
1186.311301,133.998066,229.710970,-9456.434915
1186.311928,153.140646,172.283227,-9399.007173
1186.312556,133.998066,114.855485,-9494.720077
1186.313183,133.998066,210.568389,-9456.434915
1186.313810,133.998066,172.283227,-9456.434915
1186.314437,133.998066,210.568389,-9418.149754
1186.315065,153.140646,191.425808,-9475.577496
1186.315692,133.998066,210.568389,-9456.434915
1186.316319,76.570323,229.710970,-9418.149754
1186.316947,76.570323,248.853550,-9379.864592
1186.317574,57.427742,191.425808,-9360.722011
1186.318202,95.712904,172.283227,-9360.722011
1186.318829,38.285162,114.855485,-9418.149754
1186.319457,76.570323,114.855485,-9418.149754
1186.320084,38.285162,114.855485,-9456.434915
1186.320712,38.285162,114.855485,-9418.149754
1186.321340,76.570323,114.855485,-9418.149754
1186.321967,76.570323,114.855485,-9418.149754
1186.322595,133.998066,153.140646,-9437.292334
1186.323222,133.998066,172.283227,-9418.149754
1186.323850,95.712904,133.998066,-9341.579430
1186.324477,95.712904,114.855485,-9418.149754
1186.325105,153.140646,133.998066,-9399.007173
1186.325732,133.998066,114.855485,-9456.434915
1186.326360,114.855485,95.712904,-9399.007173
1186.326987,172.283227,76.570323,-9437.292334
1186.327615,133.998066,133.998066,-9437.292334
1186.328242,114.855485,95.712904,-9399.007173
1186.328870,57.427742,95.712904,-9399.007173
1186.329498,76.570323,114.855485,-9418.149754
1186.330125,19.142581,210.568389,-9418.149754
1186.330753,38.285162,153.140646,-9437.292334
1186.331380,38.285162,114.855485,-9418.149754
1186.332008,38.285162,114.855485,-9418.149754
1186.332635,114.855485,95.712904,-9399.007173
1186.333263,57.427742,95.712904,-9456.434915
1186.333890,57.427742,153.140646,-9360.722011
1186.334518,133.998066,267.996131,-9379.864592
1186.335145,133.998066,229.710970,-9418.149754
1186.335773,76.570323,172.283227,-9456.434915
1186.336400,76.570323,287.138712,-9456.434915
1186.337028,133.998066,210.568389,-9456.434915
1186.337656,210.568389,133.998066,-9437.292334
1186.338283,153.140646,114.855485,-9437.292334
1186.338911,76.570323,210.568389,-9475.577496
1186.339538,133.998066,153.140646,-9456.434915
1186.340166,133.998066,210.568389,-9456.434915
1186.340793,133.998066,229.710970,-9418.149754
1186.341421,76.570323,191.425808,-9418.149754
1186.342048,38.285162,114.855485,-9456.434915
1186.342676,38.285162,114.855485,-9418.149754
1186.343303,19.142581,114.855485,-9418.149754
1186.343931,0.000000,95.712904,-9399.007173
1186.344558,76.570323,153.140646,-9360.722011
1186.345186,57.427742,191.425808,-9360.722011
1186.345813,76.570323,153.140646,-9418.149754
1186.346441,38.285162,114.855485,-9418.149754
1186.347069,133.998066,153.140646,-9418.149754
1186.347696,76.570323,114.855485,-9437.292334
1186.348324,133.998066,114.855485,-9418.149754
1186.348951,133.998066,172.283227,-9456.434915
1186.349579,191.425808,76.570323,-9437.292334
1186.350206,153.140646,133.998066,-9437.292334
1186.350834,133.998066,114.855485,-9418.149754
1186.351461,153.140646,76.570323,-9437.292334
1186.352089,114.855485,76.570323,-9418.149754
1186.352716,133.998066,114.855485,-9418.149754
1186.353344,57.427742,210.568389,-9418.149754
1186.353971,95.712904,114.855485,-9456.434915
1186.354599,95.712904,95.712904,-9399.007173
1186.355227,114.855485,95.712904,-9513.862658
1186.355854,114.855485,95.712904,-9437.292334
1186.356482,95.712904,95.712904,-9399.007173
1186.357109,38.285162,172.283227,-9360.722011
1186.357737,57.427742,191.425808,-9360.722011
1186.358364,76.570323,229.710970,-9418.149754
1186.358992,95.712904,153.140646,-9360.722011
1186.359619,95.712904,172.283227,-9360.722011
1186.360247,114.855485,95.712904,-9456.434915
1186.360874,229.710970,76.570323,-9475.577496
1186.361502,133.998066,133.998066,-9494.720077
1186.362129,76.570323,210.568389,-9437.292334
1186.362757,133.998066,210.568389,-9437.292334
1186.363385,133.998066,210.568389,-9418.149754
1186.364012,133.998066,248.853550,-9475.577496
1186.364640,172.283227,172.283227,-9494.720077
1186.365267,133.998066,210.568389,-9418.149754
1186.365895,114.855485,133.998066,-9360.722011
1186.366522,38.285162,153.140646,-9418.149754
1186.367150,38.285162,95.712904,-9437.292334
1186.367777,38.285162,172.283227,-9360.722011
1186.368405,76.570323,114.855485,-9418.149754
1186.369032,133.998066,114.855485,-9418.149754
1186.369660,76.570323,114.855485,-9418.149754
1186.370287,38.285162,114.855485,-9418.149754
1186.370915,38.285162,153.140646,-9533.005238
1186.371542,95.712904,114.855485,-9418.149754
1186.372170,76.570323,229.710970,-9437.292334
1186.372798,172.283227,76.570323,-9418.149754
1186.373425,153.140646,114.855485,-9437.292334
1186.374053,133.998066,153.140646,-9475.577496
1186.374680,153.140646,133.998066,-9456.434915
1186.375308,172.283227,76.570323,-9456.434915
1186.375935,76.570323,114.855485,-9456.434915
1186.376563,76.570323,229.710970,-9418.149754
1186.377190,153.140646,248.853550,-9399.007173
