#time,accel_x,accel_y,accel_z
899.414264,95.712904,153.140646,-9360.722011
899.414890,153.140646,153.140646,-9399.007173
899.415517,76.570323,172.283227,-9456.434915
899.416143,133.998066,153.140646,-9494.720077
899.416770,133.998066,114.855485,-9456.434915
899.417396,76.570323,114.855485,-9533.005238
899.418023,76.570323,210.568389,-9437.292334
899.418649,76.570323,114.855485,-9437.292334
899.419276,133.998066,172.283227,-9533.005238
899.419902,76.570323,114.855485,-9418.149754
899.420529,133.998066,114.855485,-9418.149754
899.421156,38.285162,114.855485,-9437.292334
899.421782,76.570323,172.283227,-9552.147819
899.422409,76.570323,229.710970,-9437.292334
899.423035,38.285162,114.855485,-9418.149754
899.423662,38.285162,153.140646,-9379.864592
899.424288,76.570323,172.283227,-9456.434915
899.424915,153.140646,172.283227,-9437.292334
899.425541,133.998066,114.855485,-9418.149754
899.426168,133.998066,114.855485,-9456.434915
899.426794,95.712904,153.140646,-9456.434915
899.427421,114.855485,76.570323,-9418.149754
899.428048,114.855485,114.855485,-9456.434915
899.428674,76.570323,153.140646,-9418.149754
899.429301,38.285162,153.140646,-9418.149754
899.429927,133.998066,114.855485,-9456.434915
899.430554,76.570323,95.712904,-9437.292334
899.431180,76.570323,114.855485,-9437.292334
899.431807,133.998066,172.283227,-9456.434915
899.432433,38.285162,114.855485,-9418.149754
899.433060,38.285162,172.283227,-9418.149754
899.433686,133.998066,114.855485,-9456.434915
899.434313,57.427742,95.712904,-9399.007173
899.434940,114.855485,95.712904,-9399.007173
899.435566,76.570323,172.283227,-9418.149754
899.436193,76.570323,114.855485,-9437.292334
899.436819,76.570323,172.283227,-9456.434915
899.437446,153.140646,133.998066,-9399.007173
899.438072,114.855485,133.998066,-9360.722011
899.438699,95.712904,114.855485,-9533.005238
899.439325,76.570323,114.855485,-9418.149754
899.439952,76.570323,114.855485,-9456.434915
899.440578,114.855485,95.712904,-9399.007173
899.441205,95.712904,95.712904,-9475.577496
899.441832,76.570323,210.568389,-9418.149754
899.442458,133.998066,172.283227,-9418.149754
899.443085,76.570323,114.855485,-9418.149754
899.443711,133.998066,114.855485,-9418.149754
899.444338,76.570323,114.855485,-9475.577496
899.444964,133.998066,172.283227,-9437.292334
899.445591,76.570323,114.855485,-9418.149754
899.446217,133.998066,114.855485,-9533.005238
899.446844,76.570323,172.283227,-9418.149754
899.447471,38.285162,114.855485,-9475.577496
899.448097,38.285162,114.855485,-9418.149754
899.448724,133.998066,133.998066,-9399.007173
899.449350,76.570323,153.140646,-9418.149754
899.449977,133.998066,114.855485,-9418.149754
899.450603,133.998066,153.140646,-9437.292334
899.451230,133.998066,153.140646,-9418.149754
899.451856,153.140646,133.998066,-9399.007173
899.452483,133.998066,133.998066,-9475.577496
899.453109,133.998066,229.710970,-9418.149754
899.453736,95.712904,133.998066,-9360.722011
899.454363,76.570323,114.855485,-9418.149754
899.454989,133.998066,114.855485,-9418.149754
899.455616,76.570323,153.140646,-9418.149754
899.456242,133.998066,210.568389,-9437.292334
899.456869,133.998066,229.710970,-9456.434915
899.457495,133.998066,114.855485,-9456.434915
899.458122,114.855485,133.998066,-9418.149754
899.458748,76.570323,114.855485,-9418.149754
899.459375,76.570323,172.283227,-9418.149754
899.460001,133.998066,210.568389,-9456.434915
899.460628,38.285162,210.568389,-9418.149754
899.461255,133.998066,114.855485,-9456.434915
899.461881,114.855485,133.998066,-9360.722011
899.462508,133.998066,114.855485,-9437.292334
899.463134,76.570323,172.283227,-9418.149754
899.463761,76.570323,114.855485,-9437.292334
899.464387,95.712904,95.712904,-9494.720077
899.465014,153.140646,133.998066,-9456.434915
899.465640,76.570323,114.855485,-9418.149754
899.466267,133.998066,153.140646,-9437.292334
899.466893,133.998066,114.855485,-9418.149754
899.467520,114.855485,153.140646,-9360.722011
899.468146,76.570323,172.283227,-9399.007173
899.468772,76.570323,114.855485,-9437.292334
899.469399,133.998066,114.855485,-9418.149754
899.470025,133.998066,153.140646,-9494.720077
899.470651,76.570323,114.855485,-9437.292334
899.471278,38.285162,153.140646,-9475.577496
899.471904,76.570323,172.283227,-9437.292334
899.472530,133.998066,172.283227,-9437.292334
899.473157,38.285162,210.568389,-9437.292334
899.473783,76.570323,191.425808,-9475.577496
899.474409,38.285162,172.283227,-9456.434915
899.475036,76.570323,114.855485,-9418.149754
899.475662,153.140646,133.998066,-9437.292334
899.476288,76.570323,114.855485,-9437.292334
899.476914,38.285162,153.140646,-9437.292334
899.477541,133.998066,114.855485,-9437.292334
899.478167,57.427742,95.712904,-9399.007173
899.478793,76.570323,114.855485,-9456.434915
899.479420,76.570323,114.855485,-9418.149754
899.480046,57.427742,210.568389,-9418.149754
899.480672,76.570323,210.568389,-9437.292334
899.481299,95.712904,153.140646,-9360.722011
899.481925,114.855485,191.425808,-9437.292334
899.482551,76.570323,210.568389,-9437.292334
899.483178,133.998066,114.855485,-9437.292334
899.483804,133.998066,114.855485,-9418.149754
899.484430,76.570323,172.283227,-9437.292334
899.485056,133.998066,191.425808,-9399.007173
899.485683,76.570323,114.855485,-9418.149754
899.486309,95.712904,210.568389,-9456.434915
899.486935,133.998066,172.283227,-9418.149754
899.487562,38.285162,172.283227,-9437.292334
899.488188,38.285162,114.855485,-9456.434915
899.488814,133.998066,133.998066,-9379.864592
899.489441,153.140646,133.998066,-9399.007173
899.490067,153.140646,133.998066,-9399.007173
899.490693,76.570323,153.140646,-9418.149754
899.491320,114.855485,172.283227,-9418.149754
899.491946,95.712904,114.855485,-9418.149754
899.492572,114.855485,95.712904,-9456.434915
899.493199,133.998066,114.855485,-9475.577496
899.493825,133.998066,172.283227,-9418.149754
899.494451,133.998066,172.283227,-9437.292334
899.495077,76.570323,210.568389,-9418.149754
899.495704,133.998066,210.568389,-9418.149754
899.496330,133.998066,114.855485,-9418.149754
899.496956,76.570323,114.855485,-9456.434915
899.497583,153.140646,133.998066,-9437.292334
899.498209,114.855485,153.140646,-9418.149754
899.498835,133.998066,114.855485,-9418.149754
899.499462,95.712904,95.712904,-9399.007173
899.500088,114.855485,153.140646,-9418.149754
899.500714,76.570323,114.855485,-9418.149754
899.501341,153.140646,133.998066,-9399.007173
899.501967,76.570323,172.283227,-9418.149754
899.502593,76.570323,114.855485,-9418.149754
899.503220,95.712904,133.998066,-9360.722011
899.503846,133.998066,210.568389,-9418.149754
899.504472,38.285162,114.855485,-9456.434915
899.505098,133.998066,153.140646,-9418.149754
899.505725,133.998066,114.855485,-9418.149754
899.506351,153.140646,133.998066,-9399.007173
899.506977,76.570323,114.855485,-9437.292334
899.507604,38.285162,153.140646,-9418.149754
899.508230,133.998066,153.140646,-9456.434915
899.508856,133.998066,114.855485,-9437.292334
899.509483,133.998066,114.855485,-9418.149754
899.510109,76.570323,114.855485,-9418.149754
899.510735,133.998066,191.425808,-9418.149754
899.511362,153.140646,172.283227,-9437.292334
899.511988,133.998066,114.855485,-9456.434915
899.512614,114.855485,95.712904,-9399.007173
899.513240,76.570323,114.855485,-9437.292334
899.513867,76.570323,114.855485,-9418.149754
899.514493,76.570323,114.855485,-9418.149754
899.515119,76.570323,114.855485,-9418.149754
899.515746,114.855485,95.712904,-9456.434915
899.516372,76.570323,114.855485,-9418.149754
899.516998,76.570323,114.855485,-9456.434915
899.517625,133.998066,114.855485,-9418.149754
899.518251,95.712904,95.712904,-9399.007173
899.518877,38.285162,114.855485,-9418.149754
899.519504,133.998066,114.855485,-9437.292334
899.520130,76.570323,210.568389,-9437.292334
899.520756,172.283227,114.855485,-9379.864592
899.521383,95.712904,153.140646,-9360.722011
899.522009,76.570323,114.855485,-9418.149754
899.522635,133.998066,153.140646,-9399.007173
899.523261,95.712904,191.425808,-9360.722011
899.523888,95.712904,133.998066,-9437.292334
899.524514,95.712904,172.283227,-9456.434915
899.525140,133.998066,114.855485,-9418.149754
899.525767,38.285162,114.855485,-9494.720077
899.526393,133.998066,153.140646,-9418.149754
899.527019,57.427742,172.283227,-9418.149754
899.527646,133.998066,153.140646,-9456.434915
899.528272,76.570323,172.283227,-9418.149754
899.528898,38.285162,114.855485,-9475.577496
899.529525,133.998066,172.283227,-9437.292334
899.530151,133.998066,153.140646,-9437.292334
899.530777,76.570323,153.140646,-9360.722011
899.531404,76.570323,114.855485,-9418.149754
899.532030,38.285162,114.855485,-9418.149754
899.532656,133.998066,210.568389,-9418.149754
899.533282,76.570323,210.568389,-9418.149754
899.533909,95.712904,172.283227,-9475.577496
899.534535,153.140646,114.855485,-9456.434915
899.535161,153.140646,133.998066,-9399.007173
899.535788,133.998066,172.283227,-9475.577496
899.536414,38.285162,172.283227,-9437.292334
899.537040,133.998066,210.568389,-9437.292334
899.537667,95.712904,133.998066,-9360.722011
899.538293,76.570323,114.855485,-9475.577496
899.538919,57.427742,95.712904,-9399.007173
899.539546,133.998066,114.855485,-9456.434915
899.540172,38.285162,114.855485,-9494.720077
899.540798,133.998066,114.855485,-9437.292334
899.541424,153.140646,133.998066,-9399.007173
899.542051,38.285162,172.283227,-9418.149754
899.542677,76.570323,114.855485,-9418.149754
899.543303,133.998066,210.568389,-9418.149754
899.543930,133.998066,153.140646,-9456.434915
899.544556,114.855485,191.425808,-9360.722011
899.545182,38.285162,114.855485,-9418.149754
899.545809,76.570323,114.855485,-9418.149754
899.546435,133.998066,172.283227,-9456.434915
899.547061,76.570323,114.855485,-9418.149754
899.547688,133.998066,172.283227,-9418.149754
899.548314,133.998066,114.855485,-9437.292334
899.548940,133.998066,210.568389,-9437.292334
899.549567,114.855485,95.712904,-9399.007173
899.550193,76.570323,114.855485,-9418.149754
899.550819,133.998066,210.568389,-9456.434915
899.551445,95.712904,114.855485,-9475.577496
899.552072,76.570323,114.855485,-9418.149754
899.552698,76.570323,114.855485,-9437.292334
899.553324,76.570323,114.855485,-9437.292334
899.553951,76.570323,172.283227,-9418.149754
899.554577,133.998066,172.283227,-9418.149754
899.555203,133.998066,114.855485,-9456.434915
899.555830,76.570323,114.855485,-9456.434915
899.556456,133.998066,153.140646,-9418.149754
899.557082,133.998066,172.283227,-9494.720077
899.557709,133.998066,114.855485,-9418.149754
899.558335,76.570323,172.283227,-9418.149754
899.558961,153.140646,229.710970,-9456.434915
899.559588,133.998066,153.140646,-9456.434915
899.560214,153.140646,114.855485,-9437.292334
899.560840,133.998066,172.283227,-9418.149754
899.561466,133.998066,114.855485,-9437.292334
899.562093,133.998066,114.855485,-9437.292334
899.562719,133.998066,172.283227,-9418.149754
899.563345,95.712904,114.855485,-9456.434915
899.563972,76.570323,114.855485,-9456.434915
899.564598,76.570323,114.855485,-9456.434915
899.565224,95.712904,114.855485,-9418.149754
899.565851,133.998066,133.998066,-9456.434915
899.566477,133.998066,153.140646,-9437.292334
899.567103,133.998066,114.855485,-9456.434915
899.567730,95.712904,95.712904,-9437.292334
899.568356,76.570323,114.855485,-9456.434915
899.568982,76.570323,114.855485,-9418.149754
899.569608,76.570323,114.855485,-9418.149754
899.570235,95.712904,153.140646,-9418.149754
899.570861,153.140646,133.998066,-9399.007173
899.571487,95.712904,114.855485,-9456.434915
899.572114,76.570323,153.140646,-9475.577496
899.572741,95.712904,133.998066,-9360.722011
899.573368,153.140646,133.998066,-9399.007173
899.573995,153.140646,153.140646,-9437.292334
899.574622,133.998066,133.998066,-9475.577496
899.575249,76.570323,172.283227,-9418.149754
899.575876,38.285162,153.140646,-9437.292334
899.576503,133.998066,114.855485,-9418.149754
899.577130,76.570323,114.855485,-9437.292334
899.577757,133.998066,172.283227,-9399.007173
899.578384,76.570323,114.855485,-9456.434915
899.579011,114.855485,95.712904,-9399.007173
899.579638,114.855485,133.998066,-9360.722011
899.580265,76.570323,114.855485,-9456.434915
899.580892,76.570323,210.568389,-9418.149754
899.581519,114.855485,153.140646,-9360.722011
899.582146,133.998066,114.855485,-9437.292334
899.582773,133.998066,114.855485,-9341.579430
899.583400,95.712904,114.855485,-9399.007173
899.584027,76.570323,114.855485,-9437.292334
899.584654,57.427742,153.140646,-9437.292334
899.585281,76.570323,172.283227,-9418.149754
899.585908,133.998066,172.283227,-9418.149754
899.586535,114.855485,114.855485,-9437.292334
899.587162,133.998066,133.998066,-9399.007173
899.587789,95.712904,133.998066,-9360.722011
899.588416,76.570323,114.855485,-9418.149754
899.589043,95.712904,95.712904,-9399.007173
899.589670,133.998066,114.855485,-9418.149754
899.590297,114.855485,95.712904,-9399.007173
899.590924,114.855485,114.855485,-9379.864592
899.591551,76.570323,172.283227,-9418.149754
899.592178,38.285162,172.283227,-9418.149754
899.592805,76.570323,114.855485,-9418.149754
899.593432,133.998066,114.855485,-9418.149754
899.594059,133.998066,114.855485,-9418.149754
899.594686,76.570323,172.283227,-9418.149754
899.595313,133.998066,114.855485,-9418.149754
899.595940,172.283227,210.568389,-9379.864592
899.596567,38.285162,114.855485,-9418.149754
899.597194,76.570323,229.710970,-9379.864592
899.597821,95.712904,210.568389,-9418.149754
899.598448,57.427742,95.712904,-9437.292334
899.599075,38.285162,153.140646,-9418.149754
899.599702,76.570323,172.283227,-9475.577496
899.600329,38.285162,153.140646,-9418.149754
899.600956,95.712904,114.855485,-9399.007173
899.601583,95.712904,95.712904,-9399.007173
899.602210,76.570323,210.568389,-9418.149754
899.602837,133.998066,210.568389,-9437.292334
899.603464,114.855485,229.710970,-9437.292334
899.604091,76.570323,114.855485,-9418.149754
899.604718,95.712904,172.283227,-9418.149754
899.605345,38.285162,114.855485,-9418.149754
899.605972,95.712904,172.283227,-9360.722011
899.606599,95.712904,210.568389,-9437.292334
899.607226,76.570323,114.855485,-9418.149754
899.607853,153.140646,133.998066,-9399.007173
899.608480,133.998066,210.568389,-9494.720077
899.609107,38.285162,172.283227,-9437.292334
899.609734,133.998066,153.140646,-9418.149754
899.610361,76.570323,114.855485,-9456.434915
899.610988,133.998066,114.855485,-9456.434915
899.611615,133.998066,114.855485,-9418.149754
899.612242,76.570323,114.855485,-9456.434915
899.612869,38.285162,114.855485,-9418.149754
899.613496,38.285162,114.855485,-9456.434915
899.614123,133.998066,114.855485,-9475.577496
899.614750,133.998066,153.140646,-9418.149754
899.615377,76.570323,172.283227,-9418.149754
899.616004,76.570323,153.140646,-9418.149754
899.616631,114.855485,133.998066,-9360.722011
899.617258,133.998066,133.998066,-9456.434915
899.617885,76.570323,114.855485,-9437.292334
899.618512,76.570323,172.283227,-9456.434915
899.619139,76.570323,153.140646,-9418.149754
899.619766,38.285162,172.283227,-9437.292334
899.620393,133.998066,153.140646,-9456.434915
899.621020,76.570323,172.283227,-9418.149754
899.621647,38.285162,210.568389,-9418.149754
899.622274,38.285162,172.283227,-9360.722011
899.622901,38.285162,114.855485,-9418.149754
899.623528,76.570323,114.855485,-9418.149754
899.624155,133.998066,114.855485,-9437.292334
899.624782,133.998066,133.998066,-9399.007173
899.625409,38.285162,210.568389,-9418.149754
899.626036,133.998066,114.855485,-9456.434915
899.626663,153.140646,133.998066,-9399.007173
899.627290,76.570323,114.855485,-9437.292334
899.627917,95.712904,114.855485,-9399.007173
899.628544,133.998066,229.710970,-9437.292334
899.629171,76.570323,114.855485,-9418.149754
899.629798,38.285162,172.283227,-9475.577496
899.630425,133.998066,172.283227,-9437.292334
899.631052,133.998066,153.140646,-9475.577496
899.631679,76.570323,114.855485,-9418.149754
899.632306,153.140646,172.283227,-9456.434915
899.632933,133.998066,153.140646,-9418.149754
899.633560,133.998066,114.855485,-9418.149754
899.634187,114.855485,76.570323,-9418.149754
899.634814,38.285162,172.283227,-9437.292334
899.635441,76.570323,114.855485,-9418.149754
899.636068,133.998066,172.283227,-9399.007173
899.636695,76.570323,114.855485,-9456.434915
899.637322,95.712904,114.855485,-9418.149754
899.637949,133.998066,114.855485,-9418.149754
899.638576,76.570323,153.140646,-9418.149754
899.639203,153.140646,133.998066,-9456.434915
899.639830,95.712904,172.283227,-9456.434915
899.640457,153.140646,133.998066,-9399.007173
899.641084,133.998066,114.855485,-9418.149754
899.641711,76.570323,114.855485,-9418.149754
899.642338,76.570323,114.855485,-9456.434915
899.642965,38.285162,114.855485,-9437.292334
899.643592,76.570323,114.855485,-9437.292334
899.644219,76.570323,114.855485,-9418.149754
899.644846,76.570323,114.855485,-9456.434915
899.645473,76.570323,114.855485,-9456.434915
899.646100,133.998066,114.855485,-9418.149754
899.646727,133.998066,153.140646,-9418.149754
899.647354,133.998066,114.855485,-9437.292334
899.647981,76.570323,114.855485,-9418.149754
899.648608,95.712904,114.855485,-9418.149754
899.649235,76.570323,114.855485,-9418.149754
899.649862,76.570323,114.855485,-9437.292334
899.650489,76.570323,114.855485,-9418.149754
899.651116,153.140646,133.998066,-9399.007173
899.651743,133.998066,114.855485,-9418.149754
899.652370,38.285162,172.283227,-9418.149754
899.652997,38.285162,114.855485,-9475.577496
899.653624,38.285162,172.283227,-9418.149754
899.654251,153.140646,133.998066,-9399.007173
899.654878,76.570323,114.855485,-9437.292334
899.655505,191.425808,76.570323,-9475.577496
899.656132,38.285162,114.855485,-9437.292334
899.656759,133.998066,114.855485,-9456.434915
899.657386,114.855485,114.855485,-9379.864592
899.658013,76.570323,153.140646,-9418.149754
899.658640,172.283227,248.853550,-9418.149754
899.659267,19.142581,153.140646,-9418.149754
899.659894,133.998066,114.855485,-9418.149754
899.660521,76.570323,114.855485,-9418.149754
899.661148,133.998066,114.855485,-9418.149754
899.661775,133.998066,172.283227,-9418.149754
899.662402,133.998066,114.855485,-9418.149754
899.663029,76.570323,191.425808,-9418.149754
899.663656,133.998066,172.283227,-9418.149754
899.664283,76.570323,114.855485,-9418.149754
899.664910,133.998066,114.855485,-9418.149754
899.665537,153.140646,133.998066,-9437.292334
899.666164,133.998066,133.998066,-9437.292334
899.666791,133.998066,114.855485,-9418.149754
899.667418,76.570323,153.140646,-9456.434915
899.668045,38.285162,114.855485,-9418.149754
899.668672,76.570323,114.855485,-9437.292334
899.669299,76.570323,229.710970,-9418.149754
899.669926,153.140646,172.283227,-9399.007173
899.670553,76.570323,210.568389,-9418.149754
899.671180,76.570323,114.855485,-9437.292334
899.671807,95.712904,172.283227,-9379.864592
899.672434,76.570323,210.568389,-9437.292334
899.673062,76.570323,114.855485,-9418.149754
899.673689,95.712904,114.855485,-9456.434915
899.674316,76.570323,114.855485,-9456.434915
899.674944,76.570323,114.855485,-9418.149754
899.675571,133.998066,114.855485,-9418.149754
899.676198,76.570323,153.140646,-9418.149754
899.676826,38.285162,114.855485,-9475.577496
899.677453,38.285162,114.855485,-9437.292334
899.678080,76.570323,114.855485,-9456.434915
899.678708,76.570323,153.140646,-9418.149754
899.679335,76.570323,114.855485,-9456.434915
899.679962,133.998066,172.283227,-9399.007173
899.680589,133.998066,114.855485,-9437.292334
899.681217,19.142581,114.855485,-9475.577496
899.681844,133.998066,114.855485,-9418.149754
899.682471,133.998066,114.855485,-9494.720077
899.683099,38.285162,114.855485,-9418.149754
899.683726,76.570323,229.710970,-9456.434915
899.684353,133.998066,191.425808,-9437.292334
899.684981,76.570323,153.140646,-9418.149754
899.685608,133.998066,114.855485,-9418.149754
899.686235,76.570323,153.140646,-9418.149754
899.686863,95.712904,114.855485,-9418.149754
899.687490,133.998066,153.140646,-9418.149754
899.688117,133.998066,114.855485,-9456.434915
899.688745,76.570323,114.855485,-9418.149754
899.689372,133.998066,114.855485,-9456.434915
899.689999,38.285162,114.855485,-9456.434915
899.690627,114.855485,95.712904,-9456.434915
899.691254,76.570323,114.855485,-9418.149754
899.691881,133.998066,114.855485,-9418.149754
899.692509,76.570323,114.855485,-9418.149754
899.693136,76.570323,172.283227,-9418.149754
899.693763,133.998066,114.855485,-9399.007173
899.694391,76.570323,153.140646,-9418.149754
899.695018,57.427742,191.425808,-9360.722011
899.695645,38.285162,153.140646,-9418.149754
899.696273,133.998066,172.283227,-9456.434915
899.696900,76.570323,114.855485,-9418.149754
899.697527,95.712904,153.140646,-9418.149754
899.698155,76.570323,114.855485,-9418.149754
899.698782,76.570323,114.855485,-9437.292334
899.699409,114.855485,95.712904,-9399.007173
899.700037,95.712904,133.998066,-9360.722011
899.700664,172.283227,153.140646,-9379.864592
899.701291,76.570323,133.998066,-9360.722011
899.701919,114.855485,114.855485,-9379.864592
899.702546,133.998066,114.855485,-9418.149754
899.703173,95.712904,133.998066,-9360.722011
899.703801,133.998066,76.570323,-9379.864592
899.704428,76.570323,114.855485,-9418.149754
899.705055,133.998066,114.855485,-9418.149754
899.705683,76.570323,114.855485,-9418.149754
899.706310,114.855485,153.140646,-9360.722011
899.706937,76.570323,114.855485,-9456.434915
899.707565,76.570323,114.855485,-9494.720077
899.708192,38.285162,114.855485,-9418.149754
899.708819,95.712904,114.855485,-9437.292334
899.709447,76.570323,114.855485,-9437.292334
899.710074,76.570323,114.855485,-9437.292334
899.710701,57.427742,95.712904,-9456.434915
899.711329,76.570323,114.855485,-9456.434915
899.711956,133.998066,172.283227,-9456.434915
899.712583,133.998066,153.140646,-9456.434915
899.713211,76.570323,172.283227,-9437.292334
899.713838,133.998066,153.140646,-9418.149754
899.714465,76.570323,114.855485,-9418.149754
899.715093,133.998066,114.855485,-9418.149754
899.715720,76.570323,114.855485,-9418.149754
899.716347,95.712904,153.140646,-9360.722011
899.716975,19.142581,114.855485,-9418.149754
899.717602,95.712904,114.855485,-9456.434915
899.718229,133.998066,172.283227,-9475.577496
899.718857,76.570323,172.283227,-9437.292334
899.719484,76.570323,153.140646,-9418.149754
899.720111,133.998066,114.855485,-9418.149754
899.720739,76.570323,210.568389,-9456.434915
899.721366,38.285162,172.283227,-9418.149754
899.721993,133.998066,114.855485,-9418.149754
899.722621,76.570323,114.855485,-9418.149754
899.723248,153.140646,133.998066,-9399.007173
899.723875,133.998066,114.855485,-9418.149754
899.724503,76.570323,114.855485,-9475.577496
899.725130,133.998066,210.568389,-9456.434915
899.725757,114.855485,133.998066,-9360.722011
899.726385,95.712904,191.425808,-9418.149754
899.727012,133.998066,114.855485,-9418.149754
899.727639,76.570323,153.140646,-9418.149754
899.728267,38.285162,114.855485,-9418.149754
899.728894,38.285162,191.425808,-9418.149754
899.729521,38.285162,191.425808,-9418.149754
899.730149,114.855485,153.140646,-9437.292334
899.730776,133.998066,114.855485,-9418.149754
899.731403,38.285162,172.283227,-9456.434915
899.732031,76.570323,153.140646,-9533.005238
899.732658,114.855485,133.998066,-9360.722011
899.733285,133.998066,114.855485,-9456.434915
899.733913,76.570323,114.855485,-9418.149754
899.734540,76.570323,114.855485,-9494.720077
899.735167,133.998066,153.140646,-9533.005238
899.735795,95.712904,172.283227,-9418.149754
899.736422,133.998066,114.855485,-9437.292334
899.737049,133.998066,153.140646,-9533.005238
899.737677,38.285162,153.140646,-9418.149754
899.738304,114.855485,95.712904,-9399.007173
899.738931,133.998066,172.283227,-9418.149754
899.739559,133.998066,114.855485,-9456.434915
899.740186,76.570323,114.855485,-9418.149754
899.740813,114.855485,114.855485,-9418.149754
899.741441,133.998066,172.283227,-9456.434915
899.742068,95.712904,114.855485,-9418.149754
899.742695,133.998066,133.998066,-9399.007173
899.743323,114.855485,153.140646,-9399.007173
899.743950,38.285162,191.425808,-9437.292334
899.744577,133.998066,114.855485,-9418.149754
899.745205,153.140646,133.998066,-9437.292334
899.745832,95.712904,95.712904,-9418.149754
899.746459,114.855485,95.712904,-9399.007173
899.747087,76.570323,114.855485,-9418.149754
899.747714,153.140646,153.140646,-9399.007173
899.748341,133.998066,172.283227,-9456.434915
899.748969,133.998066,114.855485,-9418.149754
899.749596,76.570323,114.855485,-9437.292334
899.750223,57.427742,114.855485,-9418.149754
899.750851,172.283227,191.425808,-9418.149754
899.751478,95.712904,114.855485,-9418.149754
899.752105,133.998066,172.283227,-9418.149754
899.752733,133.998066,114.855485,-9418.149754
899.753360,38.285162,114.855485,-9437.292334
899.753987,76.570323,114.855485,-9456.434915
899.754615,114.855485,153.140646,-9360.722011
899.755242,57.427742,95.712904,-9399.007173
899.755869,133.998066,172.283227,-9399.007173
899.756497,133.998066,210.568389,-9418.149754
899.757124,153.140646,133.998066,-9456.434915
899.757751,133.998066,172.283227,-9418.149754
899.758379,133.998066,114.855485,-9475.577496
899.759006,38.285162,114.855485,-9475.577496
899.759633,133.998066,191.425808,-9437.292334
899.760261,153.140646,114.855485,-9533.005238
899.760888,133.998066,133.998066,-9399.007173
899.761515,133.998066,114.855485,-9418.149754
899.762143,153.140646,172.283227,-9437.292334
899.762770,114.855485,114.855485,-9494.720077
899.763397,133.998066,114.855485,-9418.149754
899.764025,133.998066,153.140646,-9475.577496
899.764652,76.570323,114.855485,-9418.149754
899.765279,76.570323,114.855485,-9418.149754
899.765907,95.712904,95.712904,-9399.007173
899.766534,76.570323,153.140646,-9418.149754
899.767161,133.998066,114.855485,-9475.577496
899.767789,76.570323,114.855485,-9418.149754
899.768416,95.712904,172.283227,-9418.149754
899.769043,133.998066,210.568389,-9418.149754
899.769671,76.570323,210.568389,-9418.149754
899.770298,38.285162,114.855485,-9456.434915
899.770925,76.570323,210.568389,-9437.292334
899.771553,57.427742,114.855485,-9456.434915
899.772180,133.998066,210.568389,-9494.720077
899.772807,133.998066,114.855485,-9418.149754
899.773435,133.998066,114.855485,-9418.149754
899.774062,76.570323,114.855485,-9418.149754
899.774690,38.285162,114.855485,-9456.434915
899.775318,114.855485,95.712904,-9513.862658
899.775945,76.570323,114.855485,-9437.292334
899.776573,76.570323,76.570323,-9379.864592
899.777200,76.570323,114.855485,-9418.149754
899.777828,95.712904,114.855485,-9418.149754
899.778456,76.570323,114.855485,-9456.434915
899.779083,95.712904,114.855485,-9437.292334
899.779711,133.998066,172.283227,-9437.292334
899.780338,76.570323,114.855485,-9456.434915
899.780966,95.712904,133.998066,-9475.577496
899.781594,76.570323,114.855485,-9418.149754
899.782221,114.855485,114.855485,-9399.007173
899.782849,76.570323,153.140646,-9437.292334
899.783476,38.285162,172.283227,-9418.149754
899.784104,95.712904,114.855485,-9494.720077
899.784731,133.998066,114.855485,-9418.149754
899.785359,133.998066,114.855485,-9418.149754
899.785987,133.998066,172.283227,-9418.149754
899.786614,191.425808,153.140646,-9399.007173
899.787242,76.570323,153.140646,-9418.149754
899.787869,57.427742,133.998066,-9360.722011
899.788497,76.570323,172.283227,-9456.434915
899.789125,76.570323,153.140646,-9418.149754
899.789752,133.998066,114.855485,-9437.292334
899.790380,95.712904,191.425808,-9360.722011
899.791007,76.570323,114.855485,-9418.149754
899.791635,95.712904,153.140646,-9418.149754
899.792263,133.998066,133.998066,-9399.007173
899.792890,133.998066,114.855485,-9418.149754
899.793518,133.998066,153.140646,-9418.149754
899.794145,76.570323,114.855485,-9418.149754
899.794773,38.285162,172.283227,-9418.149754
899.795400,76.570323,153.140646,-9437.292334
899.796028,76.570323,172.283227,-9475.577496
899.796656,95.712904,114.855485,-9418.149754
899.797283,57.427742,114.855485,-9418.149754
899.797911,76.570323,114.855485,-9437.292334
899.798538,133.998066,172.283227,-9437.292334
899.799166,153.140646,133.998066,-9399.007173
899.799794,114.855485,95.712904,-9399.007173
899.800421,133.998066,153.140646,-9456.434915
899.801049,133.998066,76.570323,-9379.864592
899.801676,133.998066,191.425808,-9456.434915
899.802304,95.712904,114.855485,-9418.149754
899.802932,38.285162,114.855485,-9418.149754
899.803559,133.998066,133.998066,-9399.007173
899.804187,76.570323,114.855485,-9437.292334
899.804814,38.285162,191.425808,-9418.149754
899.805442,19.142581,114.855485,-9437.292334
899.806069,133.998066,153.140646,-9456.434915
899.806697,95.712904,133.998066,-9341.579430
899.807325,95.712904,172.283227,-9360.722011
899.807952,76.570323,114.855485,-9418.149754
899.808580,76.570323,114.855485,-9418.149754
899.809207,95.712904,114.855485,-9418.149754
899.809835,133.998066,114.855485,-9456.434915
899.810463,133.998066,114.855485,-9418.149754
899.811090,133.998066,172.283227,-9494.720077
899.811718,38.285162,172.283227,-9456.434915
899.812345,133.998066,229.710970,-9437.292334
899.812973,133.998066,210.568389,-9456.434915
899.813601,133.998066,133.998066,-9399.007173
899.814228,133.998066,114.855485,-9418.149754
899.814856,76.570323,76.570323,-9379.864592
899.815483,76.570323,114.855485,-9456.434915
899.816111,153.140646,133.998066,-9399.007173
899.816738,95.712904,114.855485,-9456.434915
899.817366,133.998066,114.855485,-9437.292334
899.817994,76.570323,114.855485,-9418.149754
899.818621,0.000000,76.570323,-9418.149754
899.819249,76.570323,114.855485,-9418.149754
899.819876,153.140646,133.998066,-9399.007173
899.820504,210.568389,172.283227,-9399.007173
899.821132,76.570323,172.283227,-9418.149754
899.821759,76.570323,114.855485,-9418.149754
899.822387,76.570323,114.855485,-9456.434915
899.823014,76.570323,114.855485,-9494.720077
899.823642,95.712904,95.712904,-9456.434915
899.824270,133.998066,114.855485,-9475.577496
899.824897,153.140646,114.855485,-9418.149754
899.825525,133.998066,114.855485,-9475.577496
899.826152,133.998066,114.855485,-9437.292334
899.826780,172.283227,76.570323,-9437.292334
899.827407,153.140646,133.998066,-9494.720077
899.828035,133.998066,172.283227,-9475.577496
899.828663,76.570323,114.855485,-9418.149754
899.829290,133.998066,172.283227,-9418.149754
899.829918,133.998066,172.283227,-9475.577496
899.830545,133.998066,172.283227,-9494.720077
899.831173,133.998066,210.568389,-9418.149754
899.831801,76.570323,114.855485,-9475.577496
899.832428,133.998066,172.283227,-9437.292334
899.833056,114.855485,153.140646,-9360.722011
899.833683,76.570323,210.568389,-9437.292334
899.834311,114.855485,133.998066,-9360.722011
899.834939,153.140646,133.998066,-9399.007173
899.835566,133.998066,114.855485,-9456.434915
899.836194,133.998066,114.855485,-9437.292334
899.836821,76.570323,172.283227,-9475.577496
899.837449,76.570323,153.140646,-9418.149754
899.838076,133.998066,114.855485,-9418.149754
899.838704,172.283227,114.855485,-9571.290400
899.839332,133.998066,153.140646,-9399.007173
899.839959,133.998066,114.855485,-9475.577496
899.840587,57.427742,114.855485,-9456.434915
899.841214,153.140646,153.140646,-9456.434915
899.841842,95.712904,114.855485,-9418.149754
899.842470,76.570323,153.140646,-9418.149754
899.843097,76.570323,229.710970,-9437.292334
899.843725,57.427742,172.283227,-9418.149754
899.844352,153.140646,133.998066,-9399.007173
899.844980,133.998066,153.140646,-9418.149754
899.845607,76.570323,114.855485,-9418.149754
899.846235,95.712904,95.712904,-9456.434915
899.846863,153.140646,133.998066,-9437.292334
899.847490,133.998066,114.855485,-9475.577496
899.848118,133.998066,114.855485,-9456.434915
899.848745,133.998066,133.998066,-9437.292334
899.849373,76.570323,172.283227,-9418.149754
899.850001,19.142581,114.855485,-9418.149754
899.850628,153.140646,133.998066,-9399.007173
899.851256,38.285162,114.855485,-9418.149754
899.851883,57.427742,153.140646,-9360.722011
899.852511,95.712904,210.568389,-9418.149754
899.853139,76.570323,172.283227,-9533.005238
899.853766,133.998066,229.710970,-9418.149754
899.854394,38.285162,172.283227,-9437.292334
899.855021,95.712904,210.568389,-9418.149754
899.855649,38.285162,153.140646,-9437.292334
899.856276,38.285162,114.855485,-9418.149754
899.856904,133.998066,114.855485,-9437.292334
899.857532,76.570323,114.855485,-9437.292334
899.858159,0.000000,95.712904,-9513.862658
899.858787,133.998066,191.425808,-9437.292334
899.859414,76.570323,153.140646,-9494.720077
899.860042,76.570323,210.568389,-9475.577496
899.860670,76.570323,114.855485,-9418.149754
899.861297,172.283227,114.855485,-9379.864592
899.861925,95.712904,172.283227,-9360.722011
899.862552,76.570323,76.570323,-9379.864592
899.863180,38.285162,172.283227,-9418.149754
899.863808,153.140646,133.998066,-9437.292334
899.864435,133.998066,153.140646,-9456.434915
899.865063,133.998066,114.855485,-9437.292334
899.865690,114.855485,114.855485,-9399.007173
899.866318,76.570323,153.140646,-9360.722011
899.866945,133.998066,172.283227,-9456.434915
899.867573,76.570323,114.855485,-9437.292334
899.868201,38.285162,114.855485,-9418.149754
899.868828,57.427742,114.855485,-9418.149754
899.869456,76.570323,114.855485,-9437.292334
899.870083,133.998066,114.855485,-9418.149754
899.870711,76.570323,172.283227,-9360.722011
899.871339,95.712904,172.283227,-9418.149754
899.871966,114.855485,248.853550,-9360.722011
899.872594,38.285162,153.140646,-9418.149754
899.873221,133.998066,114.855485,-9437.292334
899.873849,133.998066,114.855485,-9418.149754
899.874476,76.570323,172.283227,-9456.434915
899.875104,76.570323,172.283227,-9418.149754
899.875731,133.998066,114.855485,-9418.149754
899.876359,133.998066,114.855485,-9418.149754
899.876986,76.570323,210.568389,-9418.149754
899.877614,19.142581,114.855485,-9456.434915
899.878241,76.570323,153.140646,-9475.577496
899.878868,153.140646,153.140646,-9475.577496
899.879496,133.998066,114.855485,-9475.577496
899.880123,76.570323,114.855485,-9418.149754
899.880751,153.140646,133.998066,-9399.007173
899.881378,76.570323,114.855485,-9418.149754
899.882006,38.285162,114.855485,-9418.149754
899.882633,114.855485,95.712904,-9399.007173
899.883261,38.285162,114.855485,-9437.292334
899.883888,76.570323,153.140646,-9437.292334
899.884516,153.140646,172.283227,-9399.007173
899.885143,57.427742,95.712904,-9437.292334
899.885771,133.998066,153.140646,-9418.149754
899.886398,38.285162,114.855485,-9418.149754
899.887025,76.570323,172.283227,-9418.149754
899.887653,38.285162,114.855485,-9418.149754
899.888280,76.570323,153.140646,-9418.149754
899.888908,95.712904,172.283227,-9360.722011
899.889535,133.998066,153.140646,-9437.292334
899.890163,76.570323,114.855485,-9418.149754
899.890790,133.998066,133.998066,-9475.577496
899.891418,76.570323,153.140646,-9418.149754
899.892045,76.570323,172.283227,-9418.149754
899.892673,95.712904,172.283227,-9418.149754
899.893300,133.998066,172.283227,-9456.434915
899.893927,114.855485,172.283227,-9360.722011
899.894555,133.998066,172.283227,-9418.149754
899.895182,133.998066,153.140646,-9456.434915
899.895810,153.140646,133.998066,-9475.577496
899.896437,133.998066,114.855485,-9418.149754
899.897065,76.570323,153.140646,-9418.149754
899.897692,19.142581,114.855485,-9418.149754
899.898320,76.570323,153.140646,-9360.722011
899.898947,76.570323,153.140646,-9437.292334
899.899575,57.427742,210.568389,-9399.007173
899.900202,76.570323,153.140646,-9418.149754
899.900830,133.998066,172.283227,-9418.149754
899.901457,95.712904,133.998066,-9475.577496
899.902084,38.285162,172.283227,-9533.005238
899.902712,38.285162,153.140646,-9418.149754
899.903339,38.285162,210.568389,-9418.149754
899.903967,76.570323,114.855485,-9456.434915
899.904594,76.570323,172.283227,-9418.149754
899.905222,76.570323,153.140646,-9418.149754
899.905849,133.998066,172.283227,-9418.149754
899.906477,76.570323,153.140646,-9418.149754
899.907104,133.998066,114.855485,-9418.149754
899.907732,76.570323,114.855485,-9418.149754
899.908359,133.998066,153.140646,-9418.149754
899.908986,133.998066,114.855485,-9418.149754
899.909614,76.570323,114.855485,-9418.149754
899.910241,76.570323,114.855485,-9494.720077
899.910869,114.855485,76.570323,-9418.149754
899.911496,95.712904,114.855485,-9494.720077
899.912124,95.712904,133.998066,-9360.722011
899.912751,114.855485,95.712904,-9475.577496
899.913379,133.998066,95.712904,-9360.722011
899.914006,76.570323,153.140646,-9418.149754
899.914634,153.140646,172.283227,-9399.007173
899.915261,133.998066,172.283227,-9418.149754
899.915889,133.998066,210.568389,-9437.292334
899.916516,76.570323,191.425808,-9456.434915
899.917143,76.570323,114.855485,-9418.149754
899.917771,133.998066,229.710970,-9456.434915
899.918398,114.855485,172.283227,-9360.722011
899.919026,133.998066,153.140646,-9418.149754
899.919653,114.855485,153.140646,-9475.577496
899.920281,57.427742,153.140646,-9418.149754
899.920908,153.140646,133.998066,-9399.007173
899.921536,133.998066,133.998066,-9399.007173
899.922163,76.570323,114.855485,-9418.149754
899.922791,95.712904,95.712904,-9437.292334
899.923418,133.998066,114.855485,-9456.434915
899.924045,133.998066,191.425808,-9456.434915
899.924673,133.998066,114.855485,-9418.149754
899.925300,133.998066,114.855485,-9437.292334
899.925928,133.998066,114.855485,-9456.434915
899.926555,38.285162,153.140646,-9456.434915
899.927183,76.570323,114.855485,-9418.149754
899.927810,76.570323,153.140646,-9418.149754
899.928438,38.285162,114.855485,-9456.434915
899.929065,76.570323,114.855485,-9456.434915
899.929693,133.998066,114.855485,-9437.292334
899.930320,76.570323,114.855485,-9418.149754
899.930948,133.998066,133.998066,-9399.007173
899.931575,38.285162,114.855485,-9418.149754
899.932202,95.712904,95.712904,-9437.292334
899.932830,133.998066,133.998066,-9399.007173
899.933457,133.998066,153.140646,-9456.434915
899.934085,38.285162,114.855485,-9437.292334
899.934712,38.285162,172.283227,-9475.577496
899.935340,133.998066,172.283227,-9456.434915
899.935967,95.712904,210.568389,-9456.434915
899.936595,76.570323,114.855485,-9437.292334
899.937222,133.998066,210.568389,-9418.149754
899.937850,133.998066,172.283227,-9418.149754
899.938477,114.855485,172.283227,-9360.722011
899.939104,133.998066,153.140646,-9437.292334
899.939732,153.140646,191.425808,-9456.434915
899.940359,133.998066,172.283227,-9418.149754
899.940987,76.570323,191.425808,-9437.292334
899.941614,133.998066,172.283227,-9399.007173
899.942242,133.998066,172.283227,-9418.149754
899.942869,76.570323,153.140646,-9494.720077
899.943497,133.998066,114.855485,-9437.292334
899.944124,133.998066,172.283227,-9533.005238
899.944752,76.570323,114.855485,-9437.292334
899.945379,95.712904,133.998066,-9360.722011
899.946007,38.285162,114.855485,-9437.292334
899.946634,38.285162,172.283227,-9418.149754
899.947261,133.998066,172.283227,-9437.292334
899.947889,133.998066,114.855485,-9437.292334
899.948516,153.140646,153.140646,-9399.007173
899.949144,114.855485,76.570323,-9418.149754
899.949771,153.140646,133.998066,-9437.292334
899.950399,76.570323,114.855485,-9456.434915
899.951026,38.285162,153.140646,-9475.577496
899.951654,133.998066,210.568389,-9456.434915
899.952281,38.285162,114.855485,-9456.434915
899.952909,76.570323,172.283227,-9360.722011
899.953536,95.712904,114.855485,-9456.434915
899.954163,95.712904,95.712904,-9399.007173
899.954791,133.998066,114.855485,-9475.577496
899.955418,76.570323,114.855485,-9418.149754
899.956046,76.570323,172.283227,-9360.722011
899.956673,133.998066,210.568389,-9437.292334
899.957301,95.712904,114.855485,-9456.434915
899.957928,38.285162,172.283227,-9418.149754
899.958556,76.570323,114.855485,-9456.434915
899.959183,133.998066,114.855485,-9418.149754
899.959811,153.140646,133.998066,-9437.292334
899.960438,172.283227,191.425808,-9437.292334
899.961066,133.998066,114.855485,-9418.149754
899.961693,95.712904,95.712904,-9456.434915
899.962320,38.285162,172.283227,-9456.434915
899.962948,76.570323,114.855485,-9418.149754
899.963575,76.570323,172.283227,-9418.149754
899.964203,76.570323,172.283227,-9418.149754
899.964830,114.855485,76.570323,-9418.149754
899.965458,76.570323,114.855485,-9418.149754
899.966085,95.712904,114.855485,-9494.720077
899.966713,133.998066,114.855485,-9437.292334
899.967340,153.140646,133.998066,-9456.434915
899.967968,133.998066,153.140646,-9399.007173
899.968595,76.570323,114.855485,-9418.149754
899.969222,76.570323,153.140646,-9418.149754
899.969850,133.998066,114.855485,-9418.149754
899.970477,95.712904,133.998066,-9360.722011
899.971105,76.570323,114.855485,-9418.149754
899.971732,153.140646,133.998066,-9399.007173
899.972360,57.427742,133.998066,-9360.722011
899.972987,76.570323,172.283227,-9418.149754
899.973615,172.283227,76.570323,-9418.149754
899.974242,76.570323,114.855485,-9437.292334
899.974870,76.570323,153.140646,-9475.577496
899.975497,133.998066,172.283227,-9456.434915
899.976125,76.570323,172.283227,-9418.149754
899.976752,76.570323,114.855485,-9418.149754
899.977380,76.570323,172.283227,-9533.005238
899.978008,133.998066,114.855485,-9418.149754
899.978635,133.998066,114.855485,-9456.434915
899.979263,76.570323,114.855485,-9437.292334
899.979890,76.570323,114.855485,-9437.292334
899.980518,38.285162,172.283227,-9475.577496
899.981145,76.570323,114.855485,-9418.149754
899.981773,38.285162,114.855485,-9418.149754
899.982400,76.570323,172.283227,-9437.292334
899.983028,95.712904,95.712904,-9399.007173
899.983656,76.570323,114.855485,-9456.434915
899.984283,133.998066,114.855485,-9418.149754
899.984911,57.427742,133.998066,-9360.722011
899.985538,76.570323,153.140646,-9456.434915
899.986166,133.998066,172.283227,-9418.149754
899.986793,133.998066,114.855485,-9418.149754
899.987421,133.998066,153.140646,-9418.149754
899.988048,38.285162,210.568389,-9418.149754
899.988676,133.998066,172.283227,-9360.722011
899.989304,76.570323,114.855485,-9418.149754
899.989931,95.712904,210.568389,-9456.434915
899.990559,153.140646,133.998066,-9437.292334
899.991186,133.998066,172.283227,-9456.434915
899.991814,38.285162,172.283227,-9418.149754
899.992441,133.998066,172.283227,-9437.292334
899.993069,57.427742,114.855485,-9456.434915
899.993696,38.285162,114.855485,-9437.292334
899.994324,133.998066,114.855485,-9418.149754
899.994952,153.140646,248.853550,-9399.007173
899.995579,76.570323,114.855485,-9437.292334
899.996207,133.998066,114.855485,-9475.577496
899.996834,133.998066,172.283227,-9418.149754
899.997462,153.140646,172.283227,-9437.292334
899.998089,76.570323,172.283227,-9418.149754
899.998717,38.285162,229.710970,-9418.149754
899.999344,133.998066,114.855485,-9418.149754
899.999972,153.140646,133.998066,-9399.007173
900.000599,38.285162,172.283227,-9437.292334
900.001227,95.712904,114.855485,-9456.434915
900.001855,76.570323,114.855485,-9437.292334
900.002482,133.998066,153.140646,-9418.149754
900.003110,76.570323,210.568389,-9418.149754
900.003737,76.570323,210.568389,-9437.292334
900.004365,76.570323,114.855485,-9418.149754
900.004992,76.570323,95.712904,-9456.434915
900.005620,133.998066,114.855485,-9418.149754
900.006247,153.140646,133.998066,-9437.292334
900.006875,133.998066,114.855485,-9418.149754
900.007503,76.570323,172.283227,-9437.292334
900.008130,133.998066,114.855485,-9437.292334
900.008758,133.998066,210.568389,-9418.149754
900.009385,38.285162,114.855485,-9418.149754
900.010013,76.570323,114.855485,-9418.149754
900.010640,38.285162,114.855485,-9456.434915
900.011268,76.570323,153.140646,-9418.149754
900.011895,133.998066,153.140646,-9418.149754
900.012523,133.998066,114.855485,-9418.149754
900.013151,133.998066,153.140646,-9494.720077
900.013778,76.570323,114.855485,-9418.149754
900.014406,172.283227,114.855485,-9379.864592
900.015033,95.712904,95.712904,-9399.007173
900.015661,133.998066,172.283227,-9418.149754
900.016288,76.570323,114.855485,-9418.149754
900.016916,38.285162,172.283227,-9418.149754
900.017543,38.285162,114.855485,-9437.292334
900.018171,76.570323,210.568389,-9418.149754
900.018799,76.570323,114.855485,-9418.149754
900.019426,76.570323,210.568389,-9418.149754
900.020054,133.998066,114.855485,-9437.292334
900.020681,76.570323,172.283227,-9456.434915
900.021309,76.570323,114.855485,-9456.434915
900.021936,76.570323,114.855485,-9418.149754
900.022564,76.570323,114.855485,-9456.434915
900.023191,133.998066,114.855485,-9418.149754
900.023819,133.998066,133.998066,-9399.007173
900.024446,76.570323,172.283227,-9418.149754
900.025074,38.285162,153.140646,-9437.292334
900.025702,38.285162,114.855485,-9456.434915
900.026329,57.427742,172.283227,-9418.149754
900.026957,76.570323,172.283227,-9418.149754
900.027584,133.998066,153.140646,-9456.434915
900.028212,133.998066,210.568389,-9418.149754
900.028839,133.998066,172.283227,-9418.149754
900.029467,114.855485,153.140646,-9399.007173
900.030094,114.855485,76.570323,-9437.292334
900.030722,133.998066,172.283227,-9418.149754
900.031350,76.570323,172.283227,-9475.577496
900.031977,133.998066,210.568389,-9456.434915
900.032605,76.570323,229.710970,-9418.149754
900.033232,38.285162,210.568389,-9418.149754
900.033860,76.570323,114.855485,-9418.149754
900.034487,133.998066,210.568389,-9475.577496
900.035115,57.427742,210.568389,-9418.149754
900.035742,38.285162,114.855485,-9456.434915
900.036370,76.570323,153.140646,-9360.722011
900.036998,133.998066,114.855485,-9456.434915
900.037625,95.712904,114.855485,-9437.292334
900.038253,95.712904,95.712904,-9399.007173
900.038880,76.570323,114.855485,-9475.577496
900.039508,133.998066,114.855485,-9418.149754
900.040135,76.570323,114.855485,-9418.149754
900.040763,38.285162,114.855485,-9418.149754
900.041390,76.570323,114.855485,-9437.292334
900.042018,95.712904,114.855485,-9437.292334
900.042646,133.998066,114.855485,-9437.292334
900.043273,76.570323,153.140646,-9437.292334
900.043901,95.712904,114.855485,-9475.577496
900.044528,114.855485,153.140646,-9360.722011
900.045156,76.570323,172.283227,-9437.292334
900.045783,95.712904,172.283227,-9418.149754
900.046411,76.570323,114.855485,-9437.292334
900.047038,38.285162,114.855485,-9456.434915
900.047666,76.570323,114.855485,-9418.149754
900.048293,133.998066,114.855485,-9418.149754
900.048921,133.998066,210.568389,-9456.434915
900.049549,133.998066,133.998066,-9399.007173
900.050176,133.998066,114.855485,-9418.149754
900.050804,133.998066,114.855485,-9418.149754
900.051431,133.998066,114.855485,-9418.149754
900.052059,133.998066,114.855485,-9418.149754
900.052686,76.570323,172.283227,-9418.149754
900.053314,133.998066,114.855485,-9418.149754
900.053941,133.998066,172.283227,-9437.292334
900.054569,153.140646,153.140646,-9399.007173
900.055197,133.998066,210.568389,-9418.149754
900.055824,133.998066,114.855485,-9456.434915
900.056452,57.427742,95.712904,-9456.434915
900.057079,133.998066,114.855485,-9418.149754
900.057707,76.570323,114.855485,-9437.292334
900.058334,133.998066,114.855485,-9437.292334
900.058962,95.712904,191.425808,-9418.149754
900.059589,153.140646,133.998066,-9456.434915
900.060217,133.998066,114.855485,-9418.149754
900.060845,114.855485,95.712904,-9399.007173
900.061472,76.570323,114.855485,-9437.292334
900.062100,95.712904,114.855485,-9494.720077
900.062727,76.570323,229.710970,-9418.149754
900.063355,133.998066,114.855485,-9475.577496
900.063982,133.998066,153.140646,-9475.577496
900.064610,153.140646,114.855485,-9437.292334
900.065237,95.712904,114.855485,-9418.149754
900.065865,133.998066,172.283227,-9456.434915
900.066493,133.998066,114.855485,-9418.149754
900.067120,172.283227,210.568389,-9379.864592
900.067748,133.998066,172.283227,-9418.149754
900.068375,153.140646,133.998066,-9456.434915
900.069003,76.570323,114.855485,-9456.434915
900.069630,133.998066,191.425808,-9456.434915
900.070258,133.998066,153.140646,-9418.149754
900.070885,38.285162,114.855485,-9456.434915
900.071513,76.570323,210.568389,-9418.149754
900.072140,133.998066,114.855485,-9418.149754
900.072768,133.998066,114.855485,-9475.577496
900.073396,38.285162,153.140646,-9456.434915
900.074023,76.570323,114.855485,-9418.149754
900.074651,76.570323,191.425808,-9418.149754
900.075279,76.570323,153.140646,-9418.149754
900.075906,133.998066,114.855485,-9437.292334
900.076534,76.570323,114.855485,-9437.292334
900.077161,76.570323,153.140646,-9494.720077
900.077789,133.998066,114.855485,-9456.434915
900.078417,153.140646,172.283227,-9437.292334
900.079044,133.998066,153.140646,-9418.149754
900.079672,76.570323,114.855485,-9418.149754
900.080300,95.712904,153.140646,-9418.149754
900.080927,76.570323,114.855485,-9418.149754
900.081555,76.570323,114.855485,-9437.292334
900.082183,38.285162,114.855485,-9418.149754
900.082810,76.570323,95.712904,-9399.007173
900.083438,38.285162,153.140646,-9418.149754
900.084066,95.712904,133.998066,-9360.722011
900.084693,76.570323,210.568389,-9418.149754
900.085321,133.998066,114.855485,-9437.292334
900.085949,76.570323,114.855485,-9418.149754
900.086576,38.285162,114.855485,-9418.149754
900.087204,133.998066,172.283227,-9418.149754
900.087832,76.570323,114.855485,-9494.720077
900.088459,76.570323,114.855485,-9418.149754
900.089087,95.712904,133.998066,-9360.722011
900.089715,76.570323,114.855485,-9437.292334
900.090342,133.998066,114.855485,-9418.149754
900.090970,95.712904,114.855485,-9456.434915
900.091598,76.570323,172.283227,-9456.434915
900.092225,133.998066,114.855485,-9418.149754
900.092853,95.712904,95.712904,-9399.007173
900.093481,38.285162,114.855485,-9418.149754
900.094108,133.998066,172.283227,-9418.149754
900.094736,133.998066,172.283227,-9418.149754
900.095364,133.998066,172.283227,-9399.007173
900.095991,133.998066,172.283227,-9418.149754
900.096619,76.570323,172.283227,-9418.149754
900.097247,133.998066,210.568389,-9418.149754
900.097874,153.140646,172.283227,-9399.007173
900.098502,76.570323,114.855485,-9418.149754
900.099130,76.570323,153.140646,-9437.292334
900.099757,76.570323,114.855485,-9437.292334
900.100385,133.998066,133.998066,-9494.720077
900.101013,76.570323,114.855485,-9418.149754
900.101640,95.712904,172.283227,-9360.722011
900.102268,76.570323,153.140646,-9418.149754
900.102896,153.140646,191.425808,-9456.434915
900.103523,76.570323,172.283227,-9360.722011
900.104151,133.998066,114.855485,-9437.292334
900.104779,95.712904,114.855485,-9399.007173
900.105406,114.855485,210.568389,-9360.722011
900.106034,153.140646,172.283227,-9399.007173
900.106662,76.570323,153.140646,-9437.292334
900.107289,38.285162,114.855485,-9475.577496
900.107917,76.570323,114.855485,-9437.292334
900.108545,133.998066,191.425808,-9399.007173
900.109172,133.998066,153.140646,-9418.149754
900.109800,133.998066,114.855485,-9418.149754
900.110428,133.998066,114.855485,-9418.149754
900.111055,133.998066,114.855485,-9418.149754
900.111683,76.570323,172.283227,-9418.149754
900.112311,133.998066,114.855485,-9437.292334
900.112938,133.998066,114.855485,-9437.292334
900.113566,76.570323,114.855485,-9456.434915
900.114194,95.712904,95.712904,-9399.007173
900.114821,95.712904,95.712904,-9399.007173
900.115449,76.570323,114.855485,-9418.149754
900.116077,19.142581,133.998066,-9399.007173
900.116704,133.998066,172.283227,-9418.149754
900.117332,38.285162,114.855485,-9437.292334
900.117960,133.998066,114.855485,-9475.577496
900.118587,133.998066,114.855485,-9456.434915
900.119215,95.712904,95.712904,-9399.007173
900.119843,38.285162,114.855485,-9418.149754
900.120470,133.998066,114.855485,-9418.149754
900.121098,114.855485,133.998066,-9437.292334
900.121726,76.570323,172.283227,-9418.149754
900.122353,38.285162,172.283227,-9456.434915
900.122981,38.285162,172.283227,-9418.149754
900.123609,76.570323,114.855485,-9418.149754
900.124236,57.427742,114.855485,-9437.292334
900.124864,95.712904,114.855485,-9418.149754
900.125492,76.570323,76.570323,-9379.864592
900.126119,95.712904,153.140646,-9341.579430
900.126747,95.712904,114.855485,-9418.149754
900.127375,76.570323,114.855485,-9418.149754
900.128002,153.140646,153.140646,-9399.007173
900.128630,191.425808,153.140646,-9437.292334
900.129258,114.855485,95.712904,-9399.007173
900.129885,38.285162,153.140646,-9475.577496
900.130513,76.570323,114.855485,-9456.434915
900.131141,133.998066,114.855485,-9418.149754
900.131768,76.570323,153.140646,-9418.149754
900.132396,76.570323,114.855485,-9418.149754
900.133023,76.570323,114.855485,-9475.577496
900.133651,76.570323,114.855485,-9475.577496
900.134279,76.570323,210.568389,-9418.149754
900.134906,133.998066,114.855485,-9418.149754
900.135534,133.998066,114.855485,-9418.149754
900.136162,133.998066,114.855485,-9418.149754
900.136789,153.140646,133.998066,-9399.007173
900.137417,133.998066,153.140646,-9437.292334
900.138045,133.998066,114.855485,-9456.434915
900.138672,133.998066,153.140646,-9437.292334
900.139300,133.998066,210.568389,-9475.577496
900.139928,133.998066,172.283227,-9437.292334
900.140555,76.570323,172.283227,-9399.007173
900.141183,76.570323,191.425808,-9360.722011
900.141811,95.712904,191.425808,-9360.722011
900.142438,76.570323,210.568389,-9418.149754
900.143066,95.712904,210.568389,-9456.434915
900.143694,95.712904,172.283227,-9418.149754
900.144321,133.998066,114.855485,-9437.292334
900.144949,76.570323,210.568389,-9456.434915
900.145577,133.998066,153.140646,-9456.434915
900.146204,38.285162,172.283227,-9418.149754
900.146832,133.998066,114.855485,-9456.434915
900.147460,133.998066,114.855485,-9494.720077
900.148087,76.570323,172.283227,-9360.722011
900.148715,114.855485,133.998066,-9360.722011
900.149343,133.998066,133.998066,-9399.007173
900.149970,114.855485,95.712904,-9475.577496
900.150598,133.998066,114.855485,-9475.577496
900.151226,76.570323,114.855485,-9456.434915
900.151853,76.570323,210.568389,-9418.149754
900.152481,76.570323,153.140646,-9418.149754
900.153109,133.998066,114.855485,-9418.149754
900.153736,76.570323,114.855485,-9418.149754
900.154364,153.140646,133.998066,-9456.434915
900.154992,76.570323,229.710970,-9418.149754
900.155619,38.285162,210.568389,-9418.149754
900.156247,95.712904,95.712904,-9494.720077
900.156875,95.712904,114.855485,-9437.292334
900.157502,133.998066,210.568389,-9437.292334
900.158130,133.998066,114.855485,-9418.149754
900.158758,133.998066,114.855485,-9437.292334
900.159385,133.998066,153.140646,-9418.149754
900.160013,133.998066,114.855485,-9418.149754
900.160641,133.998066,153.140646,-9418.149754
900.161268,133.998066,172.283227,-9475.577496
900.161896,76.570323,172.283227,-9418.149754
900.162524,133.998066,191.425808,-9456.434915
900.163151,133.998066,114.855485,-9437.292334
900.163779,153.140646,153.140646,-9399.007173
900.164407,153.140646,172.283227,-9399.007173
900.165034,133.998066,114.855485,-9456.434915
900.165662,76.570323,95.712904,-9437.292334
900.166290,76.570323,153.140646,-9456.434915
900.166917,76.570323,210.568389,-9418.149754
900.167545,76.570323,114.855485,-9418.149754
900.168173,38.285162,172.283227,-9437.292334
900.168800,76.570323,210.568389,-9399.007173
900.169428,133.998066,153.140646,-9418.149754
900.170056,153.140646,153.140646,-9456.434915
900.170683,133.998066,153.140646,-9418.149754
900.171311,133.998066,153.140646,-9418.149754
900.171939,76.570323,114.855485,-9437.292334
900.172566,153.140646,114.855485,-9418.149754
900.173194,133.998066,114.855485,-9456.434915
900.173822,76.570323,172.283227,-9456.434915
900.174449,153.140646,153.140646,-9494.720077
900.175077,76.570323,172.283227,-9437.292334
900.175704,133.998066,172.283227,-9418.149754
900.176332,76.570323,153.140646,-9494.720077
900.176959,76.570323,114.855485,-9418.149754
900.177587,38.285162,114.855485,-9418.149754
900.178215,76.570323,114.855485,-9437.292334
900.178842,133.998066,114.855485,-9475.577496
900.179470,76.570323,114.855485,-9418.149754
900.180097,95.712904,191.425808,-9418.149754
900.180725,133.998066,229.710970,-9418.149754
900.181352,133.998066,229.710970,-9418.149754
900.181980,38.285162,114.855485,-9494.720077
900.182607,133.998066,114.855485,-9418.149754
900.183235,133.998066,114.855485,-9418.149754
900.183862,95.712904,133.998066,-9360.722011
900.184490,153.140646,114.855485,-9418.149754
900.185117,95.712904,114.855485,-9533.005238
900.185745,133.998066,114.855485,-9475.577496
900.186373,153.140646,133.998066,-9399.007173
900.187000,76.570323,95.712904,-9399.007173
900.187628,38.285162,114.855485,-9494.720077
900.188255,133.998066,172.283227,-9456.434915
900.188883,133.998066,210.568389,-9437.292334
900.189510,114.855485,210.568389,-9360.722011
900.190138,76.570323,153.140646,-9418.149754
900.190765,133.998066,153.140646,-9437.292334
900.191393,133.998066,114.855485,-9437.292334
900.192020,133.998066,153.140646,-9399.007173
900.192648,95.712904,191.425808,-9418.149754
900.193276,76.570323,114.855485,-9418.149754
900.193903,133.998066,153.140646,-9418.149754
900.194531,76.570323,172.283227,-9437.292334
900.195158,133.998066,210.568389,-9418.149754
900.195786,57.427742,95.712904,-9399.007173
900.196413,76.570323,153.140646,-9360.722011
900.197041,133.998066,172.283227,-9418.149754
900.197668,76.570323,153.140646,-9437.292334
900.198296,76.570323,172.283227,-9418.149754
900.198923,76.570323,153.140646,-9456.434915
900.199551,76.570323,114.855485,-9418.149754
900.200178,133.998066,114.855485,-9418.149754
900.200806,114.855485,133.998066,-9360.722011
900.201434,76.570323,114.855485,-9456.434915
900.202061,133.998066,114.855485,-9418.149754
900.202689,76.570323,114.855485,-9437.292334
900.203316,133.998066,114.855485,-9418.149754
900.203944,76.570323,210.568389,-9475.577496
900.204571,76.570323,172.283227,-9533.005238
900.205199,153.140646,153.140646,-9399.007173
900.205826,19.142581,172.283227,-9418.149754
900.206454,95.712904,114.855485,-9456.434915
900.207081,133.998066,114.855485,-9456.434915
900.207709,76.570323,114.855485,-9494.720077
900.208337,76.570323,153.140646,-9456.434915
900.208964,57.427742,133.998066,-9360.722011
900.209592,38.285162,153.140646,-9456.434915
900.210219,38.285162,153.140646,-9437.292334
900.210847,172.283227,76.570323,-9456.434915
900.211474,133.998066,114.855485,-9418.149754
900.212102,95.712904,133.998066,-9360.722011
900.212729,57.427742,114.855485,-9399.007173
900.213357,133.998066,114.855485,-9437.292334
900.213984,133.998066,114.855485,-9418.149754
900.214612,133.998066,172.283227,-9418.149754
900.215239,76.570323,114.855485,-9418.149754
900.215867,114.855485,114.855485,-9456.434915
900.216495,153.140646,133.998066,-9399.007173
900.217122,95.712904,114.855485,-9418.149754
900.217750,133.998066,172.283227,-9437.292334
900.218377,153.140646,172.283227,-9494.720077
900.219005,133.998066,153.140646,-9437.292334
900.219632,76.570323,191.425808,-9475.577496
900.220260,76.570323,114.855485,-9437.292334
900.220887,153.140646,133.998066,-9399.007173
900.221515,133.998066,172.283227,-9437.292334
900.222142,76.570323,114.855485,-9418.149754
900.222770,133.998066,172.283227,-9418.149754
900.223398,76.570323,172.283227,-9456.434915
900.224025,210.568389,191.425808,-9399.007173
900.224653,153.140646,133.998066,-9456.434915
900.225280,133.998066,191.425808,-9456.434915
900.225908,133.998066,172.283227,-9418.149754
900.226535,76.570323,172.283227,-9437.292334
900.227163,38.285162,114.855485,-9437.292334
900.227790,76.570323,114.855485,-9456.434915
900.228418,76.570323,114.855485,-9418.149754
900.229045,76.570323,133.998066,-9360.722011
900.229673,76.570323,210.568389,-9418.149754
900.230300,95.712904,114.855485,-9437.292334
900.230928,172.283227,114.855485,-9379.864592
900.231556,95.712904,95.712904,-9437.292334
900.232183,76.570323,172.283227,-9418.149754
900.232811,153.140646,133.998066,-9399.007173
900.233438,38.285162,114.855485,-9437.292334
900.234066,133.998066,114.855485,-9418.149754
900.234693,133.998066,210.568389,-9437.292334
900.235321,133.998066,153.140646,-9418.149754
900.235948,133.998066,172.283227,-9418.149754
900.236576,38.285162,114.855485,-9418.149754
900.237203,133.998066,114.855485,-9418.149754
900.237831,133.998066,114.855485,-9418.149754
900.238459,76.570323,172.283227,-9456.434915
900.239086,133.998066,153.140646,-9418.149754
900.239714,133.998066,133.998066,-9437.292334
900.240341,95.712904,133.998066,-9360.722011
900.240969,38.285162,172.283227,-9418.149754
900.241596,133.998066,114.855485,-9418.149754
900.242224,133.998066,153.140646,-9418.149754
900.242851,133.998066,172.283227,-9418.149754
900.243479,133.998066,114.855485,-9418.149754
900.244106,133.998066,172.283227,-9418.149754
900.244734,133.998066,153.140646,-9418.149754
900.245362,76.570323,153.140646,-9418.149754
900.245989,38.285162,114.855485,-9418.149754
900.246617,76.570323,172.283227,-9418.149754
900.247244,38.285162,114.855485,-9418.149754
900.247872,76.570323,210.568389,-9360.722011
900.248499,38.285162,114.855485,-9418.149754
900.249127,76.570323,172.283227,-9418.149754
900.249754,153.140646,191.425808,-9418.149754
900.250382,19.142581,191.425808,-9437.292334
900.251009,114.855485,172.283227,-9360.722011
900.251637,95.712904,191.425808,-9418.149754
900.252264,133.998066,172.283227,-9456.434915
900.252892,133.998066,172.283227,-9456.434915
900.253520,133.998066,153.140646,-9418.149754
900.254147,76.570323,153.140646,-9475.577496
900.254775,133.998066,133.998066,-9399.007173
900.255402,76.570323,114.855485,-9418.149754
900.256030,76.570323,114.855485,-9418.149754
900.256657,38.285162,153.140646,-9456.434915
900.257285,76.570323,114.855485,-9418.149754
900.257912,95.712904,153.140646,-9418.149754
900.258540,38.285162,153.140646,-9379.864592
900.259167,57.427742,95.712904,-9399.007173
900.259795,38.285162,114.855485,-9418.149754
900.260423,133.998066,114.855485,-9418.149754
900.261050,153.140646,153.140646,-9437.292334
900.261678,114.855485,95.712904,-9399.007173
900.262305,95.712904,114.855485,-9456.434915
900.262933,133.998066,210.568389,-9437.292334
900.263560,76.570323,114.855485,-9418.149754
900.264188,76.570323,114.855485,-9437.292334
900.264815,133.998066,153.140646,-9418.149754
900.265443,76.570323,114.855485,-9418.149754
900.266070,38.285162,114.855485,-9418.149754
900.266698,133.998066,210.568389,-9418.149754
900.267325,133.998066,133.998066,-9399.007173
900.267953,76.570323,114.855485,-9456.434915
900.268581,76.570323,114.855485,-9437.292334
900.269208,38.285162,229.710970,-9418.149754
900.269836,38.285162,114.855485,-9418.149754
900.270463,95.712904,114.855485,-9418.149754
900.271091,133.998066,114.855485,-9437.292334
900.271718,153.140646,133.998066,-9456.434915
900.272346,95.712904,95.712904,-9437.292334
900.272973,95.712904,114.855485,-9475.577496
900.273601,76.570323,153.140646,-9475.577496
900.274228,76.570323,114.855485,-9418.149754
900.274856,38.285162,172.283227,-9456.434915
900.275483,133.998066,114.855485,-9418.149754
900.276111,133.998066,114.855485,-9456.434915
900.276738,133.998066,210.568389,-9456.434915
900.277366,133.998066,114.855485,-9475.577496
900.277993,76.570323,210.568389,-9456.434915
900.278621,76.570323,114.855485,-9418.149754
900.279248,76.570323,114.855485,-9418.149754
900.279875,133.998066,172.283227,-9418.149754
900.280503,76.570323,114.855485,-9456.434915
900.281130,76.570323,114.855485,-9418.149754
900.281758,57.427742,172.283227,-9418.149754
900.282385,38.285162,210.568389,-9418.149754
900.283013,133.998066,153.140646,-9418.149754
900.283640,133.998066,114.855485,-9418.149754
900.284268,95.712904,95.712904,-9456.434915
900.284895,76.570323,229.710970,-9475.577496
900.285522,153.140646,191.425808,-9437.292334
900.286150,38.285162,114.855485,-9456.434915
900.286777,57.427742,114.855485,-9418.149754
900.287405,76.570323,114.855485,-9437.292334
900.288032,133.998066,133.998066,-9399.007173
900.288660,133.998066,114.855485,-9418.149754
900.289287,95.712904,153.140646,-9475.577496
900.289914,133.998066,114.855485,-9437.292334
900.290542,76.570323,114.855485,-9456.434915
900.291169,76.570323,114.855485,-9418.149754
900.291797,133.998066,114.855485,-9418.149754
900.292424,76.570323,114.855485,-9418.149754
900.293052,95.712904,95.712904,-9494.720077
900.293679,133.998066,114.855485,-9437.292334
900.294307,76.570323,210.568389,-9437.292334
900.294934,38.285162,172.283227,-9456.434915
900.295561,76.570323,210.568389,-9418.149754
900.296189,95.712904,114.855485,-9418.149754
900.296816,133.998066,114.855485,-9418.149754
900.297444,76.570323,114.855485,-9418.149754
900.298071,133.998066,153.140646,-9456.434915
900.298699,95.712904,114.855485,-9437.292334
900.299326,133.998066,172.283227,-9418.149754
900.299953,133.998066,153.140646,-9418.149754
900.300581,76.570323,153.140646,-9418.149754
900.301208,133.998066,172.283227,-9418.149754
900.301836,76.570323,153.140646,-9494.720077
900.302463,76.570323,172.283227,-9494.720077
900.303091,133.998066,153.140646,-9418.149754
900.303718,133.998066,114.855485,-9418.149754
900.304346,153.140646,172.283227,-9399.007173
900.304973,76.570323,114.855485,-9418.149754
900.305600,76.570323,172.283227,-9456.434915
900.306228,38.285162,172.283227,-9456.434915
900.306855,133.998066,114.855485,-9456.434915
900.307483,76.570323,191.425808,-9418.149754
900.308110,95.712904,153.140646,-9418.149754
900.308738,133.998066,114.855485,-9533.005238
900.309365,133.998066,153.140646,-9437.292334
900.309992,133.998066,210.568389,-9418.149754
900.310620,76.570323,114.855485,-9475.577496
900.311247,133.998066,133.998066,-9399.007173
900.311875,114.855485,114.855485,-9494.720077
900.312502,133.998066,114.855485,-9456.434915
900.313130,133.998066,114.855485,-9456.434915
900.313757,38.285162,114.855485,-9437.292334
900.314385,133.998066,114.855485,-9437.292334
900.315012,76.570323,114.855485,-9418.149754
900.315639,95.712904,114.855485,-9418.149754
900.316267,38.285162,114.855485,-9418.149754
900.316894,76.570323,210.568389,-9418.149754
900.317522,95.712904,172.283227,-9360.722011
900.318149,76.570323,114.855485,-9456.434915
900.318777,76.570323,172.283227,-9418.149754
900.319404,133.998066,191.425808,-9437.292334
900.320031,38.285162,114.855485,-9418.149754
900.320659,133.998066,172.283227,-9475.577496
900.321286,133.998066,114.855485,-9456.434915
900.321914,133.998066,114.855485,-9418.149754
900.322541,133.998066,114.855485,-9360.722011
900.323169,76.570323,114.855485,-9437.292334
900.323796,114.855485,95.712904,-9456.434915
900.324424,76.570323,172.283227,-9437.292334
900.325051,133.998066,172.283227,-9437.292334
900.325678,133.998066,172.283227,-9418.149754
900.326306,133.998066,114.855485,-9456.434915
900.326933,153.140646,172.283227,-9399.007173
900.327561,57.427742,133.998066,-9341.579430
900.328188,133.998066,133.998066,-9399.007173
900.328816,133.998066,114.855485,-9437.292334
900.329443,38.285162,172.283227,-9418.149754
900.330070,153.140646,191.425808,-9399.007173
900.330698,153.140646,172.283227,-9437.292334
900.331325,76.570323,114.855485,-9494.720077
900.331953,76.570323,172.283227,-9475.577496
900.332580,76.570323,114.855485,-9418.149754
900.333208,76.570323,153.140646,-9437.292334
900.333835,153.140646,114.855485,-9456.434915
900.334462,153.140646,133.998066,-9399.007173
900.335090,153.140646,153.140646,-9399.007173
900.335717,133.998066,114.855485,-9418.149754
900.336345,133.998066,114.855485,-9437.292334
900.336972,172.283227,76.570323,-9418.149754
900.337600,133.998066,133.998066,-9399.007173
900.338227,38.285162,153.140646,-9418.149754
900.338855,153.140646,133.998066,-9399.007173
900.339482,114.855485,95.712904,-9399.007173
900.340109,76.570323,210.568389,-9418.149754
900.340737,76.570323,172.283227,-9418.149754
900.341364,133.998066,133.998066,-9437.292334
900.341992,76.570323,114.855485,-9456.434915
900.342619,133.998066,172.283227,-9456.434915
900.343247,133.998066,114.855485,-9418.149754
900.343874,114.855485,114.855485,-9379.864592
900.344501,76.570323,172.283227,-9418.149754
900.345129,76.570323,191.425808,-9418.149754
900.345756,153.140646,133.998066,-9399.007173
900.346384,133.998066,191.425808,-9418.149754
900.347011,133.998066,229.710970,-9418.149754
900.347639,76.570323,210.568389,-9418.149754
900.348266,153.140646,153.140646,-9437.292334
900.348894,153.140646,210.568389,-9437.292334
900.349521,133.998066,191.425808,-9456.434915
900.350148,133.998066,114.855485,-9456.434915
900.350776,95.712904,95.712904,-9399.007173
900.351403,76.570323,114.855485,-9475.577496
900.352031,114.855485,114.855485,-9399.007173
900.352658,76.570323,114.855485,-9456.434915
900.353286,133.998066,153.140646,-9418.149754
900.353913,133.998066,114.855485,-9418.149754
900.354540,133.998066,114.855485,-9418.149754
900.355168,114.855485,95.712904,-9456.434915
900.355795,95.712904,114.855485,-9399.007173
900.356423,95.712904,95.712904,-9399.007173
900.357050,133.998066,114.855485,-9418.149754
900.357678,133.998066,114.855485,-9418.149754
900.358305,114.855485,76.570323,-9418.149754
900.358933,95.712904,172.283227,-9360.722011
900.359560,133.998066,114.855485,-9437.292334
900.360187,153.140646,210.568389,-9494.720077
900.360815,76.570323,172.283227,-9456.434915
900.361442,133.998066,172.283227,-9418.149754
900.362070,133.998066,191.425808,-9456.434915
900.362697,76.570323,153.140646,-9437.292334
900.363325,38.285162,114.855485,-9437.292334
900.363952,153.140646,133.998066,-9399.007173
900.364579,133.998066,114.855485,-9456.434915
900.365207,133.998066,114.855485,-9475.577496
900.365834,133.998066,114.855485,-9475.577496
900.366462,153.140646,133.998066,-9399.007173
900.367089,95.712904,95.712904,-9456.434915
900.367717,133.998066,114.855485,-9418.149754
900.368344,133.998066,114.855485,-9437.292334
900.368972,133.998066,172.283227,-9437.292334
900.369599,95.712904,114.855485,-9418.149754
900.370226,133.998066,114.855485,-9418.149754
900.370854,172.283227,133.998066,-9494.720077
900.371481,76.570323,210.568389,-9437.292334
900.372109,133.998066,172.283227,-9418.149754
900.372736,76.570323,114.855485,-9418.149754
900.373364,133.998066,172.283227,-9418.149754
900.373991,76.570323,153.140646,-9456.434915
900.374618,76.570323,114.855485,-9418.149754
900.375246,76.570323,114.855485,-9475.577496
900.375873,76.570323,210.568389,-9475.577496
900.376501,133.998066,114.855485,-9418.149754
900.377128,76.570323,114.855485,-9437.292334
900.377756,133.998066,114.855485,-9437.292334
900.378383,133.998066,114.855485,-9456.434915
900.379011,76.570323,172.283227,-9456.434915
900.379638,76.570323,172.283227,-9418.149754
900.380266,76.570323,114.855485,-9418.149754
900.380894,95.712904,133.998066,-9360.722011
900.381521,133.998066,114.855485,-9418.149754
900.382149,153.140646,133.998066,-9494.720077
900.382776,133.998066,172.283227,-9418.149754
900.383404,95.712904,210.568389,-9418.149754
900.384031,38.285162,114.855485,-9418.149754
900.384659,133.998066,153.140646,-9475.577496
900.385286,76.570323,172.283227,-9437.292334
900.385914,38.285162,114.855485,-9418.149754
900.386541,76.570323,114.855485,-9418.149754
900.387169,114.855485,95.712904,-9399.007173
900.387796,95.712904,76.570323,-9399.007173
900.388424,76.570323,172.283227,-9475.577496
900.389051,95.712904,114.855485,-9418.149754
900.389679,133.998066,114.855485,-9437.292334
900.390306,153.140646,133.998066,-9399.007173
900.390934,95.712904,210.568389,-9418.149754
900.391561,153.140646,172.283227,-9399.007173
900.392189,153.140646,153.140646,-9456.434915
900.392816,133.998066,114.855485,-9418.149754
900.393444,95.712904,114.855485,-9418.149754
900.394071,76.570323,172.283227,-9418.149754
900.394699,95.712904,133.998066,-9360.722011
900.395326,76.570323,114.855485,-9418.149754
900.395954,57.427742,133.998066,-9360.722011
900.396581,133.998066,114.855485,-9437.292334
900.397209,153.140646,133.998066,-9456.434915
900.397836,95.712904,114.855485,-9418.149754
900.398464,133.998066,172.283227,-9475.577496
900.399091,76.570323,114.855485,-9437.292334
900.399719,38.285162,172.283227,-9418.149754
900.400346,76.570323,95.712904,-9456.434915
900.400974,76.570323,114.855485,-9418.149754
900.401601,95.712904,95.712904,-9494.720077
900.402229,38.285162,153.140646,-9533.005238
900.402856,76.570323,114.855485,-9418.149754
900.403484,76.570323,114.855485,-9456.434915
900.404111,76.570323,114.855485,-9360.722011
900.404739,76.570323,114.855485,-9418.149754
900.405366,76.570323,153.140646,-9418.149754
900.405994,133.998066,114.855485,-9418.149754
900.406621,76.570323,153.140646,-9437.292334
900.407249,76.570323,114.855485,-9533.005238
900.407877,76.570323,153.140646,-9418.149754
900.408504,133.998066,153.140646,-9418.149754
900.409132,76.570323,133.998066,-9360.722011
900.409759,76.570323,114.855485,-9437.292334
900.410387,76.570323,114.855485,-9418.149754
900.411014,76.570323,114.855485,-9456.434915
900.411642,76.570323,114.855485,-9437.292334
900.412269,76.570323,114.855485,-9418.149754
900.412897,76.570323,153.140646,-9418.149754
900.413524,38.285162,153.140646,-9418.149754
900.414152,133.998066,114.855485,-9418.149754
900.414779,19.142581,114.855485,-9418.149754
900.415407,133.998066,114.855485,-9418.149754
900.416034,172.283227,95.712904,-9399.007173
900.416662,133.998066,114.855485,-9418.149754
900.417289,133.998066,114.855485,-9418.149754
900.417917,76.570323,114.855485,-9418.149754
900.418544,38.285162,114.855485,-9437.292334
900.419172,76.570323,114.855485,-9418.149754
900.419799,114.855485,172.283227,-9360.722011
900.420427,133.998066,114.855485,-9437.292334
900.421054,76.570323,114.855485,-9418.149754
900.421682,76.570323,114.855485,-9437.292334
900.422309,95.712904,114.855485,-9418.149754
900.422937,133.998066,133.998066,-9379.864592
900.423564,76.570323,172.283227,-9418.149754
900.424192,76.570323,114.855485,-9437.292334
900.424819,76.570323,114.855485,-9418.149754
900.425447,76.570323,172.283227,-9494.720077
900.426074,38.285162,153.140646,-9418.149754
900.426702,38.285162,229.710970,-9418.149754
900.427329,76.570323,114.855485,-9456.434915
900.427957,133.998066,153.140646,-9437.292334
900.428584,114.855485,133.998066,-9360.722011
900.429212,76.570323,172.283227,-9418.149754
900.429839,133.998066,191.425808,-9437.292334
900.430467,95.712904,210.568389,-9418.149754
900.431094,153.140646,153.140646,-9399.007173
900.431722,133.998066,114.855485,-9418.149754
900.432349,133.998066,210.568389,-9418.149754
900.432977,95.712904,114.855485,-9399.007173
900.433605,133.998066,153.140646,-9418.149754
900.434232,76.570323,153.140646,-9437.292334
900.434860,38.285162,153.140646,-9418.149754
900.435487,76.570323,114.855485,-9456.434915
900.436115,133.998066,172.283227,-9437.292334
900.436742,133.998066,114.855485,-9418.149754
900.437370,76.570323,114.855485,-9437.292334
900.437997,133.998066,133.998066,-9399.007173
900.438625,76.570323,153.140646,-9418.149754
900.439252,57.427742,172.283227,-9360.722011
900.439880,133.998066,114.855485,-9418.149754
900.440507,38.285162,114.855485,-9437.292334
900.441135,76.570323,210.568389,-9456.434915
900.441762,76.570323,210.568389,-9418.149754
900.442390,133.998066,153.140646,-9418.149754
900.443017,133.998066,153.140646,-9475.577496
900.443645,133.998066,172.283227,-9437.292334
900.444272,76.570323,114.855485,-9494.720077
900.444900,76.570323,114.855485,-9456.434915
900.445527,76.570323,191.425808,-9437.292334
900.446155,38.285162,210.568389,-9475.577496
900.446782,133.998066,153.140646,-9437.292334
900.447410,76.570323,114.855485,-9456.434915
900.448037,76.570323,153.140646,-9456.434915
900.448665,95.712904,153.140646,-9360.722011
900.449292,57.427742,95.712904,-9399.007173
900.449920,19.142581,210.568389,-9418.149754
900.450547,38.285162,153.140646,-9456.434915
900.451175,76.570323,153.140646,-9456.434915
900.451802,57.427742,191.425808,-9360.722011
900.452430,38.285162,114.855485,-9437.292334
900.453057,133.998066,114.855485,-9418.149754
900.453685,38.285162,114.855485,-9418.149754
900.454312,95.712904,95.712904,-9437.292334
900.454940,38.285162,114.855485,-9456.434915
900.455567,133.998066,191.425808,-9399.007173
900.456195,76.570323,114.855485,-9418.149754
900.456822,133.998066,114.855485,-9437.292334
900.457450,76.570323,114.855485,-9456.434915
900.458077,57.427742,133.998066,-9360.722011
900.458705,95.712904,114.855485,-9418.149754
900.459332,76.570323,153.140646,-9437.292334
900.459960,133.998066,114.855485,-9418.149754
900.460588,76.570323,114.855485,-9418.149754
900.461215,76.570323,114.855485,-9475.577496
900.461843,133.998066,133.998066,-9456.434915
900.462470,95.712904,114.855485,-9437.292334
900.463098,133.998066,114.855485,-9494.720077
900.463725,133.998066,172.283227,-9418.149754
900.464353,172.283227,172.283227,-9379.864592
900.464980,114.855485,114.855485,-9379.864592
900.465608,76.570323,172.283227,-9418.149754
900.466235,76.570323,153.140646,-9418.149754
900.466863,57.427742,172.283227,-9418.149754
900.467490,133.998066,153.140646,-9418.149754
900.468118,133.998066,114.855485,-9418.149754
900.468745,133.998066,172.283227,-9418.149754
900.469373,57.427742,133.998066,-9360.722011
900.470000,153.140646,133.998066,-9399.007173
900.470628,133.998066,153.140646,-9418.149754
900.471255,172.283227,76.570323,-9456.434915
900.471883,76.570323,114.855485,-9456.434915
900.472510,95.712904,133.998066,-9360.722011
900.473138,133.998066,114.855485,-9418.149754
900.473765,76.570323,172.283227,-9418.149754
900.474393,133.998066,172.283227,-9399.007173
900.475020,95.712904,114.855485,-9418.149754
900.475648,114.855485,95.712904,-9399.007173
900.476275,38.285162,191.425808,-9456.434915
900.476902,76.570323,229.710970,-9437.292334
900.477529,114.855485,191.425808,-9360.722011
900.478157,38.285162,114.855485,-9456.434915
900.478784,133.998066,114.855485,-9533.005238
900.479411,76.570323,114.855485,-9475.577496
900.480038,76.570323,172.283227,-9475.577496
900.480665,133.998066,114.855485,-9418.149754
900.481293,133.998066,172.283227,-9418.149754
900.481920,76.570323,210.568389,-9456.434915
900.482547,76.570323,114.855485,-9418.149754
900.483174,95.712904,114.855485,-9418.149754
900.483802,76.570323,114.855485,-9437.292334
900.484429,76.570323,114.855485,-9418.149754
900.485056,38.285162,114.855485,-9418.149754
900.485683,38.285162,114.855485,-9418.149754
900.486310,19.142581,172.283227,-9418.149754
900.486938,76.570323,114.855485,-9437.292334
900.487565,133.998066,114.855485,-9418.149754
900.488192,38.285162,95.712904,-9494.720077
900.488819,57.427742,95.712904,-9437.292334
900.489446,95.712904,114.855485,-9437.292334
900.490074,133.998066,114.855485,-9418.149754
900.490701,153.140646,153.140646,-9456.434915
900.491328,133.998066,172.283227,-9399.007173
900.491955,76.570323,114.855485,-9475.577496
900.492582,133.998066,229.710970,-9456.434915
900.493210,133.998066,210.568389,-9418.149754
900.493837,133.998066,114.855485,-9418.149754
900.494464,133.998066,172.283227,-9418.149754
900.495091,133.998066,153.140646,-9437.292334
900.495719,114.855485,133.998066,-9360.722011
900.496346,76.570323,172.283227,-9437.292334
900.496973,133.998066,210.568389,-9418.149754
900.497600,95.712904,172.283227,-9418.149754
900.498227,153.140646,248.853550,-9399.007173
900.498855,95.712904,114.855485,-9418.149754
900.499482,76.570323,114.855485,-9418.149754
900.500109,114.855485,95.712904,-9456.434915
900.500736,153.140646,153.140646,-9399.007173
900.501363,133.998066,172.283227,-9418.149754
900.501991,133.998066,114.855485,-9456.434915
900.502618,133.998066,133.998066,-9399.007173
900.503245,133.998066,114.855485,-9418.149754
900.503872,76.570323,114.855485,-9456.434915
900.504499,133.998066,133.998066,-9399.007173
900.505127,76.570323,172.283227,-9418.149754
900.505754,57.427742,153.140646,-9437.292334
900.506381,76.570323,114.855485,-9437.292334
900.507008,76.570323,153.140646,-9418.149754
900.507636,76.570323,114.855485,-9418.149754
900.508263,133.998066,153.140646,-9456.434915
900.508890,153.140646,133.998066,-9399.007173
900.509517,133.998066,153.140646,-9456.434915
900.510144,76.570323,114.855485,-9418.149754
900.510772,38.285162,114.855485,-9418.149754
900.511399,95.712904,172.283227,-9418.149754
900.512026,210.568389,153.140646,-9437.292334
900.512653,133.998066,114.855485,-9437.292334
900.513280,133.998066,114.855485,-9437.292334
900.513908,153.140646,133.998066,-9399.007173
900.514535,133.998066,133.998066,-9437.292334
900.515162,153.140646,172.283227,-9475.577496
900.515789,133.998066,114.855485,-9494.720077
900.516417,76.570323,114.855485,-9475.577496
900.517044,76.570323,210.568389,-9456.434915
900.517671,76.570323,114.855485,-9418.149754
900.518298,153.140646,114.855485,-9418.149754
900.518925,95.712904,114.855485,-9418.149754
900.519553,95.712904,210.568389,-9418.149754
900.520180,76.570323,172.283227,-9456.434915
900.520807,76.570323,153.140646,-9418.149754
900.521434,38.285162,114.855485,-9437.292334
900.522061,133.998066,114.855485,-9418.149754
900.522689,133.998066,133.998066,-9399.007173
900.523316,133.998066,210.568389,-9456.434915
900.523943,76.570323,172.283227,-9418.149754
900.524570,133.998066,133.998066,-9399.007173
900.525197,172.283227,76.570323,-9418.149754
900.525825,133.998066,133.998066,-9494.720077
900.526452,153.140646,133.998066,-9399.007173
900.527079,76.570323,153.140646,-9418.149754
900.527706,153.140646,191.425808,-9399.007173
900.528334,114.855485,153.140646,-9456.434915
900.528961,76.570323,172.283227,-9456.434915
900.529588,57.427742,95.712904,-9494.720077
900.530215,133.998066,153.140646,-9418.149754
900.530842,114.855485,153.140646,-9360.722011
900.531470,210.568389,153.140646,-9399.007173
900.532097,133.998066,133.998066,-9399.007173
900.532724,153.140646,153.140646,-9399.007173
900.533351,95.712904,114.855485,-9418.149754
900.533978,38.285162,114.855485,-9437.292334
900.534606,38.285162,153.140646,-9418.149754
900.535233,76.570323,210.568389,-9418.149754
900.535860,76.570323,114.855485,-9437.292334
900.536487,76.570323,114.855485,-9475.577496
900.537114,76.570323,114.855485,-9437.292334
900.537742,76.570323,172.283227,-9456.434915
900.538369,133.998066,133.998066,-9456.434915
900.538996,76.570323,114.855485,-9418.149754
900.539623,153.140646,172.283227,-9399.007173
900.540251,133.998066,114.855485,-9418.149754
900.540878,133.998066,153.140646,-9418.149754
900.541505,133.998066,114.855485,-9494.720077
900.542132,76.570323,153.140646,-9418.149754
900.542759,133.998066,172.283227,-9418.149754
900.543387,38.285162,114.855485,-9418.149754
900.544014,76.570323,153.140646,-9360.722011
900.544641,95.712904,114.855485,-9418.149754
900.545268,133.998066,153.140646,-9494.720077
900.545895,133.998066,114.855485,-9456.434915
900.546523,95.712904,95.712904,-9437.292334
900.547150,38.285162,114.855485,-9437.292334
900.547777,76.570323,95.712904,-9399.007173
900.548404,133.998066,114.855485,-9456.434915
900.549031,76.570323,172.283227,-9418.149754
900.549659,133.998066,114.855485,-9418.149754
900.550286,76.570323,114.855485,-9418.149754
900.550913,133.998066,172.283227,-9418.149754
900.551540,133.998066,114.855485,-9418.149754
900.552168,133.998066,172.283227,-9418.149754
900.552795,133.998066,153.140646,-9418.149754
900.553422,133.998066,133.998066,-9399.007173
900.554049,133.998066,153.140646,-9418.149754
900.554676,133.998066,114.855485,-9418.149754
900.555304,133.998066,210.568389,-9418.149754
900.555931,95.712904,153.140646,-9437.292334
900.556558,114.855485,153.140646,-9379.864592
900.557185,76.570323,114.855485,-9418.149754
900.557812,133.998066,114.855485,-9437.292334
900.558440,76.570323,114.855485,-9456.434915
900.559067,133.998066,114.855485,-9437.292334
900.559694,76.570323,114.855485,-9418.149754
900.560321,38.285162,114.855485,-9418.149754
900.560948,76.570323,172.283227,-9418.149754
900.561576,95.712904,114.855485,-9418.149754
900.562203,133.998066,172.283227,-9456.434915
900.562830,153.140646,172.283227,-9399.007173
900.563457,153.140646,191.425808,-9456.434915
900.564085,76.570323,153.140646,-9456.434915
900.564712,133.998066,153.140646,-9418.149754
900.565339,114.855485,95.712904,-9399.007173
900.565966,95.712904,133.998066,-9360.722011
900.566593,76.570323,172.283227,-9418.149754
900.567221,133.998066,153.140646,-9399.007173
900.567848,133.998066,210.568389,-9456.434915
900.568475,76.570323,210.568389,-9418.149754
900.569102,153.140646,133.998066,-9399.007173
900.569729,133.998066,133.998066,-9399.007173
900.570357,114.855485,153.140646,-9418.149754
900.570984,76.570323,172.283227,-9418.149754
900.571611,153.140646,172.283227,-9494.720077
900.572238,153.140646,153.140646,-9494.720077
900.572865,153.140646,172.283227,-9475.577496
900.573493,38.285162,114.855485,-9533.005238
900.574120,114.855485,95.712904,-9399.007173
900.574747,76.570323,114.855485,-9418.149754
900.575374,95.712904,153.140646,-9418.149754
900.576002,133.998066,114.855485,-9437.292334
900.576629,76.570323,114.855485,-9475.577496
900.577256,95.712904,95.712904,-9456.434915
900.577884,114.855485,95.712904,-9437.292334
900.578511,95.712904,172.283227,-9533.005238
900.579139,133.998066,210.568389,-9437.292334
900.579766,133.998066,153.140646,-9418.149754
900.580393,114.855485,95.712904,-9399.007173
900.581021,153.140646,133.998066,-9399.007173
900.581648,76.570323,114.855485,-9456.434915
900.582276,133.998066,191.425808,-9437.292334
900.582903,76.570323,114.855485,-9437.292334
900.583530,76.570323,114.855485,-9437.292334
900.584158,114.855485,133.998066,-9341.579430
900.584785,114.855485,76.570323,-9418.149754
900.585413,153.140646,191.425808,-9475.577496
900.586040,76.570323,114.855485,-9418.149754
900.586667,133.998066,210.568389,-9418.149754
900.587295,133.998066,114.855485,-9437.292334
900.587922,133.998066,114.855485,-9475.577496
900.588550,95.712904,172.283227,-9418.149754
900.589177,76.570323,153.140646,-9418.149754
900.589804,57.427742,153.140646,-9341.579430
900.590432,133.998066,172.283227,-9418.149754
900.591059,172.283227,114.855485,-9379.864592
900.591687,133.998066,114.855485,-9418.149754
900.592314,76.570323,114.855485,-9437.292334
900.592941,76.570323,153.140646,-9360.722011
900.593569,153.140646,172.283227,-9399.007173
900.594196,133.998066,153.140646,-9418.149754
900.594824,172.283227,248.853550,-9418.149754
900.595451,76.570323,114.855485,-9418.149754
900.596078,76.570323,172.283227,-9418.149754
900.596706,76.570323,172.283227,-9418.149754
900.597333,133.998066,133.998066,-9456.434915
900.597961,133.998066,153.140646,-9456.434915
900.598588,38.285162,153.140646,-9418.149754
900.599215,210.568389,133.998066,-9475.577496
900.599843,153.140646,133.998066,-9399.007173
900.600470,153.140646,76.570323,-9494.720077
900.601098,76.570323,114.855485,-9437.292334
900.601725,76.570323,210.568389,-9418.149754
900.602352,76.570323,172.283227,-9418.149754
900.602980,95.712904,95.712904,-9437.292334
900.603607,76.570323,114.855485,-9418.149754
900.604235,133.998066,114.855485,-9456.434915
900.604862,38.285162,172.283227,-9418.149754
900.605489,114.855485,153.140646,-9360.722011
900.606117,133.998066,114.855485,-9456.434915
900.606744,57.427742,114.855485,-9418.149754
900.607372,153.140646,114.855485,-9418.149754
900.607999,76.570323,172.283227,-9437.292334
900.608626,133.998066,153.140646,-9418.149754
900.609254,76.570323,114.855485,-9456.434915
900.609881,95.712904,133.998066,-9360.722011
900.610509,57.427742,153.140646,-9418.149754
900.611136,76.570323,114.855485,-9437.292334
900.611763,153.140646,133.998066,-9399.007173
900.612391,133.998066,114.855485,-9418.149754
900.613018,76.570323,172.283227,-9418.149754
900.613646,153.140646,114.855485,-9418.149754
900.614273,114.855485,153.140646,-9360.722011
900.614900,76.570323,114.855485,-9475.577496
900.615528,76.570323,114.855485,-9418.149754
900.616155,133.998066,172.283227,-9437.292334
900.616783,76.570323,114.855485,-9456.434915
900.617410,133.998066,114.855485,-9456.434915
900.618037,114.855485,114.855485,-9456.434915
900.618665,133.998066,172.283227,-9456.434915
900.619292,76.570323,114.855485,-9437.292334
900.619920,76.570323,114.855485,-9418.149754
900.620547,38.285162,114.855485,-9418.149754
900.621174,76.570323,114.855485,-9437.292334
900.621802,76.570323,114.855485,-9418.149754
900.622429,76.570323,153.140646,-9418.149754
900.623057,95.712904,133.998066,-9418.149754
900.623684,95.712904,114.855485,-9418.149754
900.624311,133.998066,114.855485,-9437.292334
900.624939,133.998066,153.140646,-9418.149754
900.625566,76.570323,191.425808,-9456.434915
900.626194,76.570323,172.283227,-9437.292334
900.626821,133.998066,114.855485,-9418.149754
900.627448,95.712904,153.140646,-9418.149754
900.628076,133.998066,114.855485,-9456.434915
900.628703,133.998066,153.140646,-9456.434915
900.629331,76.570323,114.855485,-9418.149754
900.629958,38.285162,114.855485,-9456.434915
900.630585,95.712904,114.855485,-9456.434915
900.631213,133.998066,210.568389,-9456.434915
900.631840,95.712904,114.855485,-9418.149754
900.632467,133.998066,229.710970,-9437.292334
900.633095,133.998066,114.855485,-9418.149754
900.633722,133.998066,114.855485,-9456.434915
900.634350,76.570323,172.283227,-9494.720077
900.634977,133.998066,172.283227,-9418.149754
900.635604,153.140646,133.998066,-9456.434915
900.636232,76.570323,114.855485,-9418.149754
900.636859,114.855485,133.998066,-9360.722011
900.637487,133.998066,153.140646,-9494.720077
900.638114,76.570323,114.855485,-9418.149754
900.638741,76.570323,114.855485,-9437.292334
900.639369,76.570323,114.855485,-9418.149754
900.639996,38.285162,114.855485,-9418.149754
900.640624,76.570323,172.283227,-9418.149754
900.641251,76.570323,172.283227,-9475.577496
900.641878,76.570323,153.140646,-9418.149754
900.642506,76.570323,114.855485,-9360.722011
900.643133,133.998066,172.283227,-9475.577496
900.643761,57.427742,95.712904,-9494.720077
900.644388,114.855485,76.570323,-9418.149754
900.645015,133.998066,210.568389,-9418.149754
900.645643,57.427742,172.283227,-9418.149754
900.646270,114.855485,172.283227,-9360.722011
900.646898,133.998066,114.855485,-9475.577496
900.647525,76.570323,172.283227,-9418.149754
900.648152,76.570323,114.855485,-9456.434915
900.648780,95.712904,95.712904,-9437.292334
900.649407,38.285162,114.855485,-9475.577496
900.650035,133.998066,114.855485,-9418.149754
900.650662,76.570323,114.855485,-9418.149754
900.651289,133.998066,172.283227,-9418.149754
900.651917,76.570323,210.568389,-9418.149754
900.652544,76.570323,153.140646,-9437.292334
900.653172,76.570323,172.283227,-9456.434915
900.653799,133.998066,153.140646,-9418.149754
900.654426,133.998066,114.855485,-9456.434915
900.655054,38.285162,229.710970,-9437.292334
900.655681,133.998066,114.855485,-9456.434915
900.656309,38.285162,172.283227,-9475.577496
900.656936,133.998066,114.855485,-9418.149754
900.657563,133.998066,114.855485,-9418.149754
900.658191,133.998066,114.855485,-9475.577496
900.658818,133.998066,114.855485,-9437.292334
900.659446,95.712904,95.712904,-9494.720077
900.660073,133.998066,114.855485,-9418.149754
900.660700,76.570323,172.283227,-9418.149754
900.661328,76.570323,114.855485,-9418.149754
900.661955,133.998066,114.855485,-9360.722011
900.662583,95.712904,114.855485,-9399.007173
900.663210,153.140646,133.998066,-9399.007173
900.663837,133.998066,153.140646,-9418.149754
900.664465,95.712904,95.712904,-9437.292334
900.665092,76.570323,114.855485,-9418.149754
900.665720,133.998066,133.998066,-9494.720077
900.666347,76.570323,114.855485,-9418.149754
900.666974,76.570323,153.140646,-9418.149754
900.667602,76.570323,114.855485,-9418.149754
900.668229,133.998066,114.855485,-9418.149754
900.668857,38.285162,210.568389,-9418.149754
900.669484,133.998066,114.855485,-9418.149754
900.670111,76.570323,172.283227,-9418.149754
900.670739,133.998066,153.140646,-9456.434915
900.671366,153.140646,133.998066,-9399.007173
900.671994,133.998066,114.855485,-9456.434915
900.672621,76.570323,172.283227,-9456.434915
900.673248,133.998066,210.568389,-9418.149754
900.673876,95.712904,114.855485,-9418.149754
900.674503,76.570323,172.283227,-9418.149754
900.675131,76.570323,153.140646,-9418.149754
900.675758,76.570323,114.855485,-9456.434915
900.676385,95.712904,114.855485,-9456.434915
900.677013,76.570323,114.855485,-9418.149754
900.677640,153.140646,172.283227,-9399.007173
900.678268,133.998066,114.855485,-9418.149754
900.678895,133.998066,76.570323,-9399.007173
900.679523,76.570323,229.710970,-9418.149754
900.680150,76.570323,191.425808,-9437.292334
900.680777,76.570323,114.855485,-9418.149754
900.681405,133.998066,114.855485,-9418.149754
900.682032,95.712904,172.283227,-9418.149754
900.682660,133.998066,229.710970,-9456.434915
900.683287,153.140646,191.425808,-9399.007173
900.683914,76.570323,210.568389,-9418.149754
900.684542,133.998066,191.425808,-9456.434915
900.685169,133.998066,114.855485,-9456.434915
900.685797,76.570323,153.140646,-9437.292334
900.686424,133.998066,114.855485,-9456.434915
900.687052,133.998066,114.855485,-9418.149754
900.687679,95.712904,95.712904,-9437.292334
900.688306,57.427742,114.855485,-9418.149754
900.688934,38.285162,114.855485,-9418.149754
900.689561,76.570323,114.855485,-9494.720077
900.690189,76.570323,114.855485,-9418.149754
900.690816,76.570323,114.855485,-9437.292334
900.691444,76.570323,114.855485,-9456.434915
900.692071,133.998066,114.855485,-9437.292334
900.692698,38.285162,114.855485,-9456.434915
900.693326,133.998066,114.855485,-9418.149754
900.693953,76.570323,114.855485,-9418.149754
900.694581,133.998066,114.855485,-9418.149754
900.695208,133.998066,76.570323,-9379.864592
900.695835,133.998066,210.568389,-9418.149754
900.696463,76.570323,210.568389,-9456.434915
900.697090,133.998066,210.568389,-9533.005238
900.697718,76.570323,229.710970,-9418.149754
900.698345,114.855485,229.710970,-9437.292334
900.698973,76.570323,114.855485,-9418.149754
900.699600,38.285162,114.855485,-9418.149754
900.700227,133.998066,114.855485,-9418.149754
900.700855,133.998066,172.283227,-9418.149754
900.701482,133.998066,153.140646,-9418.149754
900.702110,153.140646,172.283227,-9399.007173
900.702737,210.568389,172.283227,-9399.007173
900.703364,133.998066,172.283227,-9418.149754
900.703992,133.998066,153.140646,-9437.292334
900.704619,153.140646,133.998066,-9456.434915
900.705247,76.570323,114.855485,-9437.292334
900.705874,114.855485,95.712904,-9399.007173
900.706502,76.570323,172.283227,-9360.722011
900.707129,76.570323,114.855485,-9437.292334
900.707756,133.998066,153.140646,-9475.577496
900.708384,76.570323,153.140646,-9475.577496
900.709011,133.998066,114.855485,-9418.149754
900.709639,76.570323,172.283227,-9456.434915
900.710266,76.570323,191.425808,-9475.577496
900.710893,38.285162,114.855485,-9418.149754
900.711521,38.285162,153.140646,-9418.149754
900.712148,133.998066,114.855485,-9418.149754
900.712776,76.570323,210.568389,-9418.149754
900.713403,95.712904,95.712904,-9456.434915
900.714031,133.998066,172.283227,-9418.149754
900.714658,95.712904,172.283227,-9437.292334
900.715285,95.712904,172.283227,-9437.292334
900.715913,133.998066,114.855485,-9437.292334
900.716540,76.570323,172.283227,-9418.149754
900.717168,76.570323,114.855485,-9418.149754
900.717795,57.427742,114.855485,-9399.007173
900.718423,133.998066,95.712904,-9418.149754
900.719050,95.712904,153.140646,-9475.577496
900.719677,114.855485,76.570323,-9437.292334
900.720305,133.998066,114.855485,-9418.149754
900.720932,133.998066,133.998066,-9399.007173
900.721560,133.998066,114.855485,-9418.149754
900.722187,57.427742,133.998066,-9360.722011
900.722814,38.285162,114.855485,-9418.149754
900.723442,114.855485,114.855485,-9379.864592
900.724069,76.570323,153.140646,-9399.007173
900.724697,76.570323,114.855485,-9437.292334
900.725324,76.570323,114.855485,-9456.434915
900.725952,133.998066,229.710970,-9418.149754
900.726579,76.570323,172.283227,-9437.292334
900.727206,95.712904,114.855485,-9475.577496
900.727834,76.570323,114.855485,-9437.292334
900.728461,114.855485,172.283227,-9418.149754
900.729089,114.855485,114.855485,-9513.862658
900.729716,133.998066,153.140646,-9475.577496
900.730343,76.570323,114.855485,-9456.434915
900.730971,38.285162,210.568389,-9437.292334
900.731598,95.712904,153.140646,-9437.292334
900.732226,95.712904,172.283227,-9437.292334
900.732853,114.855485,95.712904,-9456.434915
900.733481,153.140646,133.998066,-9399.007173
900.734108,76.570323,114.855485,-9418.149754
900.734735,95.712904,114.855485,-9437.292334
900.735363,133.998066,153.140646,-9494.720077
900.735990,133.998066,114.855485,-9437.292334
900.736618,76.570323,133.998066,-9379.864592
900.737245,114.855485,133.998066,-9360.722011
900.737872,76.570323,114.855485,-9418.149754
900.738500,153.140646,172.283227,-9456.434915
900.739127,38.285162,153.140646,-9418.149754
900.739755,38.285162,114.855485,-9418.149754
900.740382,114.855485,133.998066,-9360.722011
900.741010,153.140646,133.998066,-9399.007173
900.741637,133.998066,153.140646,-9494.720077
900.742264,76.570323,114.855485,-9475.577496
900.742892,38.285162,114.855485,-9437.292334
900.743519,76.570323,172.283227,-9418.149754
900.744147,76.570323,153.140646,-9418.149754
900.744774,114.855485,95.712904,-9456.434915
900.745402,76.570323,153.140646,-9456.434915
900.746029,133.998066,114.855485,-9418.149754
900.746656,38.285162,210.568389,-9418.149754
900.747284,133.998066,114.855485,-9494.720077
900.747911,76.570323,114.855485,-9456.434915
900.748539,76.570323,114.855485,-9494.720077
900.749166,133.998066,114.855485,-9399.007173
900.749793,76.570323,114.855485,-9437.292334
900.750421,38.285162,153.140646,-9418.149754
900.751048,38.285162,172.283227,-9418.149754
900.751676,133.998066,114.855485,-9418.149754
900.752303,133.998066,114.855485,-9418.149754
900.752931,76.570323,114.855485,-9456.434915
900.753558,133.998066,114.855485,-9418.149754
900.754185,133.998066,153.140646,-9418.149754
900.754813,133.998066,114.855485,-9475.577496
900.755440,95.712904,114.855485,-9418.149754
900.756068,133.998066,172.283227,-9475.577496
900.756695,76.570323,153.140646,-9418.149754
900.757322,76.570323,229.710970,-9418.149754
900.757950,133.998066,172.283227,-9418.149754
900.758577,191.425808,114.855485,-9379.864592
900.759205,133.998066,172.283227,-9418.149754
900.759832,95.712904,114.855485,-9399.007173
900.760460,114.855485,133.998066,-9360.722011
900.761087,38.285162,172.283227,-9437.292334
900.761714,76.570323,210.568389,-9437.292334
900.762342,76.570323,114.855485,-9418.149754
900.762969,19.142581,172.283227,-9418.149754
900.763597,76.570323,210.568389,-9418.149754
900.764224,76.570323,153.140646,-9418.149754
900.764851,133.998066,153.140646,-9437.292334
900.765479,133.998066,210.568389,-9418.149754
900.766106,133.998066,114.855485,-9475.577496
900.766734,38.285162,172.283227,-9418.149754
900.767361,133.998066,172.283227,-9418.149754
900.767989,133.998066,172.283227,-9418.149754
900.768616,172.283227,114.855485,-9379.864592
900.769243,76.570323,114.855485,-9456.434915
900.769871,76.570323,114.855485,-9418.149754
900.770498,76.570323,153.140646,-9418.149754
900.771126,76.570323,229.710970,-9475.577496
900.771753,95.712904,114.855485,-9418.149754
900.772381,76.570323,172.283227,-9418.149754
900.773008,133.998066,114.855485,-9418.149754
900.773635,38.285162,133.998066,-9418.149754
900.774263,76.570323,114.855485,-9418.149754
900.774890,133.998066,191.425808,-9418.149754
900.775518,133.998066,114.855485,-9418.149754
900.776145,76.570323,114.855485,-9418.149754
900.776772,76.570323,114.855485,-9418.149754
900.777400,76.570323,114.855485,-9475.577496
900.778027,57.427742,95.712904,-9399.007173
900.778655,76.570323,114.855485,-9456.434915
900.779282,76.570323,172.283227,-9437.292334
900.779909,133.998066,114.855485,-9418.149754
900.780537,57.427742,95.712904,-9399.007173
900.781164,38.285162,114.855485,-9437.292334
900.781792,133.998066,114.855485,-9418.149754
900.782419,95.712904,172.283227,-9418.149754
900.783046,76.570323,172.283227,-9437.292334
900.783674,95.712904,172.283227,-9437.292334
900.784301,133.998066,248.853550,-9399.007173
900.784929,133.998066,114.855485,-9418.149754
900.785556,133.998066,172.283227,-9437.292334
900.786183,133.998066,133.998066,-9399.007173
900.786811,76.570323,153.140646,-9418.149754
900.787438,114.855485,133.998066,-9360.722011
900.788066,133.998066,114.855485,-9418.149754
900.788693,95.712904,153.140646,-9475.577496
900.789321,95.712904,153.140646,-9418.149754
900.789948,133.998066,172.283227,-9456.434915
900.790575,95.712904,210.568389,-9456.434915
900.791203,133.998066,172.283227,-9418.149754
900.791830,76.570323,172.283227,-9437.292334
900.792458,57.427742,133.998066,-9360.722011
900.793085,57.427742,153.140646,-9418.149754
900.793712,76.570323,114.855485,-9418.149754
900.794340,133.998066,114.855485,-9418.149754
900.794967,95.712904,95.712904,-9399.007173
900.795595,133.998066,114.855485,-9418.149754
900.796222,133.998066,114.855485,-9437.292334
900.796849,76.570323,153.140646,-9456.434915
900.797477,133.998066,114.855485,-9418.149754
900.798104,76.570323,191.425808,-9437.292334
900.798732,95.712904,114.855485,-9494.720077
900.799359,133.998066,191.425808,-9437.292334
900.799986,76.570323,114.855485,-9418.149754
900.800614,133.998066,153.140646,-9418.149754
900.801241,153.140646,133.998066,-9399.007173
900.801869,133.998066,172.283227,-9418.149754
900.802496,76.570323,114.855485,-9475.577496
900.803123,133.998066,153.140646,-9456.434915
900.803751,76.570323,114.855485,-9418.149754
900.804378,38.285162,114.855485,-9418.149754
900.805006,76.570323,114.855485,-9418.149754
900.805633,133.998066,153.140646,-9533.005238
900.806260,114.855485,95.712904,-9456.434915
900.806888,133.998066,153.140646,-9418.149754
900.807515,153.140646,172.283227,-9494.720077
900.808143,38.285162,114.855485,-9418.149754
900.808770,114.855485,114.855485,-9494.720077
900.809397,38.285162,114.855485,-9418.149754
900.810025,76.570323,114.855485,-9437.292334
900.810652,114.855485,95.712904,-9437.292334
900.811280,133.998066,153.140646,-9418.149754
900.811907,172.283227,172.283227,-9379.864592
900.812534,76.570323,153.140646,-9418.149754
900.813162,76.570323,114.855485,-9418.149754
900.813789,76.570323,114.855485,-9437.292334
900.814417,133.998066,114.855485,-9418.149754
900.815044,76.570323,114.855485,-9418.149754
900.815671,133.998066,114.855485,-9418.149754
900.816299,38.285162,114.855485,-9418.149754
900.816926,76.570323,114.855485,-9418.149754
900.817554,76.570323,114.855485,-9418.149754
900.818181,114.855485,172.283227,-9360.722011
900.818808,76.570323,114.855485,-9437.292334
900.819436,133.998066,114.855485,-9475.577496
900.820063,76.570323,153.140646,-9418.149754
900.820691,38.285162,114.855485,-9418.149754
900.821318,133.998066,114.855485,-9360.722011
900.821945,133.998066,114.855485,-9418.149754
900.822573,38.285162,172.283227,-9533.005238
900.823200,76.570323,114.855485,-9418.149754
900.823828,114.855485,95.712904,-9513.862658
900.824455,114.855485,76.570323,-9475.577496
900.825082,133.998066,133.998066,-9399.007173
900.825710,153.140646,114.855485,-9418.149754
900.826337,38.285162,114.855485,-9437.292334
900.826965,76.570323,114.855485,-9437.292334
900.827592,76.570323,114.855485,-9418.149754
900.828219,153.140646,95.712904,-9360.722011
900.828847,172.283227,172.283227,-9341.579430
900.829474,76.570323,172.283227,-9418.149754
900.830102,76.570323,210.568389,-9418.149754
900.830729,76.570323,210.568389,-9418.149754
900.831357,76.570323,114.855485,-9475.577496
900.831984,76.570323,172.283227,-9418.149754
900.832611,76.570323,172.283227,-9418.149754
900.833239,133.998066,172.283227,-9437.292334
900.833866,133.998066,114.855485,-9418.149754
900.834494,76.570323,114.855485,-9418.149754
900.835121,76.570323,114.855485,-9418.149754
900.835748,133.998066,114.855485,-9475.577496
900.836376,133.998066,172.283227,-9437.292334
900.837003,133.998066,114.855485,-9418.149754
900.837631,133.998066,153.140646,-9418.149754
900.838258,95.712904,95.712904,-9399.007173
900.838885,76.570323,114.855485,-9418.149754
900.839513,95.712904,95.712904,-9379.864592
900.840140,133.998066,114.855485,-9418.149754
900.840768,133.998066,114.855485,-9456.434915
900.841395,95.712904,172.283227,-9360.722011
900.842022,76.570323,153.140646,-9437.292334
900.842650,133.998066,114.855485,-9456.434915
900.843277,133.998066,153.140646,-9418.149754
900.843905,153.140646,133.998066,-9399.007173
900.844532,133.998066,133.998066,-9399.007173
900.845159,133.998066,114.855485,-9437.292334
900.845787,76.570323,114.855485,-9437.292334
900.846414,114.855485,95.712904,-9456.434915
900.847042,76.570323,114.855485,-9456.434915
900.847669,76.570323,153.140646,-9437.292334
900.848296,57.427742,114.855485,-9418.149754
900.848924,95.712904,95.712904,-9437.292334
900.849551,133.998066,172.283227,-9418.149754
900.850179,38.285162,114.855485,-9418.149754
900.850806,95.712904,95.712904,-9399.007173
900.851433,76.570323,172.283227,-9456.434915
900.852061,38.285162,153.140646,-9475.577496
900.852688,76.570323,172.283227,-9418.149754
900.853316,76.570323,153.140646,-9418.149754
900.853943,133.998066,153.140646,-9418.149754
900.854570,76.570323,114.855485,-9418.149754
900.855198,133.998066,114.855485,-9360.722011
900.855825,133.998066,133.998066,-9456.434915
900.856453,57.427742,95.712904,-9399.007173
900.857080,76.570323,133.998066,-9360.722011
900.857707,133.998066,114.855485,-9418.149754
900.858335,76.570323,114.855485,-9418.149754
900.858962,38.285162,114.855485,-9418.149754
900.859590,133.998066,172.283227,-9418.149754
900.860217,76.570323,114.855485,-9418.149754
900.860844,133.998066,172.283227,-9418.149754
900.861472,133.998066,153.140646,-9399.007173
900.862099,114.855485,133.998066,-9360.722011
900.862727,76.570323,114.855485,-9456.434915
900.863354,38.285162,172.283227,-9418.149754
900.863981,38.285162,172.283227,-9437.292334
900.864609,76.570323,114.855485,-9437.292334
900.865236,38.285162,210.568389,-9456.434915
900.865864,133.998066,114.855485,-9456.434915
900.866491,95.712904,172.283227,-9360.722011
900.867118,153.140646,133.998066,-9456.434915
900.867746,95.712904,95.712904,-9399.007173
900.868373,38.285162,172.283227,-9418.149754
900.869001,153.140646,172.283227,-9399.007173
900.869628,153.140646,191.425808,-9399.007173
900.870255,133.998066,114.855485,-9437.292334
900.870883,133.998066,153.140646,-9399.007173
900.871510,76.570323,153.140646,-9418.149754
900.872138,76.570323,153.140646,-9456.434915
900.872765,76.570323,153.140646,-9437.292334
900.873393,95.712904,114.855485,-9418.149754
900.874020,153.140646,191.425808,-9456.434915
900.874647,153.140646,133.998066,-9456.434915
900.875275,133.998066,153.140646,-9437.292334
900.875902,133.998066,114.855485,-9418.149754
900.876530,133.998066,172.283227,-9456.434915
900.877157,95.712904,95.712904,-9399.007173
900.877784,76.570323,210.568389,-9418.149754
900.878411,76.570323,153.140646,-9418.149754
900.879039,76.570323,153.140646,-9475.577496
900.879666,133.998066,133.998066,-9399.007173
900.880293,95.712904,172.283227,-9418.149754
900.880920,153.140646,153.140646,-9399.007173
900.881547,133.998066,114.855485,-9418.149754
900.882174,76.570323,95.712904,-9437.292334
900.882802,133.998066,114.855485,-9418.149754
900.883429,133.998066,153.140646,-9418.149754
900.884056,153.140646,133.998066,-9494.720077
900.884683,38.285162,114.855485,-9437.292334
900.885310,114.855485,95.712904,-9494.720077
900.885938,133.998066,133.998066,-9437.292334
900.886565,57.427742,57.427742,-9399.007173
900.887192,38.285162,172.283227,-9437.292334
900.887819,76.570323,114.855485,-9437.292334
900.888446,76.570323,114.855485,-9418.149754
900.889074,38.285162,114.855485,-9418.149754
900.889701,76.570323,133.998066,-9360.722011
900.890328,114.855485,95.712904,-9399.007173
900.890955,133.998066,114.855485,-9418.149754
900.891582,76.570323,114.855485,-9418.149754
900.892210,76.570323,210.568389,-9418.149754
900.892837,210.568389,95.712904,-9360.722011
900.893464,95.712904,95.712904,-9399.007173
900.894091,95.712904,114.855485,-9437.292334
900.894718,76.570323,114.855485,-9418.149754
900.895346,114.855485,133.998066,-9437.292334
900.895973,133.998066,153.140646,-9437.292334
900.896600,76.570323,191.425808,-9475.577496
900.897227,133.998066,114.855485,-9418.149754
900.897854,153.140646,133.998066,-9456.434915
900.898482,95.712904,95.712904,-9437.292334
900.899109,95.712904,95.712904,-9399.007173
900.899736,133.998066,153.140646,-9475.577496
900.900363,76.570323,114.855485,-9456.434915
900.900990,133.998066,114.855485,-9418.149754
900.901618,133.998066,153.140646,-9494.720077
900.902245,76.570323,114.855485,-9418.149754
900.902872,133.998066,114.855485,-9437.292334
900.903499,133.998066,114.855485,-9456.434915
900.904126,114.855485,95.712904,-9399.007173
900.904754,133.998066,114.855485,-9437.292334
900.905381,95.712904,95.712904,-9399.007173
900.906008,133.998066,114.855485,-9418.149754
900.906635,133.998066,133.998066,-9437.292334
900.907262,95.712904,172.283227,-9533.005238
900.907889,76.570323,114.855485,-9456.434915
900.908517,95.712904,133.998066,-9360.722011
900.909144,133.998066,114.855485,-9418.149754
900.909771,133.998066,172.283227,-9399.007173
900.910398,133.998066,172.283227,-9418.149754
900.911025,76.570323,172.283227,-9418.149754
900.911653,38.285162,114.855485,-9418.149754
900.912280,76.570323,114.855485,-9418.149754
900.912907,133.998066,114.855485,-9418.149754
900.913534,76.570323,114.855485,-9437.292334
900.914161,133.998066,153.140646,-9437.292334
900.914789,153.140646,133.998066,-9399.007173
900.915416,76.570323,172.283227,-9418.149754
900.916043,95.712904,153.140646,-9437.292334
900.916670,133.998066,114.855485,-9418.149754
900.917297,38.285162,114.855485,-9418.149754
900.917925,76.570323,172.283227,-9418.149754
900.918552,95.712904,114.855485,-9456.434915
900.919179,76.570323,114.855485,-9418.149754
900.919806,133.998066,153.140646,-9437.292334
900.920433,38.285162,114.855485,-9437.292334
900.921061,76.570323,114.855485,-9456.434915
900.921688,133.998066,210.568389,-9418.149754
900.922315,76.570323,114.855485,-9418.149754
900.922942,76.570323,210.568389,-9456.434915
900.923569,133.998066,114.855485,-9418.149754
900.924197,133.998066,153.140646,-9418.149754
900.924824,133.998066,114.855485,-9418.149754
900.925451,133.998066,153.140646,-9456.434915
900.926078,133.998066,114.855485,-9418.149754
900.926705,95.712904,133.998066,-9418.149754
900.927333,19.142581,114.855485,-9418.149754
900.927960,76.570323,114.855485,-9418.149754
900.928587,76.570323,76.570323,-9379.864592
900.929214,76.570323,114.855485,-9437.292334
900.929841,133.998066,172.283227,-9456.434915
900.930469,76.570323,95.712904,-9399.007173
900.931096,133.998066,114.855485,-9437.292334
900.931723,19.142581,210.568389,-9437.292334
900.932350,38.285162,114.855485,-9437.292334
900.932977,95.712904,114.855485,-9399.007173
900.933604,38.285162,114.855485,-9418.149754
900.934232,38.285162,114.855485,-9418.149754
900.934859,76.570323,172.283227,-9418.149754
900.935486,114.855485,191.425808,-9360.722011
900.936113,76.570323,114.855485,-9437.292334
900.936740,38.285162,153.140646,-9437.292334
900.937368,133.998066,133.998066,-9399.007173
900.937995,133.998066,153.140646,-9418.149754
900.938622,76.570323,172.283227,-9418.149754
900.939249,38.285162,114.855485,-9456.434915
900.939876,38.285162,114.855485,-9456.434915
900.940504,133.998066,114.855485,-9437.292334
900.941131,133.998066,133.998066,-9399.007173
900.941758,133.998066,114.855485,-9418.149754
900.942385,95.712904,133.998066,-9418.149754
900.943012,114.855485,95.712904,-9399.007173
900.943640,76.570323,172.283227,-9418.149754
900.944267,133.998066,114.855485,-9437.292334
900.944894,133.998066,114.855485,-9475.577496
900.945521,95.712904,153.140646,-9456.434915
900.946148,133.998066,114.855485,-9437.292334
900.946776,76.570323,114.855485,-9418.149754
900.947403,38.285162,114.855485,-9418.149754
900.948030,133.998066,114.855485,-9418.149754
900.948657,76.570323,114.855485,-9418.149754
900.949284,76.570323,172.283227,-9418.149754
900.949912,133.998066,114.855485,-9418.149754
900.950539,95.712904,114.855485,-9456.434915
900.951166,95.712904,95.712904,-9399.007173
900.951793,133.998066,114.855485,-9418.149754
900.952420,95.712904,133.998066,-9360.722011
900.953048,38.285162,172.283227,-9418.149754
900.953675,76.570323,153.140646,-9418.149754
900.954302,76.570323,172.283227,-9418.149754
900.954929,95.712904,153.140646,-9437.292334
900.955556,133.998066,114.855485,-9418.149754
900.956184,133.998066,114.855485,-9418.149754
900.956811,133.998066,153.140646,-9399.007173
900.957438,133.998066,114.855485,-9418.149754
900.958065,133.998066,153.140646,-9418.149754
900.958692,114.855485,114.855485,-9379.864592
900.959320,76.570323,172.283227,-9456.434915
900.959947,76.570323,153.140646,-9456.434915
900.960574,19.142581,153.140646,-9418.149754
900.961201,95.712904,95.712904,-9399.007173
900.961828,133.998066,114.855485,-9437.292334
900.962455,38.285162,114.855485,-9418.149754
900.963083,76.570323,172.283227,-9418.149754
900.963710,38.285162,153.140646,-9418.149754
900.964337,114.855485,133.998066,-9437.292334
900.964964,76.570323,114.855485,-9418.149754
900.965591,76.570323,248.853550,-9360.722011
900.966219,76.570323,210.568389,-9437.292334
900.966846,38.285162,172.283227,-9418.149754
900.967473,133.998066,210.568389,-9418.149754
900.968100,133.998066,210.568389,-9418.149754
900.968727,76.570323,114.855485,-9418.149754
900.969355,133.998066,114.855485,-9418.149754
900.969982,114.855485,153.140646,-9360.722011
900.970609,114.855485,153.140646,-9360.722011
900.971236,133.998066,114.855485,-9418.149754
900.971863,153.140646,191.425808,-9456.434915
900.972491,133.998066,172.283227,-9418.149754
900.973118,95.712904,114.855485,-9437.292334
900.973745,153.140646,153.140646,-9437.292334
900.974372,76.570323,153.140646,-9418.149754
900.974999,95.712904,114.855485,-9418.149754
900.975627,76.570323,153.140646,-9418.149754
900.976254,76.570323,172.283227,-9418.149754
900.976881,38.285162,153.140646,-9494.720077
900.977508,133.998066,172.283227,-9533.005238
900.978135,114.855485,95.712904,-9494.720077
900.978763,95.712904,172.283227,-9418.149754
900.979390,114.855485,114.855485,-9399.007173
900.980017,114.855485,95.712904,-9399.007173
900.980645,133.998066,229.710970,-9437.292334
900.981272,76.570323,210.568389,-9418.149754
900.981899,38.285162,114.855485,-9437.292334
900.982526,133.998066,153.140646,-9456.434915
900.983154,133.998066,114.855485,-9418.149754
900.983781,133.998066,114.855485,-9418.149754
900.984408,38.285162,114.855485,-9418.149754
900.985035,133.998066,210.568389,-9418.149754
900.985663,38.285162,114.855485,-9456.434915
900.986290,76.570323,114.855485,-9437.292334
900.986917,133.998066,114.855485,-9456.434915
900.987545,76.570323,114.855485,-9418.149754
900.988172,38.285162,191.425808,-9418.149754
900.988799,38.285162,210.568389,-9418.149754
900.989426,133.998066,153.140646,-9418.149754
900.990054,133.998066,114.855485,-9418.149754
900.990681,76.570323,114.855485,-9437.292334
900.991308,76.570323,114.855485,-9456.434915
900.991935,76.570323,172.283227,-9418.149754
900.992563,95.712904,114.855485,-9418.149754
900.993190,95.712904,153.140646,-9418.149754
900.993817,133.998066,210.568389,-9418.149754
900.994445,133.998066,114.855485,-9418.149754
900.995072,76.570323,114.855485,-9418.149754
900.995699,114.855485,153.140646,-9360.722011
900.996326,133.998066,210.568389,-9418.149754
900.996954,95.712904,172.283227,-9418.149754
900.997581,133.998066,114.855485,-9456.434915
900.998208,76.570323,114.855485,-9418.149754
900.998835,76.570323,114.855485,-9418.149754
900.999463,133.998066,114.855485,-9418.149754
901.000090,153.140646,114.855485,-9418.149754
901.000717,133.998066,114.855485,-9418.149754
901.001344,133.998066,210.568389,-9418.149754
901.001972,114.855485,114.855485,-9399.007173
901.002599,38.285162,172.283227,-9418.149754
901.003226,76.570323,114.855485,-9437.292334
901.003854,76.570323,172.283227,-9456.434915
901.004481,133.998066,114.855485,-9437.292334
901.005108,114.855485,95.712904,-9399.007173
901.005735,153.140646,153.140646,-9494.720077
901.006363,133.998066,172.283227,-9418.149754
901.006990,133.998066,114.855485,-9418.149754
901.007617,76.570323,172.283227,-9418.149754
901.008244,133.998066,133.998066,-9437.292334
901.008872,153.140646,133.998066,-9437.292334
901.009499,133.998066,191.425808,-9418.149754
901.010126,95.712904,172.283227,-9437.292334
901.010754,57.427742,133.998066,-9360.722011
901.011381,38.285162,172.283227,-9418.149754
901.012008,95.712904,153.140646,-9437.292334
901.012635,114.855485,76.570323,-9437.292334
901.013263,76.570323,114.855485,-9475.577496
901.013890,76.570323,114.855485,-9437.292334
901.014517,38.285162,172.283227,-9418.149754
901.015144,133.998066,153.140646,-9437.292334
901.015772,133.998066,153.140646,-9399.007173
901.016399,133.998066,153.140646,-9437.292334
901.017026,153.140646,133.998066,-9399.007173
901.017654,38.285162,114.855485,-9418.149754
901.018281,95.712904,153.140646,-9360.722011
901.018908,38.285162,114.855485,-9418.149754
901.019535,153.140646,114.855485,-9360.722011
901.020163,57.427742,133.998066,-9360.722011
901.020790,133.998066,172.283227,-9437.292334
901.021417,133.998066,153.140646,-9437.292334
901.022044,95.712904,114.855485,-9456.434915
901.022672,133.998066,153.140646,-9418.149754
901.023299,133.998066,210.568389,-9437.292334
901.023926,153.140646,248.853550,-9399.007173
901.024554,133.998066,114.855485,-9418.149754
901.025181,133.998066,133.998066,-9399.007173
901.025808,133.998066,153.140646,-9418.149754
901.026435,76.570323,133.998066,-9360.722011
901.027063,114.855485,133.998066,-9418.149754
901.027690,133.998066,172.283227,-9418.149754
901.028317,133.998066,172.283227,-9418.149754
901.028944,153.140646,210.568389,-9418.149754
901.029572,76.570323,114.855485,-9418.149754
901.030199,153.140646,172.283227,-9399.007173
901.030826,76.570323,114.855485,-9475.577496
901.031454,133.998066,210.568389,-9418.149754
901.032081,76.570323,210.568389,-9418.149754
901.032708,114.855485,133.998066,-9360.722011
901.033335,76.570323,172.283227,-9418.149754
901.033963,38.285162,172.283227,-9418.149754
901.034590,57.427742,172.283227,-9360.722011
901.035217,76.570323,114.855485,-9418.149754
901.035844,76.570323,114.855485,-9437.292334
901.036472,38.285162,114.855485,-9418.149754
901.037099,76.570323,114.855485,-9418.149754
901.037726,76.570323,114.855485,-9456.434915
901.038354,114.855485,114.855485,-9399.007173
901.038981,133.998066,153.140646,-9437.292334
901.039608,19.142581,114.855485,-9475.577496
901.040235,38.285162,114.855485,-9418.149754
901.040863,76.570323,114.855485,-9437.292334
901.041490,76.570323,114.855485,-9418.149754
901.042117,95.712904,114.855485,-9418.149754
901.042744,76.570323,172.283227,-9418.149754
901.043372,95.712904,210.568389,-9418.149754
901.043999,133.998066,114.855485,-9437.292334
901.044626,38.285162,153.140646,-9437.292334
901.045254,76.570323,229.710970,-9418.149754
901.045881,38.285162,114.855485,-9437.292334
901.046508,133.998066,153.140646,-9494.720077
901.047135,133.998066,153.140646,-9418.149754
901.047763,95.712904,114.855485,-9437.292334
901.048390,76.570323,172.283227,-9494.720077
901.049017,76.570323,114.855485,-9475.577496
901.049644,76.570323,153.140646,-9418.149754
901.050272,76.570323,172.283227,-9418.149754
901.050899,133.998066,114.855485,-9418.149754
901.051526,95.712904,172.283227,-9418.149754
901.052153,76.570323,172.283227,-9437.292334
901.052781,76.570323,114.855485,-9418.149754
901.053408,133.998066,114.855485,-9456.434915
901.054035,76.570323,114.855485,-9437.292334
901.054663,76.570323,191.425808,-9399.007173
901.055290,133.998066,210.568389,-9456.434915
901.055917,153.140646,210.568389,-9456.434915
901.056544,76.570323,172.283227,-9418.149754
901.057172,57.427742,287.138712,-9456.434915
901.057799,133.998066,172.283227,-9456.434915
901.058426,133.998066,210.568389,-9475.577496
901.059053,57.427742,95.712904,-9494.720077
901.059681,133.998066,153.140646,-9399.007173
901.060308,133.998066,210.568389,-9418.149754
901.060935,133.998066,114.855485,-9456.434915
901.061563,133.998066,114.855485,-9418.149754
901.062190,133.998066,153.140646,-9418.149754
901.062817,133.998066,133.998066,-9456.434915
901.063444,95.712904,153.140646,-9475.577496
901.064072,133.998066,172.283227,-9494.720077
901.064699,114.855485,95.712904,-9399.007173
901.065326,76.570323,114.855485,-9418.149754
901.065953,133.998066,114.855485,-9456.434915
901.066581,133.998066,172.283227,-9418.149754
901.067208,38.285162,114.855485,-9418.149754
901.067835,95.712904,95.712904,-9399.007173
901.068463,133.998066,114.855485,-9418.149754
901.069090,153.140646,133.998066,-9399.007173
901.069717,76.570323,114.855485,-9418.149754
901.070344,153.140646,153.140646,-9475.577496
901.070972,95.712904,153.140646,-9475.577496
