#time,accel_x,accel_y,accel_z
927.498476,95.712904,172.283227,-9360.722011
927.499105,76.570323,114.855485,-9418.149754
927.499733,57.427742,95.712904,-9399.007173
927.500361,76.570323,114.855485,-9418.149754
927.500990,133.998066,114.855485,-9418.149754
927.501618,38.285162,172.283227,-9437.292334
927.502246,76.570323,153.140646,-9437.292334
927.502874,76.570323,114.855485,-9456.434915
927.503503,133.998066,114.855485,-9475.577496
927.504131,76.570323,229.710970,-9418.149754
927.504759,38.285162,114.855485,-9418.149754
927.505388,76.570323,114.855485,-9418.149754
927.506016,38.285162,114.855485,-9475.577496
927.506644,76.570323,114.855485,-9418.149754
927.507273,76.570323,153.140646,-9437.292334
927.507901,76.570323,114.855485,-9437.292334
927.508529,76.570323,114.855485,-9437.292334
927.509157,153.140646,133.998066,-9437.292334
927.509786,133.998066,114.855485,-9437.292334
927.510414,133.998066,172.283227,-9475.577496
927.511042,76.570323,153.140646,-9437.292334
927.511671,133.998066,133.998066,-9437.292334
927.512299,133.998066,114.855485,-9475.577496
927.512927,76.570323,153.140646,-9437.292334
927.513555,76.570323,114.855485,-9418.149754
927.514184,76.570323,114.855485,-9437.292334
927.514812,153.140646,133.998066,-9437.292334
927.515440,133.998066,172.283227,-9418.149754
927.516069,76.570323,153.140646,-9437.292334
927.516697,57.427742,95.712904,-9399.007173
927.517325,95.712904,210.568389,-9437.292334
927.517954,153.140646,133.998066,-9399.007173
927.518582,133.998066,133.998066,-9399.007173
927.519210,133.998066,114.855485,-9418.149754
927.519838,38.285162,114.855485,-9418.149754
927.520467,76.570323,153.140646,-9437.292334
927.521095,38.285162,114.855485,-9437.292334
927.521723,95.712904,133.998066,-9360.722011
927.522352,133.998066,172.283227,-9418.149754
927.522980,76.570323,114.855485,-9418.149754
927.523608,76.570323,114.855485,-9418.149754
927.524236,38.285162,114.855485,-9437.292334
927.524865,114.855485,95.712904,-9456.434915
927.525493,76.570323,191.425808,-9456.434915
927.526121,38.285162,114.855485,-9418.149754
927.526750,153.140646,172.283227,-9399.007173
927.527378,133.998066,153.140646,-9456.434915
927.528006,76.570323,114.855485,-9418.149754
927.528634,95.712904,172.283227,-9418.149754
927.529263,76.570323,114.855485,-9418.149754
927.529891,57.427742,114.855485,-9399.007173
927.530519,76.570323,114.855485,-9475.577496
927.531148,133.998066,172.283227,-9456.434915
927.531776,76.570323,153.140646,-9456.434915
927.532404,38.285162,172.283227,-9418.149754
927.533033,76.570323,172.283227,-9418.149754
927.533661,133.998066,114.855485,-9418.149754
927.534289,76.570323,172.283227,-9418.149754
927.534917,133.998066,114.855485,-9418.149754
927.535546,133.998066,114.855485,-9456.434915
927.536174,153.140646,133.998066,-9437.292334
927.536802,172.283227,76.570323,-9437.292334
927.537431,153.140646,133.998066,-9399.007173
927.538059,153.140646,191.425808,-9437.292334
927.538687,95.712904,172.283227,-9533.005238
927.539315,76.570323,153.140646,-9437.292334
927.539944,76.570323,114.855485,-9418.149754
927.540572,114.855485,95.712904,-9456.434915
927.541200,133.998066,114.855485,-9475.577496
927.541829,76.570323,114.855485,-9418.149754
927.542457,38.285162,114.855485,-9456.434915
927.543085,76.570323,114.855485,-9437.292334
927.543713,153.140646,133.998066,-9399.007173
927.544342,38.285162,114.855485,-9418.149754
927.544970,76.570323,153.140646,-9456.434915
927.545598,38.285162,153.140646,-9418.149754
927.546227,133.998066,153.140646,-9437.292334
927.546855,95.712904,172.283227,-9418.149754
927.547483,133.998066,114.855485,-9456.434915
927.548112,76.570323,114.855485,-9418.149754
927.548740,133.998066,153.140646,-9437.292334
927.549368,133.998066,114.855485,-9418.149754
927.549996,95.712904,114.855485,-9418.149754
927.550625,133.998066,114.855485,-9456.434915
927.551253,133.998066,133.998066,-9399.007173
927.551881,19.142581,153.140646,-9399.007173
927.552510,38.285162,114.855485,-9418.149754
927.553138,76.570323,210.568389,-9475.577496
927.553766,133.998066,133.998066,-9399.007173
927.554394,95.712904,191.425808,-9533.005238
927.555023,133.998066,191.425808,-9418.149754
927.555651,133.998066,114.855485,-9437.292334
927.556279,76.570323,114.855485,-9418.149754
927.556907,133.998066,114.855485,-9437.292334
927.557535,133.998066,114.855485,-9475.577496
927.558162,133.998066,153.140646,-9418.149754
927.558790,76.570323,114.855485,-9456.434915
927.559418,114.855485,95.712904,-9399.007173
927.560046,95.712904,95.712904,-9379.864592
927.560674,95.712904,95.712904,-9399.007173
927.561302,38.285162,114.855485,-9456.434915
927.561929,153.140646,210.568389,-9456.434915
927.562557,76.570323,114.855485,-9418.149754
927.563185,76.570323,114.855485,-9418.149754
927.563813,95.712904,153.140646,-9418.149754
927.564441,57.427742,133.998066,-9360.722011
927.565069,114.855485,133.998066,-9360.722011
927.565696,133.998066,133.998066,-9475.577496
927.566324,133.998066,210.568389,-9418.149754
927.566952,76.570323,210.568389,-9418.149754
927.567580,133.998066,172.283227,-9456.434915
927.568208,76.570323,172.283227,-9418.149754
927.568836,95.712904,114.855485,-9399.007173
927.569464,133.998066,153.140646,-9475.577496
927.570091,133.998066,172.283227,-9418.149754
927.570719,133.998066,114.855485,-9418.149754
927.571347,133.998066,114.855485,-9418.149754
927.571975,95.712904,114.855485,-9418.149754
927.572603,133.998066,153.140646,-9494.720077
927.573231,133.998066,153.140646,-9437.292334
927.573858,76.570323,114.855485,-9418.149754
927.574486,76.570323,114.855485,-9418.149754
927.575114,172.283227,76.570323,-9418.149754
927.575742,95.712904,133.998066,-9360.722011
927.576370,76.570323,114.855485,-9418.149754
927.576998,133.998066,114.855485,-9418.149754
927.577625,95.712904,95.712904,-9399.007173
927.578253,133.998066,172.283227,-9418.149754
927.578881,76.570323,172.283227,-9418.149754
927.579509,76.570323,153.140646,-9418.149754
927.580137,133.998066,210.568389,-9418.149754
927.580765,133.998066,114.855485,-9437.292334
927.581392,38.285162,114.855485,-9437.292334
927.582020,38.285162,153.140646,-9456.434915
927.582648,38.285162,114.855485,-9418.149754
927.583276,114.855485,95.712904,-9399.007173
927.583904,133.998066,114.855485,-9437.292334
927.584532,76.570323,114.855485,-9456.434915
927.585160,133.998066,210.568389,-9418.149754
927.585787,133.998066,114.855485,-9475.577496
927.586415,95.712904,210.568389,-9437.292334
927.587043,133.998066,114.855485,-9418.149754
927.587671,95.712904,95.712904,-9399.007173
927.588299,95.712904,172.283227,-9399.007173
927.588927,76.570323,114.855485,-9437.292334
927.589554,133.998066,114.855485,-9494.720077
927.590182,76.570323,114.855485,-9418.149754
927.590810,114.855485,95.712904,-9437.292334
927.591438,76.570323,95.712904,-9513.862658
927.592066,133.998066,114.855485,-9418.149754
927.592694,95.712904,95.712904,-9399.007173
927.593321,133.998066,76.570323,-9379.864592
927.593949,76.570323,229.710970,-9418.149754
927.594577,76.570323,172.283227,-9418.149754
927.595205,38.285162,114.855485,-9437.292334
927.595833,38.285162,153.140646,-9418.149754
927.596461,76.570323,210.568389,-9418.149754
927.597088,95.712904,114.855485,-9418.149754
927.597716,76.570323,114.855485,-9418.149754
927.598344,19.142581,172.283227,-9418.149754
927.598972,38.285162,114.855485,-9475.577496
927.599600,133.998066,114.855485,-9456.434915
927.600228,76.570323,153.140646,-9418.149754
927.600856,38.285162,114.855485,-9418.149754
927.601483,38.285162,114.855485,-9437.292334
927.602111,76.570323,114.855485,-9475.577496
927.602739,95.712904,114.855485,-9437.292334
927.603367,76.570323,114.855485,-9437.292334
927.603995,172.283227,76.570323,-9418.149754
927.604623,76.570323,172.283227,-9418.149754
927.605250,133.998066,153.140646,-9456.434915
927.605878,76.570323,114.855485,-9418.149754
927.606506,76.570323,114.855485,-9418.149754
927.607134,76.570323,172.283227,-9456.434915
927.607762,133.998066,114.855485,-9456.434915
927.608390,38.285162,191.425808,-9418.149754
927.609017,153.140646,248.853550,-9399.007173
927.609645,133.998066,114.855485,-9437.292334
927.610273,153.140646,133.998066,-9399.007173
927.610901,153.140646,133.998066,-9399.007173
927.611529,38.285162,114.855485,-9418.149754
927.612157,133.998066,172.283227,-9437.292334
927.612785,95.712904,114.855485,-9437.292334
927.613412,76.570323,114.855485,-9475.577496
927.614040,95.712904,133.998066,-9360.722011
927.614668,76.570323,114.855485,-9418.149754
927.615296,133.998066,153.140646,-9475.577496
927.615924,76.570323,114.855485,-9437.292334
927.616552,133.998066,172.283227,-9418.149754
927.617179,133.998066,172.283227,-9418.149754
927.617807,38.285162,114.855485,-9418.149754
927.618435,95.712904,95.712904,-9399.007173
927.619063,76.570323,114.855485,-9418.149754
927.619691,114.855485,114.855485,-9399.007173
927.620319,76.570323,114.855485,-9418.149754
927.620946,76.570323,114.855485,-9437.292334
927.621574,133.998066,114.855485,-9418.149754
927.622202,153.140646,133.998066,-9475.577496
927.622830,95.712904,114.855485,-9437.292334
927.623458,133.998066,114.855485,-9418.149754
927.624086,114.855485,172.283227,-9360.722011
927.624713,153.140646,133.998066,-9399.007173
927.625341,133.998066,114.855485,-9418.149754
927.625969,95.712904,172.283227,-9437.292334
927.626597,114.855485,133.998066,-9418.149754
927.627225,133.998066,114.855485,-9475.577496
927.627853,76.570323,172.283227,-9494.720077
927.628481,95.712904,153.140646,-9418.149754
927.629108,133.998066,114.855485,-9456.434915
927.629736,76.570323,114.855485,-9456.434915
927.630364,133.998066,153.140646,-9418.149754
927.630992,95.712904,114.855485,-9456.434915
927.631620,133.998066,172.283227,-9418.149754
927.632248,133.998066,133.998066,-9456.434915
927.632875,76.570323,114.855485,-9418.149754
927.633503,153.140646,133.998066,-9456.434915
927.634131,133.998066,172.283227,-9456.434915
927.634759,76.570323,153.140646,-9456.434915
927.635387,76.570323,172.283227,-9456.434915
927.636015,114.855485,95.712904,-9399.007173
927.636642,133.998066,114.855485,-9418.149754
927.637270,153.140646,133.998066,-9399.007173
927.637898,95.712904,114.855485,-9437.292334
927.638526,57.427742,153.140646,-9360.722011
927.639154,114.855485,133.998066,-9360.722011
927.639782,133.998066,114.855485,-9494.720077
927.640410,95.712904,114.855485,-9418.149754
927.641037,172.283227,76.570323,-9418.149754
927.641665,76.570323,114.855485,-9475.577496
927.642293,133.998066,153.140646,-9437.292334
927.642921,133.998066,210.568389,-9418.149754
927.643549,133.998066,133.998066,-9399.007173
927.644177,133.998066,172.283227,-9437.292334
927.644804,76.570323,153.140646,-9456.434915
927.645432,76.570323,114.855485,-9418.149754
927.646060,95.712904,133.998066,-9360.722011
927.646688,38.285162,114.855485,-9418.149754
927.647316,95.712904,172.283227,-9437.292334
927.647944,76.570323,153.140646,-9418.149754
927.648571,133.998066,133.998066,-9494.720077
927.649199,153.140646,153.140646,-9399.007173
927.649827,114.855485,172.283227,-9360.722011
927.650455,133.998066,114.855485,-9418.149754
927.651083,133.998066,114.855485,-9418.149754
927.651711,133.998066,153.140646,-9456.434915
927.652338,95.712904,95.712904,-9456.434915
927.652966,95.712904,114.855485,-9475.577496
927.653594,153.140646,133.998066,-9437.292334
927.654222,76.570323,114.855485,-9456.434915
927.654850,133.998066,114.855485,-9418.149754
927.655478,95.712904,172.283227,-9418.149754
927.656106,76.570323,153.140646,-9418.149754
927.656733,133.998066,153.140646,-9418.149754
927.657360,133.998066,153.140646,-9418.149754
927.657987,133.998066,172.283227,-9418.149754
927.658614,95.712904,114.855485,-9418.149754
927.659241,114.855485,95.712904,-9399.007173
927.659868,114.855485,76.570323,-9437.292334
927.660495,133.998066,114.855485,-9418.149754
927.661122,133.998066,153.140646,-9418.149754
927.661749,133.998066,153.140646,-9418.149754
927.662376,133.998066,114.855485,-9418.149754
927.663003,133.998066,114.855485,-9437.292334
927.663630,114.855485,95.712904,-9399.007173
927.664257,76.570323,114.855485,-9360.722011
927.664884,133.998066,114.855485,-9437.292334
927.665511,133.998066,153.140646,-9399.007173
927.666138,57.427742,114.855485,-9475.577496
927.666765,76.570323,210.568389,-9418.149754
927.667392,133.998066,153.140646,-9360.722011
927.668019,76.570323,114.855485,-9418.149754
927.668646,133.998066,114.855485,-9418.149754
927.669273,95.712904,172.283227,-9437.292334
927.669900,57.427742,95.712904,-9399.007173
927.670527,76.570323,172.283227,-9418.149754
927.671154,38.285162,114.855485,-9456.434915
927.671781,76.570323,114.855485,-9456.434915
927.672408,133.998066,114.855485,-9418.149754
927.673035,133.998066,172.283227,-9456.434915
927.673662,0.000000,95.712904,-9456.434915
927.674289,76.570323,172.283227,-9437.292334
927.674916,76.570323,114.855485,-9418.149754
927.675543,95.712904,191.425808,-9360.722011
927.676170,172.283227,133.998066,-9418.149754
927.676797,153.140646,133.998066,-9399.007173
927.677424,133.998066,210.568389,-9437.292334
927.678051,153.140646,133.998066,-9399.007173
927.678678,76.570323,114.855485,-9418.149754
927.679306,114.855485,95.712904,-9399.007173
927.679933,172.283227,76.570323,-9437.292334
927.680560,76.570323,114.855485,-9418.149754
927.681187,153.140646,133.998066,-9456.434915
927.681814,76.570323,153.140646,-9418.149754
927.682441,76.570323,114.855485,-9456.434915
927.683068,133.998066,114.855485,-9418.149754
927.683695,57.427742,114.855485,-9456.434915
927.684322,114.855485,133.998066,-9360.722011
927.684949,76.570323,114.855485,-9456.434915
927.685576,38.285162,210.568389,-9456.434915
927.686203,95.712904,95.712904,-9456.434915
927.686830,133.998066,172.283227,-9437.292334
927.687457,76.570323,172.283227,-9475.577496
927.688084,38.285162,172.283227,-9418.149754
927.688711,133.998066,114.855485,-9437.292334
927.689338,153.140646,133.998066,-9456.434915
927.689965,76.570323,172.283227,-9475.577496
927.690592,95.712904,114.855485,-9360.722011
927.691219,133.998066,133.998066,-9399.007173
927.691846,76.570323,114.855485,-9418.149754
927.692473,76.570323,114.855485,-9418.149754
927.693100,76.570323,210.568389,-9418.149754
927.693727,133.998066,153.140646,-9418.149754
927.694354,133.998066,114.855485,-9418.149754
927.694981,133.998066,172.283227,-9399.007173
927.695608,76.570323,133.998066,-9379.864592
927.696235,133.998066,114.855485,-9418.149754
927.696862,76.570323,172.283227,-9456.434915
927.697489,38.285162,229.710970,-9418.149754
927.698116,76.570323,229.710970,-9475.577496
927.698743,95.712904,114.855485,-9437.292334
927.699370,133.998066,210.568389,-9475.577496
927.699997,153.140646,133.998066,-9399.007173
927.700624,133.998066,172.283227,-9418.149754
927.701251,95.712904,95.712904,-9399.007173
927.701878,76.570323,114.855485,-9418.149754
927.702506,114.855485,114.855485,-9379.864592
927.703133,76.570323,153.140646,-9456.434915
927.703760,114.855485,133.998066,-9418.149754
927.704387,38.285162,172.283227,-9418.149754
927.705014,38.285162,114.855485,-9418.149754
927.705641,133.998066,114.855485,-9418.149754
927.706268,210.568389,153.140646,-9475.577496
927.706895,95.712904,210.568389,-9418.149754
927.707522,133.998066,172.283227,-9456.434915
927.708149,114.855485,114.855485,-9437.292334
927.708776,95.712904,153.140646,-9494.720077
927.709403,153.140646,114.855485,-9360.722011
927.710030,210.568389,133.998066,-9399.007173
927.710657,76.570323,153.140646,-9418.149754
927.711284,76.570323,114.855485,-9475.577496
927.711911,76.570323,153.140646,-9360.722011
927.712538,153.140646,153.140646,-9437.292334
927.713165,38.285162,133.998066,-9399.007173
927.713792,133.998066,191.425808,-9399.007173
927.714419,133.998066,114.855485,-9437.292334
927.715046,133.998066,114.855485,-9475.577496
927.715673,76.570323,114.855485,-9475.577496
927.716300,172.283227,133.998066,-9360.722011
927.716927,95.712904,95.712904,-9437.292334
927.717554,76.570323,172.283227,-9418.149754
927.718181,95.712904,153.140646,-9418.149754
927.718808,19.142581,114.855485,-9418.149754
927.719435,76.570323,172.283227,-9418.149754
927.720062,76.570323,210.568389,-9418.149754
927.720689,153.140646,133.998066,-9399.007173
927.721316,153.140646,133.998066,-9399.007173
927.721943,153.140646,133.998066,-9437.292334
927.722570,76.570323,172.283227,-9437.292334
927.723197,76.570323,210.568389,-9456.434915
927.723824,133.998066,172.283227,-9418.149754
927.724451,76.570323,210.568389,-9418.149754
927.725078,38.285162,153.140646,-9418.149754
927.725706,133.998066,114.855485,-9456.434915
927.726333,114.855485,76.570323,-9437.292334
927.726960,114.855485,95.712904,-9437.292334
927.727587,57.427742,114.855485,-9418.149754
927.728214,38.285162,172.283227,-9418.149754
927.728841,133.998066,210.568389,-9418.149754
927.729468,76.570323,191.425808,-9456.434915
927.730095,133.998066,210.568389,-9418.149754
927.730722,76.570323,114.855485,-9418.149754
927.731349,76.570323,114.855485,-9418.149754
927.731976,114.855485,76.570323,-9475.577496
927.732603,133.998066,114.855485,-9456.434915
927.733230,95.712904,114.855485,-9418.149754
927.733857,133.998066,114.855485,-9418.149754
927.734484,76.570323,114.855485,-9418.149754
927.735111,133.998066,153.140646,-9418.149754
927.735738,76.570323,114.855485,-9418.149754
927.736365,153.140646,133.998066,-9399.007173
927.736992,133.998066,172.283227,-9418.149754
927.737619,172.283227,76.570323,-9418.149754
927.738246,95.712904,95.712904,-9399.007173
927.738873,76.570323,114.855485,-9418.149754
927.739500,153.140646,191.425808,-9399.007173
927.740127,38.285162,153.140646,-9418.149754
927.740754,76.570323,114.855485,-9533.005238
927.741381,133.998066,114.855485,-9437.292334
927.742008,57.427742,114.855485,-9399.007173
927.742635,76.570323,114.855485,-9418.149754
927.743262,76.570323,114.855485,-9418.149754
927.743889,95.712904,114.855485,-9418.149754
927.744516,133.998066,114.855485,-9418.149754
927.745143,114.855485,133.998066,-9360.722011
927.745770,95.712904,133.998066,-9360.722011
927.746397,76.570323,114.855485,-9418.149754
927.747024,114.855485,95.712904,-9399.007173
927.747651,153.140646,133.998066,-9399.007173
927.748278,95.712904,210.568389,-9418.149754
927.748905,95.712904,210.568389,-9456.434915
927.749533,133.998066,210.568389,-9418.149754
927.750160,133.998066,114.855485,-9418.149754
927.750787,153.140646,172.283227,-9418.149754
927.751414,172.283227,153.140646,-9379.864592
927.752041,76.570323,114.855485,-9418.149754
927.752668,133.998066,153.140646,-9418.149754
927.753295,76.570323,210.568389,-9418.149754
927.753922,76.570323,172.283227,-9418.149754
927.754549,76.570323,114.855485,-9418.149754
927.755176,76.570323,114.855485,-9418.149754
927.755803,114.855485,191.425808,-9418.149754
927.756430,133.998066,114.855485,-9418.149754
927.757057,95.712904,95.712904,-9399.007173
927.757685,133.998066,210.568389,-9456.434915
927.758312,95.712904,229.710970,-9418.149754
927.758940,133.998066,114.855485,-9418.149754
927.759568,172.283227,95.712904,-9456.434915
927.760195,95.712904,95.712904,-9399.007173
927.760823,133.998066,114.855485,-9418.149754
927.761450,153.140646,172.283227,-9399.007173
927.762078,153.140646,133.998066,-9437.292334
927.762705,153.140646,133.998066,-9437.292334
927.763333,114.855485,95.712904,-9456.434915
927.763960,76.570323,210.568389,-9475.577496
927.764588,76.570323,153.140646,-9418.149754
927.765215,95.712904,153.140646,-9418.149754
927.765843,38.285162,114.855485,-9437.292334
927.766471,133.998066,114.855485,-9418.149754
927.767098,133.998066,114.855485,-9437.292334
927.767726,19.142581,153.140646,-9437.292334
927.768353,76.570323,114.855485,-9418.149754
927.768981,76.570323,95.712904,-9437.292334
927.769608,95.712904,114.855485,-9418.149754
927.770236,133.998066,76.570323,-9399.007173
927.770863,153.140646,133.998066,-9399.007173
927.771491,133.998066,172.283227,-9418.149754
927.772118,153.140646,172.283227,-9399.007173
927.772746,76.570323,114.855485,-9475.577496
927.773374,76.570323,114.855485,-9418.149754
927.774001,57.427742,95.712904,-9399.007173
927.774629,153.140646,133.998066,-9399.007173
927.775256,133.998066,153.140646,-9456.434915
927.775884,133.998066,133.998066,-9437.292334
927.776511,38.285162,153.140646,-9418.149754
927.777139,76.570323,114.855485,-9418.149754
927.777766,95.712904,114.855485,-9437.292334
927.778394,114.855485,76.570323,-9437.292334
927.779021,133.998066,114.855485,-9437.292334
927.779649,133.998066,114.855485,-9475.577496
927.780277,133.998066,114.855485,-9475.577496
927.780904,76.570323,114.855485,-9437.292334
927.781532,57.427742,114.855485,-9456.434915
927.782159,57.427742,95.712904,-9456.434915
927.782787,76.570323,114.855485,-9418.149754
927.783414,57.427742,114.855485,-9418.149754
927.784042,38.285162,114.855485,-9437.292334
927.784669,38.285162,114.855485,-9418.149754
927.785297,76.570323,229.710970,-9418.149754
927.785924,76.570323,172.283227,-9360.722011
927.786552,95.712904,133.998066,-9360.722011
927.787179,95.712904,133.998066,-9533.005238
927.787807,76.570323,153.140646,-9437.292334
927.788435,95.712904,95.712904,-9399.007173
927.789062,133.998066,114.855485,-9456.434915
927.789690,153.140646,153.140646,-9399.007173
927.790317,76.570323,114.855485,-9418.149754
927.790945,38.285162,172.283227,-9418.149754
927.791572,133.998066,172.283227,-9456.434915
927.792200,133.998066,191.425808,-9437.292334
927.792827,76.570323,172.283227,-9418.149754
927.793455,133.998066,114.855485,-9494.720077
927.794082,95.712904,95.712904,-9399.007173
927.794710,76.570323,172.283227,-9418.149754
927.795338,76.570323,114.855485,-9418.149754
927.795965,57.427742,172.283227,-9360.722011
927.796593,133.998066,114.855485,-9437.292334
927.797220,133.998066,114.855485,-9456.434915
927.797848,95.712904,114.855485,-9437.292334
927.798475,133.998066,172.283227,-9437.292334
927.799103,133.998066,133.998066,-9399.007173
927.799730,133.998066,153.140646,-9418.149754
927.800358,133.998066,114.855485,-9418.149754
927.800985,133.998066,114.855485,-9437.292334
927.801613,133.998066,229.710970,-9418.149754
927.802241,76.570323,210.568389,-9418.149754
927.802868,57.427742,133.998066,-9360.722011
927.803496,114.855485,133.998066,-9360.722011
927.804123,76.570323,114.855485,-9456.434915
927.804751,133.998066,114.855485,-9437.292334
927.805378,114.855485,114.855485,-9399.007173
927.806006,133.998066,153.140646,-9437.292334
927.806633,153.140646,133.998066,-9456.434915
927.807261,95.712904,95.712904,-9399.007173
927.807888,133.998066,172.283227,-9475.577496
927.808516,153.140646,172.283227,-9437.292334
927.809144,76.570323,114.855485,-9475.577496
927.809771,38.285162,153.140646,-9475.577496
927.810399,95.712904,114.855485,-9494.720077
927.811026,133.998066,172.283227,-9399.007173
927.811654,38.285162,76.570323,-9399.007173
927.812281,133.998066,210.568389,-9418.149754
927.812909,133.998066,114.855485,-9418.149754
927.813536,133.998066,114.855485,-9418.149754
927.814164,133.998066,114.855485,-9418.149754
927.814791,76.570323,114.855485,-9418.149754
927.815419,133.998066,114.855485,-9418.149754
927.816047,114.855485,153.140646,-9418.149754
927.816674,38.285162,153.140646,-9418.149754
927.817302,57.427742,172.283227,-9418.149754
927.817929,38.285162,172.283227,-9418.149754
927.818557,114.855485,95.712904,-9399.007173
927.819184,133.998066,210.568389,-9494.720077
927.819812,153.140646,172.283227,-9437.292334
927.820439,133.998066,114.855485,-9418.149754
927.821067,76.570323,172.283227,-9456.434915
927.821694,133.998066,172.283227,-9399.007173
927.822322,114.855485,95.712904,-9494.720077
927.822950,210.568389,133.998066,-9494.720077
927.823577,133.998066,172.283227,-9399.007173
927.824205,38.285162,114.855485,-9456.434915
927.824832,95.712904,133.998066,-9418.149754
927.825460,172.283227,76.570323,-9418.149754
927.826087,133.998066,133.998066,-9437.292334
927.826715,95.712904,114.855485,-9418.149754
927.827342,95.712904,114.855485,-9437.292334
927.827970,133.998066,172.283227,-9456.434915
927.828597,76.570323,114.855485,-9475.577496
927.829225,76.570323,114.855485,-9475.577496
927.829853,133.998066,153.140646,-9418.149754
927.830480,133.998066,133.998066,-9437.292334
927.831108,133.998066,114.855485,-9456.434915
927.831735,76.570323,114.855485,-9475.577496
927.832363,76.570323,114.855485,-9418.149754
927.832990,95.712904,172.283227,-9418.149754
927.833618,133.998066,210.568389,-9418.149754
927.834245,133.998066,114.855485,-9418.149754
927.834873,133.998066,114.855485,-9418.149754
927.835500,76.570323,114.855485,-9418.149754
927.836128,76.570323,172.283227,-9437.292334
927.836755,133.998066,114.855485,-9418.149754
927.837383,76.570323,191.425808,-9418.149754
927.838011,76.570323,153.140646,-9418.149754
927.838638,38.285162,153.140646,-9494.720077
927.839266,133.998066,172.283227,-9418.149754
927.839893,76.570323,114.855485,-9437.292334
927.840521,38.285162,114.855485,-9418.149754
927.841148,133.998066,114.855485,-9456.434915
927.841776,76.570323,114.855485,-9418.149754
927.842403,133.998066,114.855485,-9456.434915
927.843031,114.855485,114.855485,-9399.007173
927.843658,76.570323,153.140646,-9418.149754
927.844286,133.998066,114.855485,-9475.577496
927.844914,57.427742,133.998066,-9360.722011
927.845541,76.570323,95.712904,-9456.434915
927.846169,76.570323,114.855485,-9437.292334
927.846796,38.285162,114.855485,-9456.434915
927.847424,76.570323,114.855485,-9418.149754
927.848051,38.285162,210.568389,-9418.149754
927.848679,114.855485,95.712904,-9399.007173
927.849306,133.998066,172.283227,-9533.005238
927.849934,153.140646,172.283227,-9399.007173
927.850561,133.998066,114.855485,-9418.149754
927.851189,76.570323,153.140646,-9475.577496
927.851817,38.285162,191.425808,-9475.577496
927.852444,57.427742,114.855485,-9456.434915
927.853072,76.570323,114.855485,-9437.292334
927.853699,38.285162,172.283227,-9437.292334
927.854327,76.570323,153.140646,-9437.292334
927.854954,133.998066,114.855485,-9437.292334
927.855582,133.998066,114.855485,-9418.149754
927.856209,153.140646,210.568389,-9418.149754
927.856837,133.998066,114.855485,-9418.149754
927.857465,95.712904,114.855485,-9399.007173
927.858092,38.285162,172.283227,-9418.149754
927.858720,114.855485,133.998066,-9360.722011
927.859347,76.570323,172.283227,-9418.149754
927.859975,153.140646,172.283227,-9399.007173
927.860603,76.570323,210.568389,-9418.149754
927.861230,76.570323,114.855485,-9437.292334
927.861858,95.712904,114.855485,-9418.149754
927.862485,76.570323,172.283227,-9437.292334
927.863113,133.998066,153.140646,-9418.149754
927.863741,133.998066,172.283227,-9437.292334
927.864368,133.998066,114.855485,-9456.434915
927.864996,114.855485,95.712904,-9399.007173
927.865623,114.855485,172.283227,-9360.722011
927.866251,57.427742,95.712904,-9437.292334
927.866879,114.855485,95.712904,-9399.007173
927.867506,114.855485,95.712904,-9399.007173
927.868134,133.998066,210.568389,-9456.434915
927.868761,95.712904,172.283227,-9418.149754
927.869389,76.570323,114.855485,-9418.149754
927.870017,76.570323,172.283227,-9418.149754
927.870644,76.570323,153.140646,-9475.577496
927.871272,133.998066,172.283227,-9418.149754
927.871899,133.998066,133.998066,-9399.007173
927.872527,95.712904,95.712904,-9399.007173
927.873155,133.998066,153.140646,-9437.292334
927.873782,95.712904,133.998066,-9360.722011
927.874410,133.998066,114.855485,-9418.149754
927.875037,38.285162,114.855485,-9418.149754
927.875665,133.998066,114.855485,-9418.149754
927.876293,76.570323,114.855485,-9418.149754
927.876920,95.712904,95.712904,-9399.007173
927.877548,76.570323,114.855485,-9418.149754
927.878176,95.712904,95.712904,-9399.007173
927.878803,76.570323,172.283227,-9418.149754
927.879431,133.998066,172.283227,-9418.149754
927.880058,133.998066,114.855485,-9533.005238
927.880686,95.712904,95.712904,-9513.862658
927.881314,95.712904,95.712904,-9456.434915
927.881941,38.285162,114.855485,-9418.149754
927.882569,76.570323,114.855485,-9437.292334
927.883196,133.998066,210.568389,-9418.149754
927.883824,133.998066,210.568389,-9418.149754
927.884452,76.570323,210.568389,-9456.434915
927.885079,153.140646,191.425808,-9437.292334
927.885707,133.998066,114.855485,-9418.149754
927.886334,76.570323,133.998066,-9418.149754
927.886962,133.998066,114.855485,-9418.149754
927.887590,38.285162,153.140646,-9418.149754
927.888217,114.855485,114.855485,-9399.007173
927.888845,133.998066,172.283227,-9418.149754
927.889472,133.998066,95.712904,-9360.722011
927.890100,38.285162,210.568389,-9418.149754
927.890728,133.998066,114.855485,-9456.434915
927.891355,133.998066,153.140646,-9418.149754
927.891983,76.570323,172.283227,-9475.577496
927.892610,57.427742,133.998066,-9360.722011
927.893238,133.998066,114.855485,-9418.149754
927.893866,95.712904,95.712904,-9456.434915
927.894493,76.570323,114.855485,-9418.149754
927.895121,114.855485,95.712904,-9399.007173
927.895748,76.570323,133.998066,-9360.722011
927.896376,38.285162,114.855485,-9418.149754
927.897004,76.570323,133.998066,-9360.722011
927.897631,95.712904,114.855485,-9418.149754
927.898259,57.427742,95.712904,-9399.007173
927.898886,38.285162,210.568389,-9418.149754
927.899514,133.998066,191.425808,-9437.292334
927.900142,133.998066,153.140646,-9456.434915
927.900769,76.570323,114.855485,-9456.434915
927.901397,57.427742,95.712904,-9456.434915
927.902025,76.570323,114.855485,-9494.720077
927.902652,114.855485,210.568389,-9360.722011
927.903280,95.712904,153.140646,-9418.149754
927.903907,133.998066,153.140646,-9456.434915
927.904535,133.998066,114.855485,-9475.577496
927.905163,76.570323,114.855485,-9456.434915
927.905790,133.998066,114.855485,-9418.149754
927.906418,114.855485,95.712904,-9399.007173
927.907045,133.998066,114.855485,-9437.292334
927.907673,76.570323,153.140646,-9475.577496
927.908301,76.570323,114.855485,-9418.149754
927.908928,95.712904,95.712904,-9456.434915
927.909556,95.712904,114.855485,-9437.292334
927.910183,133.998066,114.855485,-9418.149754
927.910811,76.570323,114.855485,-9437.292334
927.911439,38.285162,114.855485,-9418.149754
927.912066,133.998066,172.283227,-9437.292334
927.912694,133.998066,114.855485,-9437.292334
927.913321,76.570323,153.140646,-9475.577496
927.913949,38.285162,153.140646,-9418.149754
927.914577,95.712904,153.140646,-9418.149754
927.915204,133.998066,114.855485,-9475.577496
927.915832,133.998066,114.855485,-9418.149754
927.916459,133.998066,114.855485,-9418.149754
927.917087,133.998066,210.568389,-9418.149754
927.917715,133.998066,114.855485,-9456.434915
927.918342,95.712904,114.855485,-9418.149754
927.918970,133.998066,153.140646,-9456.434915
927.919597,76.570323,114.855485,-9418.149754
927.920225,76.570323,153.140646,-9437.292334
927.920853,133.998066,114.855485,-9418.149754
927.921480,76.570323,114.855485,-9418.149754
927.922108,95.712904,133.998066,-9360.722011
927.922735,95.712904,172.283227,-9475.577496
927.923363,76.570323,133.998066,-9360.722011
927.923991,133.998066,153.140646,-9418.149754
927.924618,133.998066,133.998066,-9379.864592
927.925246,133.998066,172.283227,-9418.149754
927.925874,95.712904,133.998066,-9360.722011
927.926501,95.712904,153.140646,-9360.722011
927.927129,38.285162,172.283227,-9418.149754
927.927756,76.570323,114.855485,-9494.720077
927.928384,153.140646,133.998066,-9494.720077
927.929012,114.855485,95.712904,-9399.007173
927.929639,95.712904,172.283227,-9437.292334
927.930267,133.998066,172.283227,-9418.149754
927.930894,133.998066,133.998066,-9399.007173
927.931522,133.998066,153.140646,-9418.149754
927.932150,133.998066,114.855485,-9475.577496
927.932777,76.570323,114.855485,-9418.149754
927.933405,153.140646,133.998066,-9399.007173
927.934032,133.998066,114.855485,-9418.149754
927.934660,95.712904,114.855485,-9437.292334
927.935288,133.998066,114.855485,-9418.149754
927.935915,76.570323,172.283227,-9418.149754
927.936543,133.998066,114.855485,-9418.149754
927.937170,153.140646,133.998066,-9399.007173
927.937798,133.998066,153.140646,-9418.149754
927.938426,114.855485,153.140646,-9360.722011
927.939053,38.285162,114.855485,-9418.149754
927.939681,57.427742,133.998066,-9360.722011
927.940308,133.998066,153.140646,-9418.149754
927.940936,76.570323,114.855485,-9418.149754
927.941564,133.998066,153.140646,-9418.149754
927.942191,133.998066,114.855485,-9418.149754
927.942819,76.570323,153.140646,-9418.149754
927.943446,38.285162,114.855485,-9437.292334
927.944074,133.998066,114.855485,-9418.149754
927.944702,76.570323,210.568389,-9456.434915
927.945329,133.998066,114.855485,-9418.149754
927.945957,153.140646,114.855485,-9418.149754
927.946585,133.998066,114.855485,-9418.149754
927.947212,95.712904,114.855485,-9418.149754
927.947840,38.285162,114.855485,-9437.292334
927.948467,76.570323,114.855485,-9437.292334
927.949095,133.998066,114.855485,-9418.149754
927.949723,133.998066,114.855485,-9418.149754
927.950350,133.998066,114.855485,-9399.007173
927.950978,133.998066,114.855485,-9475.577496
927.951605,76.570323,114.855485,-9418.149754
927.952233,133.998066,210.568389,-9456.434915
927.952861,38.285162,114.855485,-9418.149754
927.953488,76.570323,210.568389,-9418.149754
927.954116,133.998066,114.855485,-9437.292334
927.954743,114.855485,248.853550,-9360.722011
927.955371,133.998066,229.710970,-9437.292334
927.955999,133.998066,229.710970,-9456.434915
927.956626,38.285162,210.568389,-9437.292334
927.957254,76.570323,114.855485,-9437.292334
927.957881,133.998066,133.998066,-9494.720077
927.958509,133.998066,210.568389,-9418.149754
927.959137,133.998066,153.140646,-9456.434915
927.959764,133.998066,229.710970,-9418.149754
927.960392,133.998066,114.855485,-9437.292334
927.961020,114.855485,95.712904,-9456.434915
927.961647,114.855485,95.712904,-9399.007173
927.962275,76.570323,114.855485,-9437.292334
927.962902,76.570323,114.855485,-9418.149754
927.963530,76.570323,114.855485,-9418.149754
927.964158,38.285162,114.855485,-9475.577496
927.964785,95.712904,95.712904,-9437.292334
927.965413,76.570323,114.855485,-9456.434915
927.966040,133.998066,114.855485,-9418.149754
927.966668,133.998066,114.855485,-9475.577496
927.967296,133.998066,153.140646,-9437.292334
927.967923,133.998066,114.855485,-9418.149754
927.968551,133.998066,114.855485,-9418.149754
927.969179,133.998066,153.140646,-9437.292334
927.969806,76.570323,114.855485,-9418.149754
927.970434,133.998066,153.140646,-9418.149754
927.971061,133.998066,172.283227,-9418.149754
927.971689,133.998066,114.855485,-9418.149754
927.972317,76.570323,114.855485,-9418.149754
927.972944,76.570323,172.283227,-9418.149754
927.973572,76.570323,172.283227,-9418.149754
927.974200,153.140646,133.998066,-9437.292334
927.974827,133.998066,114.855485,-9475.577496
927.975455,133.998066,172.283227,-9399.007173
927.976082,76.570323,114.855485,-9437.292334
927.976710,38.285162,114.855485,-9418.149754
927.977338,76.570323,114.855485,-9437.292334
927.977965,153.140646,153.140646,-9437.292334
927.978593,95.712904,114.855485,-9418.149754
927.979221,95.712904,172.283227,-9418.149754
927.979848,114.855485,95.712904,-9399.007173
927.980476,76.570323,114.855485,-9437.292334
927.981103,133.998066,114.855485,-9437.292334
927.981731,114.855485,95.712904,-9399.007173
927.982359,57.427742,114.855485,-9418.149754
927.982986,95.712904,114.855485,-9456.434915
927.983614,76.570323,172.283227,-9475.577496
927.984241,76.570323,114.855485,-9418.149754
927.984869,76.570323,114.855485,-9475.577496
927.985497,114.855485,95.712904,-9399.007173
927.986124,153.140646,133.998066,-9437.292334
927.986752,133.998066,153.140646,-9437.292334
927.987380,133.998066,210.568389,-9437.292334
927.988007,153.140646,153.140646,-9399.007173
927.988635,38.285162,153.140646,-9456.434915
927.989262,76.570323,153.140646,-9437.292334
927.989890,76.570323,114.855485,-9418.149754
927.990518,76.570323,114.855485,-9456.434915
927.991145,114.855485,133.998066,-9360.722011
927.991773,133.998066,133.998066,-9456.434915
927.992401,153.140646,153.140646,-9399.007173
927.993028,133.998066,114.855485,-9418.149754
927.993656,38.285162,114.855485,-9418.149754
927.994283,95.712904,95.712904,-9399.007173
927.994911,76.570323,114.855485,-9418.149754
927.995539,153.140646,114.855485,-9437.292334
927.996166,76.570323,114.855485,-9456.434915
927.996794,76.570323,114.855485,-9418.149754
927.997422,76.570323,114.855485,-9475.577496
927.998049,57.427742,114.855485,-9437.292334
927.998677,133.998066,114.855485,-9437.292334
927.999304,133.998066,114.855485,-9437.292334
927.999932,133.998066,114.855485,-9456.434915
928.000560,133.998066,210.568389,-9418.149754
928.001187,38.285162,114.855485,-9418.149754
928.001815,95.712904,114.855485,-9418.149754
928.002442,76.570323,172.283227,-9418.149754
928.003070,133.998066,114.855485,-9475.577496
928.003698,76.570323,76.570323,-9379.864592
928.004325,133.998066,153.140646,-9418.149754
928.004953,133.998066,172.283227,-9456.434915
928.005581,38.285162,210.568389,-9456.434915
928.006208,133.998066,153.140646,-9418.149754
928.006836,76.570323,114.855485,-9437.292334
928.007463,76.570323,210.568389,-9475.577496
928.008091,95.712904,95.712904,-9437.292334
928.008719,76.570323,114.855485,-9437.292334
928.009346,153.140646,133.998066,-9399.007173
928.009974,133.998066,114.855485,-9437.292334
928.010602,133.998066,229.710970,-9456.434915
928.011229,133.998066,210.568389,-9418.149754
928.011857,76.570323,114.855485,-9437.292334
928.012484,133.998066,210.568389,-9418.149754
928.013112,38.285162,153.140646,-9418.149754
928.013740,153.140646,133.998066,-9399.007173
928.014367,133.998066,210.568389,-9456.434915
928.014995,76.570323,172.283227,-9418.149754
928.015622,95.712904,114.855485,-9418.149754
928.016250,133.998066,133.998066,-9456.434915
928.016878,133.998066,114.855485,-9456.434915
928.017505,95.712904,172.283227,-9418.149754
928.018133,153.140646,133.998066,-9399.007173
928.018761,133.998066,114.855485,-9418.149754
928.019388,76.570323,114.855485,-9437.292334
928.020016,172.283227,76.570323,-9475.577496
928.020643,76.570323,172.283227,-9456.434915
928.021271,76.570323,114.855485,-9494.720077
928.021899,153.140646,133.998066,-9456.434915
928.022526,95.712904,153.140646,-9418.149754
928.023154,133.998066,153.140646,-9399.007173
928.023782,133.998066,210.568389,-9456.434915
928.024409,153.140646,133.998066,-9399.007173
928.025037,95.712904,210.568389,-9437.292334
928.025664,133.998066,191.425808,-9399.007173
928.026292,19.142581,114.855485,-9437.292334
928.026920,76.570323,114.855485,-9418.149754
928.027547,133.998066,114.855485,-9418.149754
928.028175,38.285162,114.855485,-9418.149754
928.028803,153.140646,114.855485,-9418.149754
928.029430,76.570323,114.855485,-9456.434915
928.030058,95.712904,114.855485,-9418.149754
928.030685,57.427742,95.712904,-9475.577496
928.031313,114.855485,114.855485,-9399.007173
928.031941,76.570323,114.855485,-9418.149754
928.032568,76.570323,114.855485,-9418.149754
928.033196,133.998066,133.998066,-9399.007173
928.033823,95.712904,133.998066,-9360.722011
928.034451,38.285162,114.855485,-9418.149754
928.035079,95.712904,172.283227,-9418.149754
928.035706,38.285162,114.855485,-9418.149754
928.036334,95.712904,95.712904,-9437.292334
928.036962,95.712904,191.425808,-9360.722011
928.037589,76.570323,114.855485,-9418.149754
928.038217,133.998066,153.140646,-9399.007173
928.038844,133.998066,210.568389,-9494.720077
928.039472,153.140646,133.998066,-9456.434915
928.040100,133.998066,172.283227,-9418.149754
928.040727,153.140646,153.140646,-9379.864592
928.041355,76.570323,114.855485,-9418.149754
928.041983,133.998066,133.998066,-9399.007173
928.042610,38.285162,153.140646,-9418.149754
928.043238,95.712904,172.283227,-9360.722011
928.043865,76.570323,114.855485,-9418.149754
928.044493,114.855485,95.712904,-9437.292334
928.045121,114.855485,114.855485,-9379.864592
928.045748,133.998066,114.855485,-9456.434915
928.046376,133.998066,114.855485,-9456.434915
928.047004,76.570323,114.855485,-9456.434915
928.047631,133.998066,153.140646,-9437.292334
928.048259,76.570323,76.570323,-9399.007173
928.048886,38.285162,114.855485,-9437.292334
928.049514,114.855485,172.283227,-9418.149754
928.050142,133.998066,114.855485,-9418.149754
928.050769,38.285162,114.855485,-9437.292334
928.051397,133.998066,114.855485,-9418.149754
928.052024,133.998066,114.855485,-9437.292334
928.052652,153.140646,133.998066,-9399.007173
928.053280,57.427742,153.140646,-9360.722011
928.053907,133.998066,153.140646,-9418.149754
928.054535,95.712904,95.712904,-9399.007173
928.055163,133.998066,172.283227,-9418.149754
928.055790,133.998066,114.855485,-9418.149754
928.056418,38.285162,210.568389,-9418.149754
928.057045,133.998066,210.568389,-9418.149754
928.057673,133.998066,153.140646,-9418.149754
928.058301,133.998066,114.855485,-9437.292334
928.058928,76.570323,153.140646,-9418.149754
928.059556,38.285162,114.855485,-9475.577496
928.060184,76.570323,153.140646,-9437.292334
928.060811,133.998066,114.855485,-9418.149754
928.061439,76.570323,114.855485,-9456.434915
928.062067,133.998066,172.283227,-9437.292334
928.062694,133.998066,172.283227,-9418.149754
928.063322,38.285162,172.283227,-9418.149754
928.063950,95.712904,133.998066,-9360.722011
928.064578,172.283227,191.425808,-9418.149754
928.065205,133.998066,172.283227,-9494.720077
928.065833,133.998066,229.710970,-9456.434915
928.066461,133.998066,210.568389,-9399.007173
928.067088,114.855485,172.283227,-9360.722011
928.067716,133.998066,114.855485,-9418.149754
928.068344,133.998066,114.855485,-9437.292334
928.068971,76.570323,210.568389,-9475.577496
928.069599,133.998066,172.283227,-9418.149754
928.070227,133.998066,114.855485,-9418.149754
928.070854,133.998066,172.283227,-9437.292334
928.071482,76.570323,172.283227,-9437.292334
928.072110,133.998066,114.855485,-9418.149754
928.072737,133.998066,114.855485,-9456.434915
928.073365,153.140646,133.998066,-9399.007173
928.073993,38.285162,114.855485,-9418.149754
928.074620,133.998066,172.283227,-9437.292334
928.075248,76.570323,210.568389,-9418.149754
928.075876,133.998066,172.283227,-9399.007173
928.076503,76.570323,172.283227,-9533.005238
928.077131,76.570323,172.283227,-9418.149754
928.077759,76.570323,133.998066,-9360.722011
928.078386,38.285162,153.140646,-9456.434915
928.079014,133.998066,153.140646,-9418.149754
928.079642,133.998066,114.855485,-9494.720077
928.080270,76.570323,172.283227,-9475.577496
928.080897,38.285162,114.855485,-9437.292334
928.081525,114.855485,153.140646,-9360.722011
928.082153,133.998066,153.140646,-9399.007173
928.082780,76.570323,172.283227,-9437.292334
928.083408,76.570323,114.855485,-9456.434915
928.084036,133.998066,114.855485,-9456.434915
928.084663,95.712904,172.283227,-9418.149754
928.085291,114.855485,172.283227,-9360.722011
928.085919,76.570323,114.855485,-9494.720077
928.086546,95.712904,172.283227,-9437.292334
928.087174,133.998066,114.855485,-9418.149754
928.087802,133.998066,114.855485,-9456.434915
928.088429,76.570323,133.998066,-9437.292334
928.089057,95.712904,114.855485,-9437.292334
928.089685,95.712904,95.712904,-9399.007173
928.090312,153.140646,133.998066,-9399.007173
928.090940,57.427742,114.855485,-9418.149754
928.091568,76.570323,172.283227,-9437.292334
928.092195,133.998066,210.568389,-9418.149754
928.092823,133.998066,114.855485,-9418.149754
928.093451,172.283227,76.570323,-9418.149754
928.094078,57.427742,133.998066,-9418.149754
928.094706,95.712904,114.855485,-9475.577496
928.095334,76.570323,114.855485,-9418.149754
928.095961,38.285162,172.283227,-9418.149754
928.096589,76.570323,114.855485,-9456.434915
928.097217,133.998066,153.140646,-9437.292334
928.097845,133.998066,114.855485,-9418.149754
928.098472,133.998066,114.855485,-9437.292334
928.099100,38.285162,153.140646,-9418.149754
928.099728,76.570323,172.283227,-9494.720077
928.100355,133.998066,172.283227,-9418.149754
928.100983,95.712904,114.855485,-9418.149754
928.101611,76.570323,210.568389,-9456.434915
928.102238,153.140646,172.283227,-9437.292334
928.102866,76.570323,210.568389,-9437.292334
928.103494,76.570323,114.855485,-9437.292334
928.104121,153.140646,114.855485,-9418.149754
928.104749,114.855485,114.855485,-9437.292334
928.105377,133.998066,172.283227,-9418.149754
928.106004,133.998066,153.140646,-9418.149754
928.106632,76.570323,172.283227,-9437.292334
928.107260,38.285162,114.855485,-9418.149754
928.107887,76.570323,210.568389,-9437.292334
928.108515,133.998066,114.855485,-9494.720077
928.109143,114.855485,95.712904,-9399.007173
928.109770,133.998066,153.140646,-9399.007173
928.110398,76.570323,172.283227,-9437.292334
928.111026,38.285162,153.140646,-9437.292334
928.111653,76.570323,210.568389,-9418.149754
928.112281,153.140646,172.283227,-9456.434915
928.112909,76.570323,114.855485,-9418.149754
928.113536,76.570323,114.855485,-9418.149754
928.114164,76.570323,153.140646,-9360.722011
928.114792,133.998066,210.568389,-9475.577496
928.115420,133.998066,172.283227,-9437.292334
928.116047,95.712904,95.712904,-9399.007173
928.116675,133.998066,133.998066,-9379.864592
928.117303,95.712904,172.283227,-9418.149754
928.117930,133.998066,210.568389,-9418.149754
928.118558,95.712904,114.855485,-9418.149754
928.119186,76.570323,114.855485,-9418.149754
928.119813,133.998066,153.140646,-9475.577496
928.120441,76.570323,114.855485,-9418.149754
928.121069,95.712904,133.998066,-9360.722011
928.121696,76.570323,114.855485,-9418.149754
928.122324,0.000000,95.712904,-9437.292334
928.122952,95.712904,114.855485,-9418.149754
928.123579,133.998066,114.855485,-9418.149754
928.124207,95.712904,114.855485,-9418.149754
928.124835,114.855485,133.998066,-9418.149754
928.125462,76.570323,114.855485,-9418.149754
928.126090,76.570323,114.855485,-9475.577496
928.126718,133.998066,114.855485,-9437.292334
928.127345,38.285162,153.140646,-9475.577496
928.127973,133.998066,114.855485,-9437.292334
928.128601,114.855485,133.998066,-9360.722011
928.129228,114.855485,210.568389,-9379.864592
928.129856,76.570323,114.855485,-9475.577496
928.130484,19.142581,172.283227,-9418.149754
928.131112,133.998066,191.425808,-9418.149754
928.131739,133.998066,114.855485,-9418.149754
928.132367,114.855485,133.998066,-9360.722011
928.132995,57.427742,172.283227,-9418.149754
928.133622,76.570323,114.855485,-9418.149754
928.134250,57.427742,114.855485,-9418.149754
928.134878,76.570323,172.283227,-9418.149754
928.135505,76.570323,172.283227,-9418.149754
928.136133,76.570323,153.140646,-9475.577496
928.136761,76.570323,172.283227,-9533.005238
928.137388,153.140646,133.998066,-9456.434915
928.138016,76.570323,114.855485,-9418.149754
928.138644,95.712904,114.855485,-9418.149754
928.139271,76.570323,76.570323,-9379.864592
928.139899,133.998066,114.855485,-9418.149754
928.140527,76.570323,114.855485,-9437.292334
928.141154,133.998066,153.140646,-9456.434915
928.141782,76.570323,210.568389,-9418.149754
928.142410,76.570323,172.283227,-9437.292334
928.143037,38.285162,153.140646,-9494.720077
928.143665,76.570323,114.855485,-9456.434915
928.144293,76.570323,114.855485,-9418.149754
928.144920,133.998066,114.855485,-9437.292334
928.145548,133.998066,153.140646,-9418.149754
928.146176,95.712904,153.140646,-9418.149754
928.146803,38.285162,114.855485,-9418.149754
928.147431,76.570323,114.855485,-9418.149754
928.148059,133.998066,172.283227,-9418.149754
928.148687,133.998066,114.855485,-9418.149754
928.149314,133.998066,153.140646,-9418.149754
928.149942,114.855485,114.855485,-9379.864592
928.150570,38.285162,191.425808,-9437.292334
928.151197,133.998066,191.425808,-9456.434915
928.151825,133.998066,114.855485,-9456.434915
928.152453,133.998066,153.140646,-9418.149754
928.153080,76.570323,114.855485,-9360.722011
928.153708,95.712904,95.712904,-9399.007173
928.154336,133.998066,191.425808,-9456.434915
928.154963,76.570323,153.140646,-9418.149754
928.155591,133.998066,114.855485,-9456.434915
928.156219,133.998066,133.998066,-9399.007173
928.156846,95.712904,172.283227,-9437.292334
928.157474,133.998066,114.855485,-9475.577496
928.158102,133.998066,114.855485,-9418.149754
928.158729,38.285162,172.283227,-9418.149754
928.159357,76.570323,133.998066,-9360.722011
928.159984,76.570323,210.568389,-9418.149754
928.160612,76.570323,210.568389,-9418.149754
928.161239,38.285162,114.855485,-9475.577496
928.161867,76.570323,114.855485,-9418.149754
928.162494,153.140646,133.998066,-9456.434915
928.163122,76.570323,153.140646,-9418.149754
928.163749,133.998066,114.855485,-9418.149754
928.164377,76.570323,114.855485,-9437.292334
928.165004,76.570323,210.568389,-9418.149754
928.165632,76.570323,172.283227,-9533.005238
928.166259,95.712904,153.140646,-9418.149754
928.166887,133.998066,210.568389,-9418.149754
928.167514,76.570323,133.998066,-9360.722011
928.168142,76.570323,114.855485,-9418.149754
928.168769,133.998066,153.140646,-9418.149754
928.169397,0.000000,95.712904,-9437.292334
928.170024,133.998066,114.855485,-9494.720077
928.170652,95.712904,172.283227,-9494.720077
928.171279,95.712904,172.283227,-9456.434915
928.171907,76.570323,172.283227,-9418.149754
928.172534,153.140646,133.998066,-9399.007173
928.173162,76.570323,114.855485,-9418.149754
928.173789,38.285162,114.855485,-9418.149754
928.174417,38.285162,114.855485,-9475.577496
928.175045,38.285162,114.855485,-9418.149754
928.175672,76.570323,114.855485,-9418.149754
928.176300,95.712904,133.998066,-9360.722011
928.176927,95.712904,172.283227,-9418.149754
928.177555,76.570323,114.855485,-9418.149754
928.178182,38.285162,114.855485,-9360.722011
928.178810,95.712904,95.712904,-9475.577496
928.179437,76.570323,114.855485,-9418.149754
928.180065,57.427742,95.712904,-9437.292334
928.180692,153.140646,133.998066,-9399.007173
928.181320,114.855485,114.855485,-9494.720077
928.181947,153.140646,191.425808,-9437.292334
928.182575,133.998066,153.140646,-9418.149754
928.183202,76.570323,229.710970,-9418.149754
928.183830,133.998066,153.140646,-9418.149754
928.184457,76.570323,114.855485,-9418.149754
928.185085,38.285162,114.855485,-9494.720077
928.185712,133.998066,114.855485,-9494.720077
928.186340,133.998066,114.855485,-9456.434915
928.186967,95.712904,114.855485,-9437.292334
928.187595,114.855485,191.425808,-9360.722011
928.188222,76.570323,114.855485,-9475.577496
928.188850,95.712904,114.855485,-9418.149754
928.189477,133.998066,114.855485,-9418.149754
928.190105,133.998066,114.855485,-9418.149754
928.190732,76.570323,114.855485,-9418.149754
928.191360,133.998066,114.855485,-9418.149754
928.191987,133.998066,76.570323,-9379.864592
928.192615,210.568389,172.283227,-9399.007173
928.193242,76.570323,114.855485,-9437.292334
928.193870,76.570323,114.855485,-9437.292334
928.194497,38.285162,114.855485,-9418.149754
928.195125,38.285162,114.855485,-9418.149754
928.195752,76.570323,95.712904,-9456.434915
928.196380,76.570323,153.140646,-9418.149754
928.197007,133.998066,76.570323,-9379.864592
928.197635,76.570323,172.283227,-9418.149754
928.198262,133.998066,133.998066,-9379.864592
928.198890,76.570323,153.140646,-9418.149754
928.199517,114.855485,133.998066,-9360.722011
928.200145,76.570323,172.283227,-9418.149754
928.200772,95.712904,153.140646,-9360.722011
928.201400,76.570323,153.140646,-9418.149754
928.202027,76.570323,95.712904,-9399.007173
928.202655,133.998066,172.283227,-9437.292334
928.203282,76.570323,114.855485,-9418.149754
928.203910,172.283227,95.712904,-9456.434915
928.204538,133.998066,114.855485,-9494.720077
928.205165,114.855485,95.712904,-9399.007173
928.205793,153.140646,114.855485,-9456.434915
928.206420,133.998066,114.855485,-9437.292334
928.207048,38.285162,210.568389,-9437.292334
928.207675,76.570323,114.855485,-9418.149754
928.208303,133.998066,114.855485,-9475.577496
928.208930,133.998066,114.855485,-9494.720077
928.209558,133.998066,210.568389,-9418.149754
928.210185,133.998066,114.855485,-9418.149754
928.210813,76.570323,172.283227,-9437.292334
928.211440,95.712904,114.855485,-9418.149754
928.212068,76.570323,114.855485,-9418.149754
928.212695,133.998066,210.568389,-9418.149754
928.213323,133.998066,114.855485,-9418.149754
928.213950,153.140646,114.855485,-9418.149754
928.214578,133.998066,114.855485,-9456.434915
928.215205,133.998066,172.283227,-9456.434915
928.215833,76.570323,114.855485,-9475.577496
928.216460,133.998066,210.568389,-9437.292334
928.217088,133.998066,191.425808,-9475.577496
928.217715,133.998066,153.140646,-9437.292334
928.218343,133.998066,172.283227,-9418.149754
928.218970,76.570323,172.283227,-9418.149754
928.219598,114.855485,95.712904,-9399.007173
928.220225,95.712904,191.425808,-9456.434915
928.220853,76.570323,172.283227,-9418.149754
928.221480,95.712904,114.855485,-9418.149754
928.222108,38.285162,153.140646,-9418.149754
928.222735,38.285162,114.855485,-9456.434915
928.223363,76.570323,114.855485,-9418.149754
928.223990,133.998066,114.855485,-9456.434915
928.224618,95.712904,114.855485,-9418.149754
928.225245,133.998066,114.855485,-9437.292334
928.225873,153.140646,133.998066,-9399.007173
928.226500,133.998066,76.570323,-9379.864592
928.227128,76.570323,114.855485,-9418.149754
928.227755,76.570323,114.855485,-9418.149754
928.228383,133.998066,114.855485,-9418.149754
928.229010,153.140646,133.998066,-9399.007173
928.229638,114.855485,153.140646,-9418.149754
928.230265,38.285162,114.855485,-9437.292334
928.230893,133.998066,133.998066,-9399.007173
928.231520,38.285162,76.570323,-9379.864592
928.232148,76.570323,114.855485,-9437.292334
928.232775,38.285162,114.855485,-9456.434915
928.233403,76.570323,114.855485,-9456.434915
928.234031,38.285162,191.425808,-9418.149754
928.234658,76.570323,172.283227,-9418.149754
928.235286,76.570323,172.283227,-9437.292334
928.235913,153.140646,172.283227,-9399.007173
928.236541,76.570323,114.855485,-9456.434915
928.237168,153.140646,133.998066,-9456.434915
928.237796,133.998066,153.140646,-9475.577496
928.238423,133.998066,114.855485,-9418.149754
928.239051,19.142581,210.568389,-9437.292334
928.239678,38.285162,114.855485,-9418.149754
928.240306,76.570323,172.283227,-9437.292334
928.240933,76.570323,114.855485,-9418.149754
928.241561,114.855485,172.283227,-9360.722011
928.242188,76.570323,114.855485,-9418.149754
928.242816,76.570323,153.140646,-9418.149754
928.243443,133.998066,114.855485,-9456.434915
928.244071,76.570323,114.855485,-9399.007173
928.244698,133.998066,191.425808,-9418.149754
928.245326,153.140646,210.568389,-9418.149754
928.245953,76.570323,114.855485,-9418.149754
928.246581,38.285162,210.568389,-9456.434915
928.247208,76.570323,114.855485,-9437.292334
928.247836,76.570323,114.855485,-9456.434915
928.248463,76.570323,114.855485,-9437.292334
928.249091,95.712904,114.855485,-9418.149754
928.249718,57.427742,114.855485,-9418.149754
928.250346,133.998066,153.140646,-9437.292334
928.250973,153.140646,114.855485,-9418.149754
928.251601,76.570323,114.855485,-9418.149754
928.252228,76.570323,172.283227,-9418.149754
928.252856,95.712904,95.712904,-9399.007173
928.253483,95.712904,153.140646,-9475.577496
928.254111,133.998066,114.855485,-9475.577496
928.254738,76.570323,114.855485,-9456.434915
928.255366,133.998066,114.855485,-9418.149754
928.255993,133.998066,114.855485,-9418.149754
928.256621,95.712904,191.425808,-9437.292334
928.257248,153.140646,133.998066,-9399.007173
928.257876,76.570323,114.855485,-9418.149754
928.258503,38.285162,172.283227,-9418.149754
928.259131,133.998066,114.855485,-9418.149754
928.259758,133.998066,172.283227,-9418.149754
928.260386,38.285162,114.855485,-9418.149754
928.261013,133.998066,114.855485,-9437.292334
928.261641,38.285162,172.283227,-9456.434915
928.262268,38.285162,114.855485,-9418.149754
928.262896,38.285162,114.855485,-9418.149754
928.263523,76.570323,191.425808,-9418.149754
928.264150,133.998066,172.283227,-9418.149754
928.264778,133.998066,133.998066,-9456.434915
928.265405,19.142581,133.998066,-9437.292334
928.266033,38.285162,95.712904,-9437.292334
928.266660,133.998066,114.855485,-9418.149754
928.267288,133.998066,153.140646,-9418.149754
928.267915,95.712904,95.712904,-9456.434915
928.268543,76.570323,210.568389,-9418.149754
928.269170,133.998066,114.855485,-9418.149754
928.269797,76.570323,114.855485,-9437.292334
928.270425,76.570323,114.855485,-9475.577496
928.271052,76.570323,172.283227,-9475.577496
928.271680,133.998066,114.855485,-9418.149754
928.272307,38.285162,153.140646,-9418.149754
928.272935,133.998066,172.283227,-9418.149754
928.273562,153.140646,133.998066,-9399.007173
928.274190,153.140646,172.283227,-9456.434915
928.274817,76.570323,172.283227,-9437.292334
928.275445,76.570323,210.568389,-9437.292334
928.276072,133.998066,210.568389,-9475.577496
928.276699,133.998066,172.283227,-9437.292334
928.277327,76.570323,114.855485,-9418.149754
928.277954,133.998066,114.855485,-9437.292334
928.278582,76.570323,172.283227,-9456.434915
928.279209,38.285162,172.283227,-9418.149754
928.279837,95.712904,153.140646,-9418.149754
928.280464,95.712904,114.855485,-9456.434915
928.281092,76.570323,114.855485,-9418.149754
928.281719,76.570323,153.140646,-9418.149754
928.282346,95.712904,114.855485,-9418.149754
928.282974,76.570323,114.855485,-9418.149754
928.283601,57.427742,114.855485,-9418.149754
928.284229,95.712904,114.855485,-9418.149754
928.284856,76.570323,114.855485,-9418.149754
928.285484,76.570323,114.855485,-9437.292334
928.286111,133.998066,172.283227,-9533.005238
928.286739,76.570323,172.283227,-9437.292334
928.287366,133.998066,153.140646,-9418.149754
928.287993,133.998066,191.425808,-9533.005238
928.288621,95.712904,153.140646,-9475.577496
928.289248,38.285162,114.855485,-9418.149754
928.289876,38.285162,114.855485,-9418.149754
928.290503,0.000000,95.712904,-9456.434915
928.291131,95.712904,172.283227,-9437.292334
928.291758,76.570323,114.855485,-9418.149754
928.292386,133.998066,153.140646,-9494.720077
928.293013,133.998066,153.140646,-9418.149754
928.293640,133.998066,172.283227,-9418.149754
928.294268,95.712904,172.283227,-9360.722011
928.294895,76.570323,114.855485,-9418.149754
928.295523,76.570323,95.712904,-9418.149754
928.296150,95.712904,95.712904,-9456.434915
928.296778,76.570323,114.855485,-9494.720077
928.297405,95.712904,153.140646,-9418.149754
928.298033,95.712904,172.283227,-9418.149754
928.298660,133.998066,153.140646,-9418.149754
928.299288,38.285162,210.568389,-9418.149754
928.299915,95.712904,133.998066,-9360.722011
928.300542,76.570323,114.855485,-9437.292334
928.301170,133.998066,114.855485,-9437.292334
928.301797,38.285162,114.855485,-9418.149754
928.302425,133.998066,172.283227,-9418.149754
928.303052,153.140646,133.998066,-9399.007173
928.303680,133.998066,114.855485,-9418.149754
928.304307,153.140646,133.998066,-9437.292334
928.304935,172.283227,76.570323,-9437.292334
928.305562,57.427742,172.283227,-9418.149754
928.306189,76.570323,114.855485,-9418.149754
928.306817,153.140646,133.998066,-9456.434915
928.307444,172.283227,76.570323,-9456.434915
928.308072,76.570323,114.855485,-9418.149754
928.308699,153.140646,133.998066,-9399.007173
928.309327,133.998066,114.855485,-9418.149754
928.309954,114.855485,133.998066,-9418.149754
928.310582,76.570323,114.855485,-9418.149754
928.311209,95.712904,133.998066,-9360.722011
928.311836,95.712904,153.140646,-9360.722011
928.312464,38.285162,153.140646,-9418.149754
928.313091,133.998066,114.855485,-9456.434915
928.313719,172.283227,95.712904,-9399.007173
928.314346,76.570323,172.283227,-9418.149754
928.314974,133.998066,114.855485,-9418.149754
928.315601,76.570323,114.855485,-9418.149754
928.316229,133.998066,114.855485,-9437.292334
928.316856,76.570323,153.140646,-9475.577496
928.317483,133.998066,114.855485,-9418.149754
928.318111,153.140646,133.998066,-9399.007173
928.318738,133.998066,114.855485,-9418.149754
928.319366,76.570323,210.568389,-9456.434915
928.319993,38.285162,172.283227,-9418.149754
928.320621,133.998066,114.855485,-9418.149754
928.321248,133.998066,114.855485,-9418.149754
928.321876,95.712904,114.855485,-9418.149754
928.322503,133.998066,133.998066,-9399.007173
928.323131,133.998066,114.855485,-9456.434915
928.323758,133.998066,114.855485,-9437.292334
928.324385,76.570323,114.855485,-9437.292334
928.325013,95.712904,153.140646,-9475.577496
928.325640,76.570323,172.283227,-9399.007173
928.326268,153.140646,191.425808,-9437.292334
928.326895,153.140646,133.998066,-9399.007173
928.327523,153.140646,133.998066,-9399.007173
928.328150,133.998066,172.283227,-9360.722011
928.328778,133.998066,133.998066,-9475.577496
928.329405,76.570323,210.568389,-9418.149754
928.330032,133.998066,133.998066,-9399.007173
928.330660,133.998066,114.855485,-9418.149754
928.331287,133.998066,114.855485,-9418.149754
928.331915,133.998066,114.855485,-9418.149754
928.332542,133.998066,153.140646,-9418.149754
928.333170,133.998066,114.855485,-9418.149754
928.333797,153.140646,248.853550,-9399.007173
928.334425,38.285162,210.568389,-9418.149754
928.335052,133.998066,191.425808,-9399.007173
928.335679,133.998066,153.140646,-9456.434915
928.336307,76.570323,114.855485,-9418.149754
928.336934,76.570323,210.568389,-9418.149754
928.337562,153.140646,133.998066,-9513.862658
928.338189,57.427742,95.712904,-9437.292334
928.338817,133.998066,114.855485,-9418.149754
928.339444,57.427742,95.712904,-9437.292334
928.340072,76.570323,114.855485,-9475.577496
928.340699,133.998066,114.855485,-9456.434915
928.341326,95.712904,114.855485,-9418.149754
928.341954,153.140646,248.853550,-9456.434915
928.342581,38.285162,114.855485,-9418.149754
928.343209,133.998066,114.855485,-9418.149754
928.343836,76.570323,172.283227,-9456.434915
928.344464,76.570323,114.855485,-9456.434915
928.345091,133.998066,153.140646,-9418.149754
928.345719,38.285162,114.855485,-9456.434915
928.346346,38.285162,172.283227,-9456.434915
928.346974,38.285162,172.283227,-9456.434915
928.347601,76.570323,95.712904,-9360.722011
928.348228,95.712904,210.568389,-9418.149754
928.348856,38.285162,114.855485,-9418.149754
928.349483,133.998066,172.283227,-9418.149754
928.350111,153.140646,172.283227,-9456.434915
928.350738,76.570323,114.855485,-9456.434915
928.351366,114.855485,95.712904,-9399.007173
928.351993,76.570323,153.140646,-9418.149754
928.352621,133.998066,114.855485,-9456.434915
928.353248,76.570323,114.855485,-9418.149754
928.353875,38.285162,153.140646,-9475.577496
928.354503,133.998066,114.855485,-9418.149754
928.355130,153.140646,153.140646,-9399.007173
928.355758,133.998066,114.855485,-9418.149754
928.356385,38.285162,153.140646,-9418.149754
928.357013,114.855485,153.140646,-9418.149754
928.357640,76.570323,114.855485,-9418.149754
928.358268,76.570323,172.283227,-9418.149754
928.358895,133.998066,153.140646,-9456.434915
928.359522,76.570323,114.855485,-9437.292334
928.360150,57.427742,95.712904,-9437.292334
928.360777,133.998066,114.855485,-9456.434915
928.361405,95.712904,114.855485,-9456.434915
928.362032,153.140646,133.998066,-9399.007173
928.362659,76.570323,114.855485,-9437.292334
928.363287,38.285162,114.855485,-9418.149754
928.363914,133.998066,114.855485,-9418.149754
928.364542,133.998066,191.425808,-9437.292334
928.365169,133.998066,114.855485,-9418.149754
928.365796,95.712904,95.712904,-9399.007173
928.366424,38.285162,114.855485,-9418.149754
928.367051,76.570323,95.712904,-9437.292334
928.367678,133.998066,153.140646,-9475.577496
928.368306,133.998066,114.855485,-9437.292334
928.368933,133.998066,229.710970,-9418.149754
928.369561,38.285162,153.140646,-9456.434915
928.370188,38.285162,210.568389,-9437.292334
928.370815,38.285162,114.855485,-9456.434915
928.371443,38.285162,114.855485,-9418.149754
928.372070,133.998066,114.855485,-9418.149754
928.372698,133.998066,114.855485,-9437.292334
928.373325,133.998066,114.855485,-9418.149754
928.373952,172.283227,114.855485,-9379.864592
928.374580,153.140646,133.998066,-9399.007173
928.375207,57.427742,95.712904,-9399.007173
928.375835,38.285162,172.283227,-9418.149754
928.376462,38.285162,114.855485,-9456.434915
928.377089,133.998066,172.283227,-9418.149754
928.377717,114.855485,95.712904,-9399.007173
928.378344,153.140646,133.998066,-9399.007173
928.378971,76.570323,229.710970,-9418.149754
928.379599,19.142581,210.568389,-9418.149754
928.380226,38.285162,210.568389,-9456.434915
928.380854,38.285162,172.283227,-9418.149754
928.381481,38.285162,114.855485,-9533.005238
928.382108,133.998066,210.568389,-9475.577496
928.382736,133.998066,172.283227,-9418.149754
928.383363,133.998066,114.855485,-9360.722011
928.383991,76.570323,114.855485,-9456.434915
928.384618,38.285162,114.855485,-9475.577496
928.385245,153.140646,153.140646,-9437.292334
928.385873,133.998066,114.855485,-9475.577496
928.386500,133.998066,114.855485,-9437.292334
928.387128,153.140646,153.140646,-9399.007173
928.387755,133.998066,133.998066,-9399.007173
928.388382,76.570323,210.568389,-9418.149754
928.389010,76.570323,210.568389,-9418.149754
928.389637,38.285162,191.425808,-9437.292334
928.390264,76.570323,114.855485,-9418.149754
928.390892,76.570323,172.283227,-9437.292334
928.391519,153.140646,172.283227,-9437.292334
928.392147,153.140646,133.998066,-9456.434915
928.392774,133.998066,114.855485,-9418.149754
928.393401,76.570323,114.855485,-9418.149754
928.394029,76.570323,114.855485,-9418.149754
928.394656,38.285162,114.855485,-9418.149754
928.395284,76.570323,114.855485,-9437.292334
928.395911,57.427742,114.855485,-9360.722011
928.396538,133.998066,133.998066,-9399.007173
928.397166,133.998066,114.855485,-9418.149754
928.397793,133.998066,153.140646,-9494.720077
928.398421,76.570323,153.140646,-9494.720077
928.399048,153.140646,172.283227,-9533.005238
928.399675,76.570323,114.855485,-9475.577496
928.400303,114.855485,133.998066,-9475.577496
928.400930,76.570323,114.855485,-9437.292334
928.401557,133.998066,153.140646,-9418.149754
928.402185,153.140646,153.140646,-9399.007173
928.402812,133.998066,114.855485,-9418.149754
928.403440,133.998066,210.568389,-9418.149754
928.404067,133.998066,114.855485,-9418.149754
928.404694,133.998066,133.998066,-9437.292334
928.405322,95.712904,114.855485,-9418.149754
928.405949,76.570323,114.855485,-9418.149754
928.406577,114.855485,153.140646,-9360.722011
928.407204,95.712904,114.855485,-9418.149754
928.407831,76.570323,114.855485,-9437.292334
928.408459,76.570323,114.855485,-9456.434915
928.409086,76.570323,172.283227,-9418.149754
928.409714,114.855485,191.425808,-9418.149754
928.410341,57.427742,95.712904,-9437.292334
928.410968,133.998066,114.855485,-9437.292334
928.411596,95.712904,114.855485,-9456.434915
928.412223,38.285162,172.283227,-9418.149754
928.412851,76.570323,153.140646,-9475.577496
928.413478,76.570323,114.855485,-9456.434915
928.414105,76.570323,210.568389,-9437.292334
928.414733,133.998066,114.855485,-9456.434915
928.415360,114.855485,191.425808,-9360.722011
928.415987,76.570323,114.855485,-9456.434915
928.416615,95.712904,95.712904,-9494.720077
928.417242,76.570323,191.425808,-9418.149754
928.417870,133.998066,172.283227,-9399.007173
928.418497,76.570323,114.855485,-9437.292334
928.419124,38.285162,114.855485,-9418.149754
928.419752,57.427742,133.998066,-9360.722011
928.420379,133.998066,114.855485,-9418.149754
928.421007,95.712904,95.712904,-9399.007173
928.421634,95.712904,95.712904,-9456.434915
928.422261,76.570323,210.568389,-9456.434915
928.422889,76.570323,153.140646,-9418.149754
928.423516,38.285162,172.283227,-9418.149754
928.424144,95.712904,153.140646,-9360.722011
928.424771,95.712904,114.855485,-9379.864592
928.425398,57.427742,95.712904,-9399.007173
928.426026,133.998066,229.710970,-9418.149754
928.426653,133.998066,114.855485,-9437.292334
928.427280,133.998066,153.140646,-9418.149754
928.427908,57.427742,153.140646,-9418.149754
928.428535,38.285162,114.855485,-9418.149754
928.429163,153.140646,133.998066,-9494.720077
928.429790,76.570323,114.855485,-9418.149754
928.430417,76.570323,172.283227,-9418.149754
928.431045,76.570323,153.140646,-9437.292334
928.431672,76.570323,114.855485,-9418.149754
928.432300,95.712904,114.855485,-9418.149754
928.432927,95.712904,133.998066,-9418.149754
928.433554,133.998066,114.855485,-9418.149754
928.434182,76.570323,153.140646,-9456.434915
928.434809,38.285162,153.140646,-9418.149754
928.435437,114.855485,95.712904,-9399.007173
928.436064,95.712904,114.855485,-9399.007173
928.436691,38.285162,114.855485,-9418.149754
928.437319,19.142581,114.855485,-9418.149754
928.437946,76.570323,153.140646,-9437.292334
928.438573,76.570323,114.855485,-9418.149754
928.439201,76.570323,114.855485,-9437.292334
928.439828,133.998066,133.998066,-9399.007173
928.440456,76.570323,191.425808,-9418.149754
928.441083,133.998066,153.140646,-9418.149754
928.441710,38.285162,114.855485,-9437.292334
928.442338,76.570323,172.283227,-9418.149754
928.442965,76.570323,191.425808,-9418.149754
928.443593,95.712904,248.853550,-9360.722011
928.444220,95.712904,210.568389,-9475.577496
928.444847,114.855485,114.855485,-9494.720077
928.445475,38.285162,114.855485,-9456.434915
928.446102,95.712904,114.855485,-9494.720077
928.446730,76.570323,114.855485,-9418.149754
928.447357,76.570323,153.140646,-9418.149754
928.447984,133.998066,114.855485,-9456.434915
928.448612,153.140646,172.283227,-9399.007173
928.449239,95.712904,95.712904,-9456.434915
928.449866,76.570323,114.855485,-9456.434915
928.450494,133.998066,153.140646,-9418.149754
928.451121,38.285162,153.140646,-9418.149754
928.451749,76.570323,114.855485,-9418.149754
928.452376,133.998066,133.998066,-9399.007173
928.453003,153.140646,95.712904,-9360.722011
928.453631,95.712904,95.712904,-9456.434915
928.454258,76.570323,114.855485,-9418.149754
928.454886,76.570323,114.855485,-9456.434915
928.455513,38.285162,153.140646,-9418.149754
928.456140,38.285162,114.855485,-9437.292334
928.456768,38.285162,114.855485,-9494.720077
928.457395,95.712904,114.855485,-9418.149754
928.458023,76.570323,153.140646,-9475.577496
928.458650,76.570323,210.568389,-9437.292334
928.459277,57.427742,133.998066,-9360.722011
928.459904,133.998066,114.855485,-9418.149754
928.460532,133.998066,153.140646,-9437.292334
928.461159,76.570323,114.855485,-9437.292334
928.461786,133.998066,114.855485,-9437.292334
928.462413,76.570323,153.140646,-9418.149754
928.463040,76.570323,114.855485,-9437.292334
928.463667,76.570323,114.855485,-9437.292334
928.464295,76.570323,114.855485,-9437.292334
928.464922,133.998066,133.998066,-9399.007173
928.465549,133.998066,172.283227,-9418.149754
928.466176,76.570323,114.855485,-9418.149754
928.466803,76.570323,114.855485,-9418.149754
928.467430,76.570323,114.855485,-9437.292334
928.468058,133.998066,210.568389,-9456.434915
928.468685,76.570323,172.283227,-9475.577496
928.469312,76.570323,172.283227,-9437.292334
928.469939,95.712904,95.712904,-9399.007173
928.470566,133.998066,153.140646,-9418.149754
928.471193,95.712904,114.855485,-9437.292334
928.471821,76.570323,172.283227,-9418.149754
928.472448,76.570323,172.283227,-9418.149754
928.473075,57.427742,172.283227,-9418.149754
928.473702,133.998066,114.855485,-9418.149754
928.474329,95.712904,114.855485,-9418.149754
928.474956,76.570323,114.855485,-9437.292334
928.475583,153.140646,133.998066,-9456.434915
928.476211,133.998066,172.283227,-9418.149754
928.476838,76.570323,172.283227,-9437.292334
928.477465,76.570323,210.568389,-9418.149754
928.478092,76.570323,172.283227,-9494.720077
928.478719,76.570323,153.140646,-9418.149754
928.479346,76.570323,114.855485,-9418.149754
928.479974,76.570323,114.855485,-9418.149754
928.480601,57.427742,95.712904,-9456.434915
928.481228,76.570323,95.712904,-9494.720077
928.481855,95.712904,95.712904,-9399.007173
928.482482,19.142581,114.855485,-9418.149754
928.483109,210.568389,172.283227,-9399.007173
928.483737,114.855485,95.712904,-9399.007173
928.484364,133.998066,153.140646,-9399.007173
928.484991,57.427742,153.140646,-9360.722011
928.485618,133.998066,114.855485,-9418.149754
928.486245,133.998066,114.855485,-9418.149754
928.486872,76.570323,153.140646,-9437.292334
928.487500,38.285162,114.855485,-9418.149754
928.488127,76.570323,114.855485,-9418.149754
928.488754,76.570323,172.283227,-9437.292334
928.489381,57.427742,133.998066,-9360.722011
928.490008,76.570323,114.855485,-9418.149754
928.490635,76.570323,114.855485,-9475.577496
928.491262,19.142581,114.855485,-9437.292334
928.491890,95.712904,153.140646,-9456.434915
928.492517,76.570323,172.283227,-9437.292334
928.493144,76.570323,153.140646,-9418.149754
928.493771,76.570323,153.140646,-9418.149754
928.494398,38.285162,172.283227,-9418.149754
928.495025,0.000000,114.855485,-9399.007173
928.495653,95.712904,95.712904,-9437.292334
928.496280,133.998066,153.140646,-9418.149754
928.496907,114.855485,133.998066,-9360.722011
928.497534,153.140646,153.140646,-9456.434915
928.498161,133.998066,114.855485,-9418.149754
928.498788,95.712904,114.855485,-9437.292334
928.499416,191.425808,76.570323,-9418.149754
928.500043,76.570323,114.855485,-9418.149754
928.500670,133.998066,153.140646,-9418.149754
928.501297,133.998066,114.855485,-9456.434915
928.501924,76.570323,114.855485,-9418.149754
928.502551,95.712904,114.855485,-9418.149754
928.503179,95.712904,133.998066,-9360.722011
928.503806,38.285162,153.140646,-9475.577496
928.504433,76.570323,153.140646,-9437.292334
928.505060,95.712904,172.283227,-9437.292334
928.505687,133.998066,114.855485,-9418.149754
928.506314,95.712904,95.712904,-9494.720077
928.506941,133.998066,114.855485,-9418.149754
928.507569,76.570323,133.998066,-9360.722011
928.508196,133.998066,133.998066,-9456.434915
928.508823,133.998066,133.998066,-9399.007173
928.509450,133.998066,114.855485,-9418.149754
928.510077,133.998066,114.855485,-9456.434915
928.510704,133.998066,114.855485,-9437.292334
928.511332,95.712904,114.855485,-9399.007173
928.511959,76.570323,210.568389,-9418.149754
928.512586,76.570323,172.283227,-9418.149754
928.513213,153.140646,133.998066,-9399.007173
928.513840,133.998066,114.855485,-9437.292334
928.514467,133.998066,114.855485,-9418.149754
928.515095,95.712904,114.855485,-9437.292334
928.515722,38.285162,172.283227,-9456.434915
928.516349,114.855485,133.998066,-9360.722011
928.516976,76.570323,114.855485,-9418.149754
928.517603,95.712904,153.140646,-9418.149754
928.518230,133.998066,153.140646,-9494.720077
928.518858,76.570323,114.855485,-9418.149754
928.519485,76.570323,153.140646,-9418.149754
928.520112,76.570323,172.283227,-9418.149754
928.520739,38.285162,114.855485,-9418.149754
928.521366,133.998066,172.283227,-9360.722011
928.521993,133.998066,114.855485,-9437.292334
928.522620,133.998066,114.855485,-9456.434915
928.523248,76.570323,229.710970,-9437.292334
928.523875,133.998066,172.283227,-9418.149754
928.524502,76.570323,114.855485,-9418.149754
928.525129,76.570323,114.855485,-9418.149754
928.525756,76.570323,114.855485,-9418.149754
928.526383,76.570323,114.855485,-9418.149754
928.527011,153.140646,133.998066,-9399.007173
928.527638,172.283227,114.855485,-9379.864592
928.528265,95.712904,172.283227,-9437.292334
928.528892,95.712904,95.712904,-9399.007173
928.529519,133.998066,114.855485,-9456.434915
928.530146,133.998066,114.855485,-9418.149754
928.530774,133.998066,114.855485,-9437.292334
928.531401,76.570323,114.855485,-9418.149754
928.532028,76.570323,172.283227,-9437.292334
928.532655,133.998066,114.855485,-9437.292334
928.533282,153.140646,153.140646,-9437.292334
928.533909,76.570323,153.140646,-9418.149754
928.534536,133.998066,153.140646,-9456.434915
928.535164,153.140646,133.998066,-9494.720077
928.535791,114.855485,114.855485,-9494.720077
928.536418,153.140646,172.283227,-9456.434915
928.537045,76.570323,172.283227,-9418.149754
928.537672,76.570323,114.855485,-9418.149754
928.538299,95.712904,133.998066,-9360.722011
928.538927,76.570323,172.283227,-9418.149754
928.539554,95.712904,133.998066,-9360.722011
928.540181,133.998066,153.140646,-9418.149754
928.540808,153.140646,133.998066,-9475.577496
928.541435,133.998066,248.853550,-9513.862658
928.542062,133.998066,133.998066,-9437.292334
928.542690,57.427742,172.283227,-9437.292334
928.543317,133.998066,114.855485,-9475.577496
928.543944,57.427742,114.855485,-9418.149754
928.544571,95.712904,114.855485,-9456.434915
928.545198,57.427742,114.855485,-9418.149754
928.545825,76.570323,114.855485,-9437.292334
928.546453,38.285162,153.140646,-9418.149754
928.547080,76.570323,153.140646,-9437.292334
928.547707,133.998066,153.140646,-9494.720077
928.548334,57.427742,114.855485,-9418.149754
928.548961,133.998066,172.283227,-9456.434915
928.549588,133.998066,133.998066,-9456.434915
928.550215,76.570323,114.855485,-9418.149754
928.550843,76.570323,114.855485,-9418.149754
928.551470,114.855485,95.712904,-9456.434915
928.552097,95.712904,153.140646,-9437.292334
928.552724,76.570323,114.855485,-9418.149754
928.553351,76.570323,114.855485,-9456.434915
928.553978,133.998066,172.283227,-9418.149754
928.554606,76.570323,114.855485,-9437.292334
928.555233,133.998066,133.998066,-9399.007173
928.555860,133.998066,133.998066,-9475.577496
928.556487,76.570323,153.140646,-9437.292334
928.557114,76.570323,210.568389,-9418.149754
928.557741,95.712904,172.283227,-9456.434915
928.558369,76.570323,114.855485,-9418.149754
928.558996,76.570323,172.283227,-9437.292334
928.559623,133.998066,210.568389,-9437.292334
928.560250,133.998066,172.283227,-9456.434915
928.560878,133.998066,172.283227,-9418.149754
928.561505,95.712904,153.140646,-9418.149754
928.562132,76.570323,114.855485,-9418.149754
928.562760,133.998066,114.855485,-9418.149754
928.563387,133.998066,114.855485,-9437.292334
928.564015,133.998066,114.855485,-9456.434915
928.564642,133.998066,153.140646,-9418.149754
928.565269,133.998066,114.855485,-9418.149754
928.565897,133.998066,153.140646,-9418.149754
928.566524,133.998066,133.998066,-9456.434915
928.567152,133.998066,114.855485,-9418.149754
928.567779,153.140646,133.998066,-9399.007173
928.568406,114.855485,95.712904,-9399.007173
928.569034,114.855485,114.855485,-9399.007173
928.569661,153.140646,133.998066,-9456.434915
928.570289,133.998066,114.855485,-9437.292334
928.570916,95.712904,95.712904,-9399.007173
928.571543,133.998066,191.425808,-9456.434915
928.572171,172.283227,229.710970,-9379.864592
928.572798,38.285162,114.855485,-9418.149754
928.573426,38.285162,172.283227,-9437.292334
928.574053,57.427742,210.568389,-9437.292334
928.574680,76.570323,114.855485,-9418.149754
928.575308,76.570323,153.140646,-9437.292334
928.575935,95.712904,114.855485,-9418.149754
928.576563,95.712904,172.283227,-9360.722011
928.577190,76.570323,153.140646,-9475.577496
928.577817,114.855485,95.712904,-9399.007173
928.578445,133.998066,95.712904,-9418.149754
928.579072,153.140646,133.998066,-9456.434915
928.579700,133.998066,133.998066,-9456.434915
928.580327,114.855485,133.998066,-9437.292334
928.580954,76.570323,114.855485,-9418.149754
928.581582,38.285162,153.140646,-9494.720077
928.582209,95.712904,95.712904,-9399.007173
928.582837,95.712904,76.570323,-9379.864592
928.583464,133.998066,210.568389,-9418.149754
928.584091,76.570323,114.855485,-9418.149754
928.584719,38.285162,114.855485,-9418.149754
928.585346,76.570323,114.855485,-9418.149754
928.585974,133.998066,114.855485,-9418.149754
928.586601,133.998066,114.855485,-9456.434915
928.587228,38.285162,114.855485,-9418.149754
928.587856,38.285162,229.710970,-9456.434915
928.588483,76.570323,210.568389,-9456.434915
928.589111,133.998066,153.140646,-9399.007173
928.589738,133.998066,114.855485,-9418.149754
928.590365,133.998066,114.855485,-9437.292334
928.590993,76.570323,95.712904,-9399.007173
928.591620,38.285162,114.855485,-9418.149754
928.592248,133.998066,76.570323,-9379.864592
928.592875,133.998066,172.283227,-9418.149754
928.593502,38.285162,114.855485,-9418.149754
928.594130,76.570323,95.712904,-9399.007173
928.594757,76.570323,114.855485,-9418.149754
928.595385,133.998066,114.855485,-9418.149754
928.596012,133.998066,114.855485,-9418.149754
928.596639,76.570323,114.855485,-9418.149754
928.597267,76.570323,114.855485,-9418.149754
928.597894,114.855485,153.140646,-9379.864592
928.598522,133.998066,114.855485,-9437.292334
928.599149,210.568389,153.140646,-9399.007173
928.599776,153.140646,191.425808,-9494.720077
928.600404,95.712904,114.855485,-9418.149754
928.601031,76.570323,114.855485,-9418.149754
928.601659,76.570323,153.140646,-9418.149754
928.602286,133.998066,114.855485,-9418.149754
928.602913,76.570323,172.283227,-9437.292334
928.603541,114.855485,114.855485,-9399.007173
928.604168,76.570323,172.283227,-9437.292334
928.604796,38.285162,153.140646,-9418.149754
928.605423,95.712904,114.855485,-9418.149754
928.606050,133.998066,172.283227,-9494.720077
928.606678,133.998066,114.855485,-9418.149754
928.607305,133.998066,114.855485,-9418.149754
928.607932,76.570323,153.140646,-9418.149754
928.608560,57.427742,95.712904,-9399.007173
928.609187,38.285162,153.140646,-9418.149754
928.609815,133.998066,114.855485,-9418.149754
928.610442,76.570323,210.568389,-9418.149754
928.611069,76.570323,114.855485,-9418.149754
928.611697,95.712904,133.998066,-9360.722011
928.612324,133.998066,153.140646,-9456.434915
928.612952,114.855485,133.998066,-9360.722011
928.613579,95.712904,172.283227,-9437.292334
928.614206,19.142581,153.140646,-9418.149754
928.614834,76.570323,114.855485,-9418.149754
928.615461,76.570323,172.283227,-9418.149754
928.616089,133.998066,172.283227,-9418.149754
928.616716,76.570323,114.855485,-9418.149754
928.617343,133.998066,210.568389,-9418.149754
928.617971,133.998066,172.283227,-9418.149754
928.618598,76.570323,210.568389,-9494.720077
928.619226,153.140646,153.140646,-9437.292334
928.619853,76.570323,114.855485,-9437.292334
928.620480,133.998066,114.855485,-9418.149754
928.621108,76.570323,95.712904,-9399.007173
928.621735,76.570323,114.855485,-9456.434915
928.622363,133.998066,114.855485,-9418.149754
928.622990,95.712904,172.283227,-9437.292334
928.623617,133.998066,172.283227,-9533.005238
928.624245,133.998066,114.855485,-9418.149754
928.624872,76.570323,172.283227,-9437.292334
928.625500,133.998066,210.568389,-9494.720077
928.626127,38.285162,114.855485,-9418.149754
928.626754,133.998066,114.855485,-9418.149754
928.627382,133.998066,114.855485,-9418.149754
928.628009,76.570323,114.855485,-9418.149754
928.628637,76.570323,172.283227,-9418.149754
928.629264,95.712904,153.140646,-9456.434915
928.629891,76.570323,114.855485,-9456.434915
928.630519,133.998066,114.855485,-9437.292334
928.631146,95.712904,95.712904,-9399.007173
928.631774,95.712904,114.855485,-9456.434915
928.632401,114.855485,95.712904,-9399.007173
928.633028,133.998066,172.283227,-9418.149754
928.633656,153.140646,133.998066,-9399.007173
928.634283,76.570323,114.855485,-9456.434915
928.634911,133.998066,114.855485,-9418.149754
928.635538,133.998066,114.855485,-9418.149754
928.636165,133.998066,114.855485,-9418.149754
928.636793,76.570323,114.855485,-9418.149754
928.637420,57.427742,95.712904,-9399.007173
928.638048,76.570323,172.283227,-9533.005238
928.638675,38.285162,114.855485,-9418.149754
928.639302,133.998066,153.140646,-9418.149754
928.639930,76.570323,172.283227,-9456.434915
928.640557,133.998066,172.283227,-9418.149754
928.641185,133.998066,114.855485,-9418.149754
928.641812,133.998066,114.855485,-9494.720077
928.642439,76.570323,153.140646,-9475.577496
928.643067,95.712904,287.138712,-9399.007173
928.643694,133.998066,210.568389,-9456.434915
928.644322,38.285162,114.855485,-9418.149754
928.644949,38.285162,114.855485,-9533.005238
928.645576,76.570323,114.855485,-9418.149754
928.646204,76.570323,114.855485,-9475.577496
928.646831,153.140646,172.283227,-9437.292334
928.647459,133.998066,114.855485,-9418.149754
928.648086,38.285162,210.568389,-9418.149754
928.648713,76.570323,114.855485,-9418.149754
928.649341,95.712904,114.855485,-9418.149754
928.649968,76.570323,191.425808,-9379.864592
928.650595,76.570323,114.855485,-9456.434915
928.651223,76.570323,153.140646,-9437.292334
928.651850,76.570323,172.283227,-9418.149754
928.652478,133.998066,210.568389,-9494.720077
928.653105,133.998066,210.568389,-9418.149754
928.653732,95.712904,172.283227,-9437.292334
928.654360,133.998066,153.140646,-9418.149754
928.654987,76.570323,114.855485,-9456.434915
928.655615,76.570323,114.855485,-9437.292334
928.656242,76.570323,114.855485,-9418.149754
928.656869,153.140646,133.998066,-9399.007173
928.657497,76.570323,153.140646,-9418.149754
928.658124,38.285162,172.283227,-9456.434915
928.658752,57.427742,153.140646,-9418.149754
928.659379,114.855485,95.712904,-9399.007173
928.660006,95.712904,95.712904,-9494.720077
928.660634,133.998066,114.855485,-9456.434915
928.661261,95.712904,95.712904,-9437.292334
928.661888,76.570323,114.855485,-9456.434915
928.662516,38.285162,114.855485,-9437.292334
928.663143,57.427742,210.568389,-9475.577496
928.663770,76.570323,114.855485,-9418.149754
928.664398,57.427742,172.283227,-9360.722011
928.665025,114.855485,133.998066,-9360.722011
928.665652,133.998066,153.140646,-9533.005238
928.666280,133.998066,172.283227,-9437.292334
928.666907,76.570323,114.855485,-9494.720077
928.667534,133.998066,114.855485,-9437.292334
928.668162,153.140646,133.998066,-9494.720077
928.668789,38.285162,210.568389,-9437.292334
928.669416,76.570323,114.855485,-9418.149754
928.670044,38.285162,114.855485,-9418.149754
928.670671,38.285162,114.855485,-9418.149754
928.671298,76.570323,114.855485,-9418.149754
928.671926,210.568389,153.140646,-9437.292334
928.672553,38.285162,114.855485,-9494.720077
928.673180,133.998066,114.855485,-9418.149754
928.673808,76.570323,114.855485,-9456.434915
928.674435,133.998066,172.283227,-9418.149754
928.675062,133.998066,153.140646,-9418.149754
928.675689,133.998066,133.998066,-9399.007173
928.676317,95.712904,114.855485,-9437.292334
928.676944,133.998066,114.855485,-9418.149754
928.677571,95.712904,133.998066,-9360.722011
928.678199,133.998066,172.283227,-9456.434915
928.678826,133.998066,172.283227,-9475.577496
928.679453,76.570323,114.855485,-9437.292334
928.680081,76.570323,191.425808,-9456.434915
928.680708,76.570323,210.568389,-9456.434915
928.681335,133.998066,133.998066,-9437.292334
928.681963,153.140646,133.998066,-9456.434915
928.682590,76.570323,153.140646,-9418.149754
928.683217,153.140646,172.283227,-9494.720077
928.683845,114.855485,114.855485,-9379.864592
928.684472,76.570323,172.283227,-9437.292334
928.685099,76.570323,153.140646,-9418.149754
928.685727,76.570323,114.855485,-9418.149754
928.686354,95.712904,95.712904,-9456.434915
928.686981,38.285162,114.855485,-9418.149754
928.687609,95.712904,95.712904,-9399.007173
928.688236,133.998066,172.283227,-9418.149754
928.688863,133.998066,153.140646,-9418.149754
928.689491,153.140646,172.283227,-9399.007173
928.690118,76.570323,114.855485,-9456.434915
928.690745,133.998066,114.855485,-9418.149754
928.691372,57.427742,114.855485,-9399.007173
928.692000,114.855485,153.140646,-9360.722011
928.692627,133.998066,153.140646,-9418.149754
928.693254,76.570323,114.855485,-9418.149754
928.693882,95.712904,133.998066,-9360.722011
928.694509,38.285162,114.855485,-9418.149754
928.695136,114.855485,172.283227,-9360.722011
928.695764,114.855485,133.998066,-9360.722011
928.696391,114.855485,76.570323,-9418.149754
928.697018,76.570323,114.855485,-9418.149754
928.697646,153.140646,133.998066,-9399.007173
928.698273,133.998066,114.855485,-9418.149754
928.698900,76.570323,114.855485,-9418.149754
928.699528,76.570323,153.140646,-9418.149754
928.700155,133.998066,114.855485,-9418.149754
928.700782,76.570323,114.855485,-9456.434915
928.701410,38.285162,114.855485,-9437.292334
928.702037,153.140646,133.998066,-9399.007173
928.702664,76.570323,114.855485,-9418.149754
928.703292,38.285162,114.855485,-9418.149754
928.703919,95.712904,114.855485,-9475.577496
928.704546,76.570323,114.855485,-9418.149754
928.705174,76.570323,114.855485,-9418.149754
928.705801,76.570323,114.855485,-9437.292334
928.706428,76.570323,114.855485,-9418.149754
928.707055,95.712904,95.712904,-9399.007173
928.707683,153.140646,133.998066,-9399.007173
928.708310,76.570323,172.283227,-9437.292334
928.708937,76.570323,210.568389,-9418.149754
928.709565,153.140646,153.140646,-9399.007173
928.710192,114.855485,95.712904,-9456.434915
928.710819,133.998066,114.855485,-9456.434915
928.711447,76.570323,76.570323,-9379.864592
928.712074,133.998066,172.283227,-9418.149754
928.712701,38.285162,114.855485,-9418.149754
928.713329,133.998066,114.855485,-9418.149754
928.713956,76.570323,172.283227,-9418.149754
928.714583,76.570323,153.140646,-9418.149754
928.715211,153.140646,153.140646,-9437.292334
928.715838,133.998066,114.855485,-9437.292334
928.716465,153.140646,153.140646,-9399.007173
928.717093,133.998066,153.140646,-9418.149754
928.717720,133.998066,153.140646,-9399.007173
928.718347,153.140646,133.998066,-9399.007173
928.718975,76.570323,229.710970,-9437.292334
928.719602,76.570323,153.140646,-9437.292334
928.720229,133.998066,114.855485,-9418.149754
928.720857,95.712904,172.283227,-9475.577496
928.721484,133.998066,172.283227,-9418.149754
928.722111,57.427742,114.855485,-9456.434915
928.722739,76.570323,114.855485,-9456.434915
928.723366,153.140646,172.283227,-9494.720077
928.723993,114.855485,95.712904,-9399.007173
928.724620,153.140646,133.998066,-9437.292334
928.725248,153.140646,133.998066,-9456.434915
928.725875,76.570323,114.855485,-9437.292334
928.726502,76.570323,114.855485,-9456.434915
928.727130,95.712904,133.998066,-9437.292334
928.727757,133.998066,114.855485,-9418.149754
928.728384,133.998066,114.855485,-9437.292334
928.729012,95.712904,114.855485,-9399.007173
928.729639,133.998066,153.140646,-9418.149754
928.730266,133.998066,153.140646,-9437.292334
928.730894,95.712904,114.855485,-9418.149754
928.731521,133.998066,153.140646,-9475.577496
928.732148,95.712904,95.712904,-9437.292334
928.732776,114.855485,133.998066,-9360.722011
928.733403,133.998066,114.855485,-9418.149754
928.734030,76.570323,114.855485,-9456.434915
928.734658,172.283227,76.570323,-9418.149754
928.735285,95.712904,172.283227,-9399.007173
928.735912,153.140646,248.853550,-9399.007173
928.736540,133.998066,153.140646,-9456.434915
928.737167,76.570323,153.140646,-9418.149754
928.737794,76.570323,114.855485,-9475.577496
928.738422,133.998066,114.855485,-9456.434915
928.739049,114.855485,95.712904,-9399.007173
928.739676,133.998066,172.283227,-9418.149754
928.740303,38.285162,114.855485,-9437.292334
928.740931,76.570323,191.425808,-9418.149754
928.741558,133.998066,114.855485,-9418.149754
928.742185,76.570323,210.568389,-9418.149754
928.742813,76.570323,172.283227,-9418.149754
928.743440,153.140646,133.998066,-9399.007173
928.744067,133.998066,172.283227,-9456.434915
928.744695,114.855485,95.712904,-9437.292334
928.745322,76.570323,114.855485,-9418.149754
928.745949,76.570323,172.283227,-9418.149754
928.746577,57.427742,114.855485,-9418.149754
928.747204,133.998066,114.855485,-9456.434915
928.747831,38.285162,114.855485,-9418.149754
928.748459,76.570323,172.283227,-9437.292334
928.749086,38.285162,114.855485,-9437.292334
928.749713,19.142581,114.855485,-9418.149754
928.750341,76.570323,172.283227,-9418.149754
928.750968,133.998066,114.855485,-9418.149754
928.751595,133.998066,153.140646,-9418.149754
928.752223,114.855485,114.855485,-9399.007173
928.752850,133.998066,114.855485,-9494.720077
928.753477,76.570323,114.855485,-9418.149754
928.754105,38.285162,114.855485,-9418.149754
928.754732,57.427742,114.855485,-9399.007173
928.755359,76.570323,172.283227,-9418.149754
928.755986,133.998066,114.855485,-9418.149754
928.756614,76.570323,114.855485,-9418.149754
928.757241,38.285162,172.283227,-9418.149754
928.757868,153.140646,153.140646,-9418.149754
928.758496,76.570323,210.568389,-9418.149754
928.759123,153.140646,133.998066,-9399.007173
928.759750,76.570323,114.855485,-9456.434915
928.760378,133.998066,172.283227,-9437.292334
928.761005,133.998066,153.140646,-9418.149754
928.761632,95.712904,172.283227,-9418.149754
928.762260,76.570323,114.855485,-9418.149754
928.762887,95.712904,114.855485,-9456.434915
928.763515,133.998066,210.568389,-9418.149754
928.764142,95.712904,153.140646,-9418.149754
928.764769,114.855485,172.283227,-9360.722011
928.765397,76.570323,172.283227,-9456.434915
928.766024,133.998066,172.283227,-9399.007173
928.766651,76.570323,114.855485,-9418.149754
928.767279,153.140646,133.998066,-9399.007173
928.767906,95.712904,95.712904,-9399.007173
928.768534,133.998066,133.998066,-9437.292334
928.769161,133.998066,114.855485,-9456.434915
928.769788,153.140646,153.140646,-9456.434915
928.770416,95.712904,114.855485,-9494.720077
928.771043,76.570323,114.855485,-9418.149754
928.771670,133.998066,172.283227,-9399.007173
928.772298,76.570323,210.568389,-9437.292334
928.772925,95.712904,114.855485,-9418.149754
928.773553,95.712904,133.998066,-9360.722011
928.774180,76.570323,114.855485,-9418.149754
928.774807,153.140646,133.998066,-9399.007173
928.775435,38.285162,114.855485,-9437.292334
928.776062,133.998066,172.283227,-9418.149754
928.776689,76.570323,172.283227,-9475.577496
928.777317,76.570323,210.568389,-9418.149754
928.777944,76.570323,172.283227,-9437.292334
928.778572,114.855485,95.712904,-9399.007173
928.779199,76.570323,114.855485,-9437.292334
928.779826,38.285162,153.140646,-9418.149754
928.780454,133.998066,153.140646,-9456.434915
928.781081,133.998066,172.283227,-9437.292334
928.781708,95.712904,95.712904,-9399.007173
928.782336,38.285162,172.283227,-9418.149754
928.782963,153.140646,133.998066,-9399.007173
928.783591,76.570323,229.710970,-9437.292334
928.784218,76.570323,114.855485,-9418.149754
928.784845,133.998066,114.855485,-9418.149754
928.785473,133.998066,114.855485,-9418.149754
928.786100,133.998066,114.855485,-9456.434915
928.786727,95.712904,114.855485,-9418.149754
928.787355,76.570323,114.855485,-9418.149754
928.787982,76.570323,114.855485,-9418.149754
928.788610,76.570323,95.712904,-9437.292334
928.789237,38.285162,210.568389,-9437.292334
928.789864,19.142581,133.998066,-9399.007173
928.790492,19.142581,172.283227,-9475.577496
928.791119,95.712904,114.855485,-9418.149754
928.791746,114.855485,95.712904,-9399.007173
928.792374,153.140646,133.998066,-9494.720077
928.793001,133.998066,114.855485,-9418.149754
928.793629,76.570323,114.855485,-9456.434915
928.794256,114.855485,95.712904,-9399.007173
928.794883,133.998066,172.283227,-9399.007173
928.795511,76.570323,114.855485,-9418.149754
928.796138,38.285162,153.140646,-9475.577496
928.796765,76.570323,210.568389,-9418.149754
928.797393,76.570323,114.855485,-9437.292334
928.798020,57.427742,133.998066,-9360.722011
928.798648,38.285162,153.140646,-9418.149754
928.799275,114.855485,95.712904,-9437.292334
928.799902,95.712904,114.855485,-9399.007173
928.800530,133.998066,114.855485,-9475.577496
928.801157,76.570323,114.855485,-9456.434915
928.801785,38.285162,172.283227,-9418.149754
928.802412,133.998066,114.855485,-9418.149754
928.803039,95.712904,95.712904,-9437.292334
928.803667,133.998066,114.855485,-9418.149754
928.804294,133.998066,172.283227,-9418.149754
928.804921,133.998066,153.140646,-9418.149754
928.805549,133.998066,114.855485,-9456.434915
928.806176,133.998066,191.425808,-9418.149754
928.806804,95.712904,114.855485,-9456.434915
928.807431,76.570323,153.140646,-9437.292334
928.808058,76.570323,210.568389,-9437.292334
928.808686,95.712904,153.140646,-9360.722011
928.809313,133.998066,210.568389,-9418.149754
928.809940,133.998066,114.855485,-9418.149754
928.810568,133.998066,153.140646,-9399.007173
928.811195,153.140646,114.855485,-9418.149754
928.811823,114.855485,95.712904,-9494.720077
928.812450,57.427742,95.712904,-9399.007173
928.813077,153.140646,133.998066,-9399.007173
928.813705,114.855485,153.140646,-9399.007173
928.814332,133.998066,114.855485,-9456.434915
928.814959,76.570323,153.140646,-9437.292334
928.815587,76.570323,114.855485,-9418.149754
928.816214,76.570323,114.855485,-9418.149754
928.816842,133.998066,210.568389,-9418.149754
928.817469,133.998066,172.283227,-9418.149754
928.818096,76.570323,172.283227,-9437.292334
928.818724,38.285162,172.283227,-9418.149754
928.819351,38.285162,114.855485,-9418.149754
928.819978,38.285162,114.855485,-9418.149754
928.820606,76.570323,114.855485,-9418.149754
928.821233,76.570323,210.568389,-9418.149754
928.821861,76.570323,153.140646,-9418.149754
928.822488,95.712904,191.425808,-9360.722011
928.823115,133.998066,172.283227,-9475.577496
928.823743,76.570323,210.568389,-9475.577496
928.824370,76.570323,114.855485,-9418.149754
928.824997,95.712904,114.855485,-9399.007173
928.825625,133.998066,153.140646,-9418.149754
928.826252,133.998066,114.855485,-9418.149754
928.826880,153.140646,172.283227,-9399.007173
928.827507,76.570323,153.140646,-9418.149754
928.828134,133.998066,210.568389,-9418.149754
928.828762,153.140646,172.283227,-9399.007173
928.829389,76.570323,114.855485,-9418.149754
928.830016,133.998066,172.283227,-9437.292334
928.830644,38.285162,114.855485,-9437.292334
928.831271,38.285162,114.855485,-9418.149754
928.831899,76.570323,172.283227,-9437.292334
928.832526,76.570323,114.855485,-9437.292334
928.833153,153.140646,133.998066,-9437.292334
928.833781,133.998066,114.855485,-9437.292334
928.834408,133.998066,153.140646,-9399.007173
928.835035,38.285162,114.855485,-9418.149754
928.835663,95.712904,114.855485,-9494.720077
928.836290,76.570323,114.855485,-9418.149754
928.836918,38.285162,172.283227,-9456.434915
928.837545,38.285162,114.855485,-9437.292334
928.838172,153.140646,133.998066,-9399.007173
928.838800,133.998066,114.855485,-9437.292334
928.839427,133.998066,114.855485,-9456.434915
928.840054,95.712904,153.140646,-9456.434915
928.840682,133.998066,172.283227,-9475.577496
928.841309,95.712904,95.712904,-9456.434915
928.841937,114.855485,114.855485,-9399.007173
928.842564,57.427742,95.712904,-9399.007173
928.843191,76.570323,114.855485,-9418.149754
928.843819,153.140646,191.425808,-9399.007173
928.844446,133.998066,114.855485,-9418.149754
928.845073,133.998066,153.140646,-9418.149754
928.845701,76.570323,114.855485,-9437.292334
928.846328,76.570323,114.855485,-9456.434915
928.846956,19.142581,114.855485,-9418.149754
928.847583,114.855485,95.712904,-9379.864592
928.848210,133.998066,114.855485,-9418.149754
928.848838,114.855485,172.283227,-9360.722011
928.849465,153.140646,114.855485,-9418.149754
928.850092,76.570323,114.855485,-9418.149754
928.850720,76.570323,95.712904,-9418.149754
928.851347,133.998066,133.998066,-9456.434915
928.851975,133.998066,172.283227,-9418.149754
928.852602,153.140646,133.998066,-9494.720077
928.853229,76.570323,95.712904,-9399.007173
928.853857,76.570323,153.140646,-9418.149754
928.854484,76.570323,153.140646,-9418.149754
928.855111,57.427742,191.425808,-9360.722011
928.855739,133.998066,153.140646,-9418.149754
928.856366,153.140646,153.140646,-9399.007173
928.856994,133.998066,114.855485,-9437.292334
928.857621,133.998066,191.425808,-9437.292334
928.858248,76.570323,229.710970,-9418.149754
928.858876,76.570323,114.855485,-9418.149754
928.859503,133.998066,172.283227,-9418.149754
928.860130,38.285162,114.855485,-9494.720077
928.860758,133.998066,114.855485,-9456.434915
928.861385,133.998066,191.425808,-9418.149754
928.862013,133.998066,114.855485,-9437.292334
928.862640,76.570323,114.855485,-9418.149754
928.863268,153.140646,133.998066,-9437.292334
928.863895,133.998066,153.140646,-9456.434915
928.864523,95.712904,133.998066,-9360.722011
928.865150,133.998066,229.710970,-9418.149754
928.865778,76.570323,114.855485,-9437.292334
928.866405,76.570323,114.855485,-9456.434915
928.867033,38.285162,114.855485,-9456.434915
928.867660,76.570323,153.140646,-9437.292334
928.868288,38.285162,114.855485,-9418.149754
928.868915,133.998066,114.855485,-9418.149754
928.869543,133.998066,153.140646,-9418.149754
928.870170,133.998066,114.855485,-9456.434915
928.870798,76.570323,210.568389,-9418.149754
928.871425,76.570323,172.283227,-9418.149754
928.872053,133.998066,114.855485,-9418.149754
928.872680,133.998066,114.855485,-9418.149754
928.873308,114.855485,95.712904,-9475.577496
928.873936,114.855485,114.855485,-9437.292334
928.874563,133.998066,153.140646,-9418.149754
928.875191,133.998066,114.855485,-9418.149754
928.875818,133.998066,133.998066,-9437.292334
928.876446,133.998066,153.140646,-9399.007173
928.877073,133.998066,153.140646,-9437.292334
928.877701,38.285162,114.855485,-9418.149754
928.878328,133.998066,191.425808,-9456.434915
928.878956,76.570323,114.855485,-9418.149754
928.879583,38.285162,114.855485,-9418.149754
928.880211,76.570323,95.712904,-9399.007173
928.880838,76.570323,172.283227,-9418.149754
928.881466,95.712904,114.855485,-9360.722011
928.882093,114.855485,172.283227,-9418.149754
928.882721,133.998066,172.283227,-9418.149754
928.883348,76.570323,133.998066,-9360.722011
928.883976,76.570323,153.140646,-9437.292334
928.884603,133.998066,114.855485,-9456.434915
928.885231,95.712904,133.998066,-9360.722011
928.885858,95.712904,114.855485,-9437.292334
928.886486,76.570323,153.140646,-9418.149754
928.887113,95.712904,114.855485,-9475.577496
928.887741,133.998066,114.855485,-9418.149754
928.888368,133.998066,114.855485,-9437.292334
928.888996,19.142581,114.855485,-9437.292334
928.889623,38.285162,114.855485,-9437.292334
928.890251,133.998066,133.998066,-9399.007173
928.890878,95.712904,114.855485,-9437.292334
928.891506,38.285162,172.283227,-9418.149754
928.892133,114.855485,114.855485,-9418.149754
928.892761,133.998066,153.140646,-9418.149754
928.893388,133.998066,172.283227,-9494.720077
928.894016,38.285162,114.855485,-9533.005238
928.894643,76.570323,114.855485,-9456.434915
928.895271,76.570323,172.283227,-9418.149754
928.895898,133.998066,191.425808,-9437.292334
928.896526,133.998066,153.140646,-9418.149754
928.897153,76.570323,114.855485,-9418.149754
928.897781,38.285162,133.998066,-9379.864592
928.898408,76.570323,114.855485,-9418.149754
928.899036,133.998066,114.855485,-9456.434915
928.899663,133.998066,172.283227,-9494.720077
928.900291,76.570323,114.855485,-9418.149754
928.900919,95.712904,95.712904,-9475.577496
928.901546,133.998066,114.855485,-9418.149754
928.902174,133.998066,114.855485,-9418.149754
928.902801,114.855485,95.712904,-9437.292334
928.903429,95.712904,114.855485,-9456.434915
928.904056,76.570323,114.855485,-9418.149754
928.904684,76.570323,191.425808,-9418.149754
928.905311,133.998066,172.283227,-9418.149754
928.905939,153.140646,133.998066,-9399.007173
928.906566,133.998066,114.855485,-9418.149754
928.907194,153.140646,95.712904,-9360.722011
928.907821,133.998066,114.855485,-9418.149754
928.908449,153.140646,172.283227,-9399.007173
928.909076,133.998066,114.855485,-9475.577496
928.909704,95.712904,114.855485,-9418.149754
928.910331,114.855485,76.570323,-9418.149754
928.910959,133.998066,153.140646,-9494.720077
928.911586,133.998066,133.998066,-9494.720077
928.912214,133.998066,133.998066,-9494.720077
928.912841,114.855485,95.712904,-9399.007173
928.913469,95.712904,95.712904,-9399.007173
928.914096,133.998066,172.283227,-9418.149754
928.914724,76.570323,153.140646,-9418.149754
928.915351,76.570323,114.855485,-9399.007173
928.915979,95.712904,114.855485,-9418.149754
928.916606,76.570323,210.568389,-9418.149754
928.917234,133.998066,114.855485,-9418.149754
928.917861,76.570323,114.855485,-9418.149754
928.918489,76.570323,172.283227,-9437.292334
928.919116,76.570323,172.283227,-9475.577496
928.919744,95.712904,153.140646,-9360.722011
928.920371,76.570323,153.140646,-9456.434915
928.920999,95.712904,172.283227,-9418.149754
928.921626,38.285162,229.710970,-9437.292334
928.922254,133.998066,172.283227,-9418.149754
928.922881,133.998066,153.140646,-9456.434915
928.923509,95.712904,95.712904,-9437.292334
928.924136,76.570323,114.855485,-9456.434915
928.924764,133.998066,114.855485,-9437.292334
928.925391,133.998066,114.855485,-9418.149754
928.926019,76.570323,114.855485,-9418.149754
928.926646,76.570323,210.568389,-9418.149754
928.927274,133.998066,114.855485,-9418.149754
928.927902,38.285162,229.710970,-9418.149754
928.928529,133.998066,172.283227,-9399.007173
928.929157,133.998066,114.855485,-9418.149754
928.929784,153.140646,133.998066,-9456.434915
928.930412,57.427742,153.140646,-9360.722011
928.931039,76.570323,114.855485,-9456.434915
928.931667,76.570323,114.855485,-9418.149754
928.932294,95.712904,133.998066,-9418.149754
928.932922,76.570323,114.855485,-9456.434915
928.933549,38.285162,114.855485,-9418.149754
928.934177,114.855485,95.712904,-9399.007173
928.934804,133.998066,133.998066,-9494.720077
928.935432,172.283227,76.570323,-9418.149754
928.936059,76.570323,172.283227,-9437.292334
928.936687,76.570323,210.568389,-9456.434915
928.937314,133.998066,172.283227,-9418.149754
928.937942,153.140646,133.998066,-9399.007173
928.938569,133.998066,133.998066,-9456.434915
928.939197,95.712904,172.283227,-9437.292334
928.939824,38.285162,114.855485,-9437.292334
928.940452,133.998066,172.283227,-9418.149754
928.941079,114.855485,76.570323,-9418.149754
928.941707,76.570323,191.425808,-9437.292334
928.942334,76.570323,210.568389,-9456.434915
928.942962,38.285162,114.855485,-9418.149754
928.943589,38.285162,114.855485,-9437.292334
928.944217,133.998066,114.855485,-9418.149754
928.944844,76.570323,153.140646,-9437.292334
928.945472,38.285162,114.855485,-9418.149754
928.946099,133.998066,114.855485,-9418.149754
928.946727,133.998066,172.283227,-9456.434915
928.947354,38.285162,114.855485,-9418.149754
928.947982,76.570323,114.855485,-9418.149754
928.948609,76.570323,114.855485,-9418.149754
928.949237,76.570323,114.855485,-9456.434915
928.949864,76.570323,114.855485,-9418.149754
928.950492,133.998066,114.855485,-9456.434915
928.951119,57.427742,153.140646,-9418.149754
928.951747,76.570323,153.140646,-9418.149754
928.952374,153.140646,133.998066,-9399.007173
928.953002,133.998066,114.855485,-9418.149754
928.953629,133.998066,114.855485,-9360.722011
928.954257,133.998066,172.283227,-9360.722011
928.954885,38.285162,172.283227,-9418.149754
928.955512,95.712904,114.855485,-9456.434915
928.956140,133.998066,114.855485,-9418.149754
928.956767,76.570323,114.855485,-9437.292334
928.957395,153.140646,133.998066,-9437.292334
928.958022,133.998066,153.140646,-9399.007173
928.958650,76.570323,153.140646,-9456.434915
928.959277,76.570323,114.855485,-9418.149754
928.959905,133.998066,114.855485,-9456.434915
928.960532,133.998066,153.140646,-9437.292334
928.961160,76.570323,210.568389,-9418.149754
928.961787,133.998066,153.140646,-9456.434915
928.962415,76.570323,114.855485,-9418.149754
928.963042,95.712904,95.712904,-9399.007173
928.963670,133.998066,153.140646,-9360.722011
928.964297,114.855485,133.998066,-9360.722011
928.964925,76.570323,114.855485,-9418.149754
928.965552,38.285162,114.855485,-9418.149754
928.966180,95.712904,95.712904,-9399.007173
928.966807,76.570323,172.283227,-9418.149754
928.967435,133.998066,210.568389,-9456.434915
928.968062,114.855485,172.283227,-9418.149754
928.968690,133.998066,114.855485,-9418.149754
928.969317,76.570323,172.283227,-9418.149754
928.969944,133.998066,172.283227,-9437.292334
928.970572,133.998066,114.855485,-9456.434915
928.971199,95.712904,95.712904,-9399.007173
928.971827,76.570323,114.855485,-9456.434915
928.972454,76.570323,114.855485,-9418.149754
928.973082,38.285162,210.568389,-9418.149754
928.973709,133.998066,210.568389,-9418.149754
928.974337,133.998066,210.568389,-9418.149754
928.974964,133.998066,153.140646,-9437.292334
928.975592,133.998066,153.140646,-9494.720077
928.976219,133.998066,172.283227,-9456.434915
928.976847,76.570323,114.855485,-9418.149754
928.977474,133.998066,133.998066,-9399.007173
928.978102,76.570323,114.855485,-9437.292334
928.978729,133.998066,210.568389,-9475.577496
928.979357,95.712904,210.568389,-9475.577496
928.979984,114.855485,133.998066,-9360.722011
928.980612,114.855485,95.712904,-9494.720077
928.981239,95.712904,133.998066,-9360.722011
928.981867,76.570323,172.283227,-9418.149754
928.982494,133.998066,172.283227,-9418.149754
928.983122,133.998066,172.283227,-9399.007173
928.983749,95.712904,133.998066,-9360.722011
928.984377,133.998066,133.998066,-9399.007173
928.985004,76.570323,114.855485,-9418.149754
928.985632,76.570323,114.855485,-9418.149754
928.986259,153.140646,133.998066,-9399.007173
928.986887,153.140646,133.998066,-9399.007173
928.987514,133.998066,114.855485,-9418.149754
928.988142,114.855485,133.998066,-9418.149754
928.988769,76.570323,114.855485,-9437.292334
928.989397,133.998066,114.855485,-9418.149754
928.990024,133.998066,191.425808,-9399.007173
928.990652,133.998066,114.855485,-9437.292334
928.991279,133.998066,114.855485,-9418.149754
928.991907,95.712904,95.712904,-9456.434915
928.992534,133.998066,114.855485,-9418.149754
928.993162,76.570323,114.855485,-9456.434915
928.993789,76.570323,210.568389,-9475.577496
928.994417,153.140646,133.998066,-9456.434915
928.995044,76.570323,172.283227,-9418.149754
928.995672,95.712904,153.140646,-9418.149754
928.996299,76.570323,114.855485,-9418.149754
928.996927,38.285162,210.568389,-9418.149754
928.997554,172.283227,153.140646,-9399.007173
928.998182,153.140646,133.998066,-9399.007173
928.998809,76.570323,114.855485,-9418.149754
928.999437,38.285162,114.855485,-9418.149754
929.000064,95.712904,172.283227,-9437.292334
929.000692,133.998066,114.855485,-9437.292334
929.001319,153.140646,133.998066,-9456.434915
929.001947,76.570323,153.140646,-9456.434915
929.002574,76.570323,153.140646,-9437.292334
929.003201,76.570323,153.140646,-9437.292334
929.003829,133.998066,133.998066,-9494.720077
929.004456,95.712904,114.855485,-9418.149754
929.005084,38.285162,153.140646,-9418.149754
929.005711,76.570323,114.855485,-9418.149754
929.006339,172.283227,76.570323,-9456.434915
929.006966,76.570323,114.855485,-9418.149754
929.007594,95.712904,153.140646,-9475.577496
929.008221,38.285162,114.855485,-9418.149754
929.008849,153.140646,172.283227,-9399.007173
929.009476,153.140646,133.998066,-9456.434915
929.010104,76.570323,114.855485,-9418.149754
929.010731,153.140646,172.283227,-9399.007173
929.011359,153.140646,133.998066,-9399.007173
929.011986,153.140646,133.998066,-9399.007173
929.012614,76.570323,153.140646,-9456.434915
929.013241,76.570323,114.855485,-9418.149754
929.013869,76.570323,114.855485,-9418.149754
929.014496,133.998066,172.283227,-9399.007173
929.015124,133.998066,114.855485,-9418.149754
929.015751,76.570323,114.855485,-9437.292334
929.016379,38.285162,114.855485,-9418.149754
929.017006,76.570323,114.855485,-9418.149754
929.017634,133.998066,114.855485,-9418.149754
929.018261,133.998066,114.855485,-9418.149754
929.018889,133.998066,153.140646,-9399.007173
929.019516,153.140646,153.140646,-9437.292334
929.020144,38.285162,153.140646,-9418.149754
929.020771,133.998066,172.283227,-9475.577496
929.021399,133.998066,191.425808,-9437.292334
929.022026,133.998066,114.855485,-9475.577496
929.022654,76.570323,114.855485,-9437.292334
929.023281,76.570323,114.855485,-9475.577496
929.023909,133.998066,114.855485,-9437.292334
929.024536,133.998066,172.283227,-9456.434915
929.025164,95.712904,95.712904,-9456.434915
929.025791,172.283227,76.570323,-9418.149754
929.026419,95.712904,114.855485,-9418.149754
929.027046,76.570323,133.998066,-9399.007173
929.027674,38.285162,114.855485,-9418.149754
929.028301,95.712904,114.855485,-9437.292334
929.028929,76.570323,210.568389,-9418.149754
929.029556,133.998066,153.140646,-9418.149754
929.030184,133.998066,153.140646,-9399.007173
929.030811,153.140646,133.998066,-9399.007173
929.031439,76.570323,114.855485,-9456.434915
929.032066,153.140646,133.998066,-9399.007173
929.032694,76.570323,153.140646,-9437.292334
929.033321,133.998066,114.855485,-9418.149754
929.033949,38.285162,153.140646,-9418.149754
929.034576,76.570323,153.140646,-9418.149754
929.035204,133.998066,229.710970,-9418.149754
929.035831,38.285162,210.568389,-9418.149754
929.036458,153.140646,133.998066,-9399.007173
929.037086,95.712904,191.425808,-9360.722011
929.037713,133.998066,172.283227,-9475.577496
929.038341,114.855485,95.712904,-9494.720077
929.038968,133.998066,133.998066,-9399.007173
929.039596,114.855485,133.998066,-9360.722011
929.040223,133.998066,133.998066,-9437.292334
929.040851,114.855485,133.998066,-9360.722011
929.041478,76.570323,114.855485,-9418.149754
929.042106,95.712904,210.568389,-9437.292334
929.042733,38.285162,153.140646,-9418.149754
929.043361,95.712904,114.855485,-9418.149754
929.043988,38.285162,172.283227,-9437.292334
929.044616,76.570323,114.855485,-9494.720077
929.045243,38.285162,114.855485,-9418.149754
929.045871,76.570323,114.855485,-9456.434915
929.046498,114.855485,95.712904,-9399.007173
929.047126,76.570323,210.568389,-9475.577496
929.047753,133.998066,153.140646,-9437.292334
929.048381,114.855485,172.283227,-9360.722011
929.049008,153.140646,153.140646,-9399.007173
929.049636,133.998066,210.568389,-9456.434915
929.050263,133.998066,210.568389,-9418.149754
929.050891,76.570323,210.568389,-9418.149754
929.051518,76.570323,210.568389,-9418.149754
929.052146,57.427742,95.712904,-9399.007173
929.052773,76.570323,114.855485,-9456.434915
929.053401,76.570323,172.283227,-9437.292334
929.054028,76.570323,114.855485,-9475.577496
929.054656,95.712904,95.712904,-9399.007173
929.055283,133.998066,210.568389,-9418.149754
929.055911,133.998066,210.568389,-9456.434915
929.056538,76.570323,210.568389,-9456.434915
929.057166,133.998066,210.568389,-9456.434915
929.057793,133.998066,114.855485,-9475.577496
929.058421,133.998066,191.425808,-9456.434915
929.059048,95.712904,172.283227,-9437.292334
929.059676,76.570323,114.855485,-9418.149754
929.060303,133.998066,114.855485,-9418.149754
929.060931,76.570323,172.283227,-9418.149754
929.061558,133.998066,133.998066,-9437.292334
929.062186,153.140646,153.140646,-9399.007173
929.062813,95.712904,95.712904,-9399.007173
929.063440,95.712904,133.998066,-9360.722011
929.064068,19.142581,114.855485,-9456.434915
929.064695,133.998066,153.140646,-9418.149754
929.065323,38.285162,114.855485,-9456.434915
929.065950,133.998066,114.855485,-9418.149754
929.066577,76.570323,153.140646,-9418.149754
929.067205,76.570323,114.855485,-9437.292334
929.067832,76.570323,114.855485,-9494.720077
929.068460,76.570323,114.855485,-9418.149754
929.069087,76.570323,114.855485,-9437.292334
929.069714,76.570323,114.855485,-9418.149754
929.070342,38.285162,153.140646,-9456.434915
929.070969,38.285162,114.855485,-9418.149754
929.071597,95.712904,153.140646,-9418.149754
929.072224,133.998066,172.283227,-9456.434915
929.072852,133.998066,153.140646,-9418.149754
929.073479,76.570323,172.283227,-9456.434915
929.074106,133.998066,210.568389,-9475.577496
929.074734,133.998066,114.855485,-9418.149754
929.075361,172.283227,76.570323,-9418.149754
929.075989,76.570323,114.855485,-9437.292334
929.076616,133.998066,133.998066,-9399.007173
929.077243,76.570323,153.140646,-9418.149754
929.077871,133.998066,114.855485,-9437.292334
929.078498,76.570323,114.855485,-9418.149754
929.079126,153.140646,153.140646,-9456.434915
929.079753,153.140646,153.140646,-9437.292334
929.080380,133.998066,114.855485,-9418.149754
929.081008,95.712904,95.712904,-9456.434915
929.081635,133.998066,114.855485,-9418.149754
929.082263,133.998066,133.998066,-9399.007173
929.082890,38.285162,114.855485,-9418.149754
929.083518,114.855485,133.998066,-9360.722011
929.084145,38.285162,172.283227,-9418.149754
929.084772,76.570323,229.710970,-9475.577496
929.085400,76.570323,191.425808,-9418.149754
929.086027,76.570323,114.855485,-9418.149754
929.086655,133.998066,210.568389,-9418.149754
929.087282,76.570323,114.855485,-9418.149754
929.087909,76.570323,153.140646,-9418.149754
929.088537,133.998066,172.283227,-9437.292334
929.089164,76.570323,210.568389,-9418.149754
929.089792,133.998066,172.283227,-9475.577496
929.090419,76.570323,210.568389,-9437.292334
929.091046,38.285162,114.855485,-9418.149754
929.091674,133.998066,114.855485,-9418.149754
929.092301,133.998066,114.855485,-9418.149754
929.092929,38.285162,229.710970,-9418.149754
929.093556,95.712904,114.855485,-9418.149754
929.094183,76.570323,114.855485,-9360.722011
929.094811,95.712904,133.998066,-9360.722011
929.095438,95.712904,172.283227,-9475.577496
929.096066,95.712904,114.855485,-9418.149754
929.096693,95.712904,172.283227,-9418.149754
929.097321,114.855485,153.140646,-9379.864592
929.097948,133.998066,114.855485,-9418.149754
929.098575,133.998066,172.283227,-9456.434915
929.099203,133.998066,210.568389,-9418.149754
929.099830,133.998066,114.855485,-9456.434915
929.100458,133.998066,229.710970,-9360.722011
929.101085,133.998066,172.283227,-9456.434915
929.101712,76.570323,172.283227,-9456.434915
929.102340,76.570323,210.568389,-9418.149754
929.102967,133.998066,172.283227,-9418.149754
929.103595,114.855485,133.998066,-9360.722011
929.104222,76.570323,191.425808,-9418.149754
929.104849,133.998066,153.140646,-9418.149754
929.105477,133.998066,153.140646,-9418.149754
929.106104,133.998066,114.855485,-9418.149754
929.106732,114.855485,133.998066,-9360.722011
929.107359,95.712904,114.855485,-9418.149754
929.107987,38.285162,153.140646,-9418.149754
929.108614,38.285162,172.283227,-9418.149754
929.109241,133.998066,114.855485,-9418.149754
929.109869,38.285162,114.855485,-9418.149754
929.110496,76.570323,95.712904,-9456.434915
929.111124,95.712904,95.712904,-9456.434915
929.111751,114.855485,172.283227,-9456.434915
929.112378,95.712904,114.855485,-9399.007173
929.113006,57.427742,95.712904,-9399.007173
929.113633,57.427742,172.283227,-9360.722011
929.114261,38.285162,153.140646,-9418.149754
929.114888,114.855485,133.998066,-9360.722011
929.115515,133.998066,114.855485,-9437.292334
929.116143,133.998066,172.283227,-9418.149754
929.116770,133.998066,114.855485,-9418.149754
929.117398,114.855485,114.855485,-9399.007173
929.118025,133.998066,210.568389,-9418.149754
929.118653,76.570323,172.283227,-9418.149754
929.119280,133.998066,172.283227,-9418.149754
929.119907,133.998066,153.140646,-9475.577496
929.120535,133.998066,153.140646,-9418.149754
929.121162,133.998066,114.855485,-9456.434915
929.121790,114.855485,191.425808,-9360.722011
929.122417,133.998066,133.998066,-9399.007173
929.123044,95.712904,153.140646,-9437.292334
929.123672,76.570323,114.855485,-9437.292334
929.124299,76.570323,114.855485,-9418.149754
929.124927,95.712904,172.283227,-9418.149754
929.125554,114.855485,114.855485,-9379.864592
929.126181,76.570323,153.140646,-9360.722011
929.126809,114.855485,95.712904,-9399.007173
929.127436,114.855485,95.712904,-9399.007173
929.128064,76.570323,114.855485,-9456.434915
929.128691,133.998066,172.283227,-9494.720077
929.129319,76.570323,114.855485,-9418.149754
929.129946,76.570323,114.855485,-9418.149754
929.130573,133.998066,172.283227,-9418.149754
929.131201,133.998066,153.140646,-9437.292334
929.131828,38.285162,114.855485,-9418.149754
929.132456,38.285162,114.855485,-9456.434915
929.133083,133.998066,172.283227,-9418.149754
929.133710,133.998066,172.283227,-9475.577496
929.134338,114.855485,133.998066,-9418.149754
929.134965,153.140646,191.425808,-9399.007173
929.135593,153.140646,133.998066,-9494.720077
929.136220,133.998066,172.283227,-9418.149754
929.136847,153.140646,172.283227,-9437.292334
929.137475,133.998066,114.855485,-9360.722011
929.138102,133.998066,114.855485,-9418.149754
929.138730,133.998066,114.855485,-9418.149754
929.139357,133.998066,114.855485,-9437.292334
929.139985,76.570323,114.855485,-9456.434915
929.140612,133.998066,114.855485,-9418.149754
929.141239,133.998066,133.998066,-9437.292334
929.141867,38.285162,210.568389,-9475.577496
929.142494,76.570323,114.855485,-9494.720077
929.143122,95.712904,114.855485,-9437.292334
929.143749,76.570323,114.855485,-9418.149754
929.144376,76.570323,114.855485,-9418.149754
929.145004,76.570323,114.855485,-9418.149754
929.145631,95.712904,95.712904,-9456.434915
929.146259,38.285162,114.855485,-9437.292334
929.146886,95.712904,95.712904,-9399.007173
929.147513,133.998066,210.568389,-9418.149754
929.148141,172.283227,76.570323,-9418.149754
929.148768,153.140646,133.998066,-9437.292334
929.149396,76.570323,114.855485,-9360.722011
929.150023,76.570323,229.710970,-9418.149754
929.150650,95.712904,153.140646,-9360.722011
929.151278,95.712904,114.855485,-9437.292334
929.151905,38.285162,114.855485,-9418.149754
929.152533,76.570323,114.855485,-9418.149754
929.153160,95.712904,210.568389,-9437.292334
929.153788,133.998066,210.568389,-9360.722011
929.154415,133.998066,153.140646,-9418.149754
929.155042,76.570323,153.140646,-9418.149754
929.155670,153.140646,172.283227,-9494.720077
929.156297,133.998066,114.855485,-9418.149754
929.156925,76.570323,114.855485,-9437.292334
