#time,accel_x,accel_y,accel_z
913.441542,133.998066,153.140646,-9418.149754
913.442170,133.998066,114.855485,-9418.149754
913.442798,133.998066,153.140646,-9437.292334
913.443425,76.570323,114.855485,-9418.149754
913.444053,133.998066,114.855485,-9418.149754
913.444681,76.570323,191.425808,-9418.149754
913.445309,95.712904,114.855485,-9418.149754
913.445937,133.998066,172.283227,-9456.434915
913.446565,57.427742,133.998066,-9360.722011
913.447192,114.855485,114.855485,-9437.292334
913.447820,133.998066,114.855485,-9418.149754
913.448448,114.855485,114.855485,-9399.007173
913.449076,114.855485,172.283227,-9494.720077
913.449704,76.570323,114.855485,-9418.149754
913.450332,133.998066,114.855485,-9418.149754
913.450959,133.998066,210.568389,-9418.149754
913.451587,57.427742,114.855485,-9418.149754
913.452215,133.998066,114.855485,-9456.434915
913.452843,133.998066,114.855485,-9456.434915
913.453471,76.570323,114.855485,-9418.149754
913.454099,76.570323,153.140646,-9418.149754
913.454726,95.712904,95.712904,-9456.434915
913.455354,76.570323,114.855485,-9418.149754
913.455982,133.998066,210.568389,-9418.149754
913.456610,76.570323,114.855485,-9418.149754
913.457238,76.570323,210.568389,-9418.149754
913.457866,76.570323,114.855485,-9475.577496
913.458493,76.570323,114.855485,-9437.292334
913.459121,76.570323,114.855485,-9437.292334
913.459749,133.998066,133.998066,-9399.007173
913.460377,76.570323,153.140646,-9456.434915
913.461005,19.142581,114.855485,-9437.292334
913.461633,76.570323,114.855485,-9418.149754
913.462260,76.570323,114.855485,-9418.149754
913.462888,38.285162,153.140646,-9418.149754
913.463516,76.570323,172.283227,-9418.149754
913.464144,76.570323,114.855485,-9418.149754
913.464772,38.285162,114.855485,-9418.149754
913.465400,133.998066,210.568389,-9456.434915
913.466027,133.998066,172.283227,-9418.149754
913.466655,133.998066,153.140646,-9418.149754
913.467283,133.998066,172.283227,-9418.149754
913.467911,133.998066,153.140646,-9456.434915
913.468539,133.998066,191.425808,-9418.149754
913.469167,133.998066,114.855485,-9475.577496
913.469794,76.570323,114.855485,-9418.149754
913.470422,76.570323,114.855485,-9418.149754
913.471050,38.285162,153.140646,-9437.292334
913.471678,76.570323,114.855485,-9399.007173
913.472306,38.285162,172.283227,-9418.149754
913.472934,38.285162,114.855485,-9418.149754
913.473561,133.998066,153.140646,-9475.577496
913.474189,76.570323,210.568389,-9456.434915
913.474817,133.998066,210.568389,-9418.149754
913.475445,153.140646,133.998066,-9399.007173
913.476073,38.285162,114.855485,-9418.149754
913.476701,133.998066,114.855485,-9418.149754
913.477328,76.570323,114.855485,-9418.149754
913.477956,133.998066,114.855485,-9418.149754
913.478584,133.998066,133.998066,-9437.292334
913.479212,133.998066,114.855485,-9437.292334
913.479840,133.998066,153.140646,-9437.292334
913.480468,95.712904,114.855485,-9456.434915
913.481095,76.570323,114.855485,-9418.149754
913.481723,76.570323,114.855485,-9418.149754
913.482351,133.998066,76.570323,-9437.292334
913.482979,95.712904,114.855485,-9456.434915
913.483607,57.427742,95.712904,-9456.434915
913.484235,114.855485,133.998066,-9533.005238
913.484862,95.712904,172.283227,-9456.434915
913.485490,133.998066,172.283227,-9418.149754
913.486118,133.998066,153.140646,-9418.149754
913.486746,133.998066,114.855485,-9418.149754
913.487374,153.140646,133.998066,-9399.007173
913.488002,153.140646,153.140646,-9456.434915
913.488629,76.570323,172.283227,-9418.149754
913.489257,133.998066,153.140646,-9418.149754
913.489885,95.712904,172.283227,-9456.434915
913.490513,76.570323,114.855485,-9494.720077
913.491141,95.712904,153.140646,-9418.149754
913.491769,76.570323,229.710970,-9456.434915
913.492396,133.998066,210.568389,-9418.149754
913.493024,76.570323,114.855485,-9360.722011
913.493652,57.427742,95.712904,-9456.434915
913.494280,76.570323,114.855485,-9418.149754
913.494908,95.712904,95.712904,-9399.007173
913.495536,133.998066,172.283227,-9456.434915
913.496163,76.570323,210.568389,-9437.292334
913.496791,133.998066,153.140646,-9418.149754
913.497419,76.570323,114.855485,-9437.292334
913.498047,38.285162,114.855485,-9475.577496
913.498675,133.998066,114.855485,-9437.292334
913.499303,76.570323,114.855485,-9418.149754
913.499930,172.283227,76.570323,-9418.149754
913.500558,38.285162,114.855485,-9418.149754
913.501186,38.285162,191.425808,-9418.149754
913.501814,95.712904,210.568389,-9456.434915
913.502441,133.998066,114.855485,-9418.149754
913.503069,133.998066,133.998066,-9399.007173
913.503697,133.998066,114.855485,-9494.720077
913.504324,76.570323,114.855485,-9437.292334
913.504952,38.285162,114.855485,-9456.434915
913.505580,133.998066,114.855485,-9418.149754
913.506208,133.998066,114.855485,-9418.149754
913.506835,133.998066,133.998066,-9399.007173
913.507463,76.570323,153.140646,-9418.149754
913.508091,76.570323,114.855485,-9418.149754
913.508718,133.998066,172.283227,-9475.577496
913.509346,76.570323,191.425808,-9418.149754
913.509974,38.285162,153.140646,-9437.292334
913.510602,38.285162,114.855485,-9456.434915
913.511229,133.998066,153.140646,-9456.434915
913.511857,114.855485,114.855485,-9399.007173
913.512485,76.570323,114.855485,-9418.149754
913.513112,133.998066,229.710970,-9437.292334
913.513740,76.570323,114.855485,-9418.149754
913.514368,114.855485,133.998066,-9360.722011
913.514995,133.998066,114.855485,-9475.577496
913.515623,76.570323,114.855485,-9418.149754
913.516251,133.998066,114.855485,-9437.292334
913.516879,76.570323,114.855485,-9418.149754
913.517506,95.712904,153.140646,-9418.149754
913.518134,133.998066,114.855485,-9456.434915
913.518762,95.712904,287.138712,-9494.720077
913.519389,133.998066,210.568389,-9418.149754
913.520017,76.570323,172.283227,-9418.149754
913.520645,76.570323,153.140646,-9418.149754
913.521273,133.998066,210.568389,-9418.149754
913.521900,133.998066,172.283227,-9418.149754
913.522528,95.712904,114.855485,-9456.434915
913.523156,19.142581,114.855485,-9456.434915
913.523783,19.142581,172.283227,-9418.149754
913.524411,133.998066,210.568389,-9437.292334
913.525039,76.570323,114.855485,-9456.434915
913.525666,57.427742,114.855485,-9418.149754
913.526294,133.998066,172.283227,-9399.007173
913.526922,133.998066,191.425808,-9418.149754
913.527550,38.285162,114.855485,-9437.292334
913.528177,38.285162,114.855485,-9437.292334
913.528805,95.712904,95.712904,-9456.434915
913.529433,76.570323,114.855485,-9456.434915
913.530060,76.570323,114.855485,-9437.292334
913.530688,76.570323,172.283227,-9418.149754
913.531316,133.998066,114.855485,-9437.292334
913.531944,57.427742,114.855485,-9418.149754
913.532571,38.285162,172.283227,-9475.577496
913.533199,38.285162,114.855485,-9418.149754
913.533827,95.712904,95.712904,-9399.007173
913.534454,133.998066,114.855485,-9418.149754
913.535082,133.998066,153.140646,-9418.149754
913.535710,133.998066,172.283227,-9437.292334
913.536338,153.140646,153.140646,-9475.577496
913.536965,133.998066,114.855485,-9456.434915
913.537593,133.998066,114.855485,-9475.577496
913.538221,0.000000,133.998066,-9360.722011
913.538848,38.285162,114.855485,-9437.292334
913.539476,76.570323,114.855485,-9418.149754
913.540104,172.283227,76.570323,-9456.434915
913.540731,114.855485,95.712904,-9399.007173
913.541359,76.570323,114.855485,-9437.292334
913.541987,133.998066,229.710970,-9418.149754
913.542615,133.998066,153.140646,-9418.149754
913.543242,76.570323,229.710970,-9418.149754
913.543870,19.142581,248.853550,-9399.007173
913.544498,76.570323,172.283227,-9418.149754
913.545125,76.570323,114.855485,-9418.149754
913.545753,153.140646,133.998066,-9437.292334
913.546381,153.140646,153.140646,-9437.292334
913.547009,76.570323,153.140646,-9418.149754
913.547636,76.570323,95.712904,-9399.007173
913.548264,114.855485,76.570323,-9456.434915
913.548892,76.570323,172.283227,-9418.149754
913.549519,114.855485,95.712904,-9399.007173
913.550147,76.570323,114.855485,-9418.149754
913.550775,38.285162,114.855485,-9418.149754
913.551403,133.998066,114.855485,-9418.149754
913.552030,95.712904,153.140646,-9360.722011
913.552658,114.855485,172.283227,-9360.722011
913.553286,133.998066,114.855485,-9418.149754
913.553913,95.712904,153.140646,-9360.722011
913.554541,133.998066,153.140646,-9494.720077
913.555169,95.712904,133.998066,-9360.722011
913.555796,76.570323,114.855485,-9418.149754
913.556424,76.570323,172.283227,-9456.434915
913.557052,76.570323,114.855485,-9418.149754
913.557680,76.570323,172.283227,-9418.149754
913.558307,57.427742,38.285162,-9456.434915
913.558935,133.998066,133.998066,-9437.292334
913.559563,76.570323,172.283227,-9418.149754
913.560190,19.142581,172.283227,-9418.149754
913.560818,38.285162,114.855485,-9418.149754
913.561446,114.855485,133.998066,-9322.436850
913.562074,133.998066,172.283227,-9360.722011
913.562701,95.712904,172.283227,-9418.149754
913.563329,133.998066,114.855485,-9418.149754
913.563957,76.570323,172.283227,-9418.149754
913.564584,76.570323,210.568389,-9456.434915
913.565212,133.998066,114.855485,-9418.149754
913.565840,38.285162,153.140646,-9418.149754
913.566467,76.570323,114.855485,-9418.149754
913.567095,133.998066,114.855485,-9475.577496
913.567723,133.998066,114.855485,-9475.577496
913.568351,133.998066,172.283227,-9399.007173
913.568978,114.855485,76.570323,-9418.149754
913.569606,133.998066,153.140646,-9418.149754
913.570234,133.998066,114.855485,-9418.149754
913.570861,133.998066,153.140646,-9399.007173
913.571489,133.998066,153.140646,-9418.149754
913.572117,95.712904,210.568389,-9418.149754
913.572745,76.570323,153.140646,-9437.292334
913.573372,133.998066,172.283227,-9418.149754
913.574000,114.855485,95.712904,-9494.720077
913.574628,95.712904,114.855485,-9456.434915
913.575255,133.998066,114.855485,-9418.149754
913.575883,133.998066,114.855485,-9418.149754
913.576511,76.570323,153.140646,-9418.149754
913.577139,76.570323,153.140646,-9437.292334
913.577766,133.998066,133.998066,-9494.720077
913.578394,76.570323,114.855485,-9475.577496
913.579022,76.570323,114.855485,-9456.434915
913.579649,38.285162,114.855485,-9437.292334
913.580277,57.427742,133.998066,-9360.722011
913.580905,76.570323,172.283227,-9437.292334
913.581532,76.570323,114.855485,-9418.149754
913.582160,76.570323,153.140646,-9418.149754
913.582788,133.998066,114.855485,-9475.577496
913.583416,114.855485,76.570323,-9418.149754
913.584043,76.570323,114.855485,-9456.434915
913.584671,133.998066,114.855485,-9456.434915
913.585299,76.570323,114.855485,-9418.149754
913.585926,76.570323,114.855485,-9418.149754
913.586554,76.570323,114.855485,-9494.720077
913.587182,57.427742,114.855485,-9418.149754
913.587810,38.285162,153.140646,-9437.292334
913.588437,76.570323,114.855485,-9475.577496
913.589065,76.570323,114.855485,-9418.149754
913.589693,76.570323,191.425808,-9456.434915
913.590320,95.712904,210.568389,-9456.434915
913.590948,95.712904,172.283227,-9418.149754
913.591576,172.283227,114.855485,-9379.864592
913.592204,114.855485,95.712904,-9437.292334
913.592831,76.570323,153.140646,-9456.434915
913.593459,133.998066,114.855485,-9418.149754
913.594087,76.570323,172.283227,-9418.149754
913.594714,38.285162,153.140646,-9456.434915
913.595342,95.712904,153.140646,-9437.292334
913.595970,76.570323,153.140646,-9418.149754
913.596597,76.570323,114.855485,-9475.577496
913.597225,133.998066,114.855485,-9418.149754
913.597853,95.712904,114.855485,-9418.149754
913.598481,133.998066,114.855485,-9437.292334
913.599108,38.285162,153.140646,-9418.149754
913.599736,133.998066,114.855485,-9456.434915
913.600364,38.285162,114.855485,-9418.149754
913.600991,76.570323,172.283227,-9437.292334
913.601619,76.570323,172.283227,-9456.434915
913.602247,76.570323,114.855485,-9360.722011
913.602875,133.998066,153.140646,-9399.007173
913.603502,76.570323,210.568389,-9418.149754
913.604130,153.140646,133.998066,-9399.007173
913.604758,76.570323,95.712904,-9399.007173
913.605385,76.570323,95.712904,-9456.434915
913.606013,95.712904,153.140646,-9418.149754
913.606641,133.998066,114.855485,-9418.149754
913.607269,0.000000,114.855485,-9399.007173
913.607896,133.998066,114.855485,-9475.577496
913.608524,95.712904,95.712904,-9399.007173
913.609152,133.998066,153.140646,-9456.434915
913.609779,133.998066,153.140646,-9399.007173
913.610407,76.570323,114.855485,-9418.149754
913.611035,133.998066,114.855485,-9456.434915
913.611663,114.855485,114.855485,-9399.007173
913.612290,38.285162,114.855485,-9418.149754
913.612918,95.712904,133.998066,-9360.722011
913.613546,95.712904,95.712904,-9399.007173
913.614173,133.998066,210.568389,-9418.149754
913.614801,133.998066,153.140646,-9456.434915
913.615429,133.998066,172.283227,-9418.149754
913.616057,38.285162,114.855485,-9418.149754
913.616684,153.140646,191.425808,-9399.007173
913.617312,95.712904,210.568389,-9418.149754
913.617940,133.998066,114.855485,-9418.149754
913.618567,76.570323,114.855485,-9418.149754
913.619195,76.570323,172.283227,-9418.149754
913.619823,95.712904,133.998066,-9360.722011
913.620451,76.570323,114.855485,-9418.149754
913.621078,133.998066,114.855485,-9437.292334
913.621706,95.712904,95.712904,-9437.292334
913.622334,76.570323,172.283227,-9437.292334
913.622961,133.998066,114.855485,-9418.149754
913.623589,133.998066,210.568389,-9399.007173
913.624217,38.285162,172.283227,-9494.720077
913.624845,133.998066,133.998066,-9456.434915
913.625472,76.570323,114.855485,-9418.149754
913.626100,38.285162,114.855485,-9418.149754
913.626728,38.285162,172.283227,-9418.149754
913.627355,95.712904,172.283227,-9437.292334
913.627983,76.570323,210.568389,-9418.149754
913.628611,38.285162,114.855485,-9418.149754
913.629238,76.570323,191.425808,-9418.149754
913.629866,76.570323,210.568389,-9418.149754
913.630494,133.998066,153.140646,-9456.434915
913.631122,76.570323,191.425808,-9418.149754
913.631749,76.570323,229.710970,-9399.007173
913.632377,114.855485,229.710970,-9437.292334
913.633005,76.570323,114.855485,-9418.149754
913.633632,133.998066,114.855485,-9418.149754
913.634260,153.140646,210.568389,-9399.007173
913.634888,76.570323,172.283227,-9418.149754
913.635516,38.285162,114.855485,-9418.149754
913.636143,153.140646,133.998066,-9456.434915
913.636771,76.570323,191.425808,-9494.720077
913.637399,76.570323,114.855485,-9456.434915
913.638026,133.998066,153.140646,-9456.434915
913.638654,38.285162,114.855485,-9418.149754
913.639282,76.570323,210.568389,-9437.292334
913.639910,153.140646,172.283227,-9456.434915
913.640537,38.285162,114.855485,-9437.292334
913.641165,76.570323,153.140646,-9418.149754
913.641793,133.998066,172.283227,-9418.149754
913.642420,153.140646,114.855485,-9456.434915
913.643048,133.998066,114.855485,-9418.149754
913.643676,38.285162,153.140646,-9418.149754
913.644304,133.998066,153.140646,-9418.149754
913.644931,133.998066,114.855485,-9475.577496
913.645559,114.855485,95.712904,-9399.007173
913.646187,133.998066,172.283227,-9456.434915
913.646814,133.998066,172.283227,-9437.292334
913.647442,95.712904,133.998066,-9360.722011
913.648070,76.570323,172.283227,-9418.149754
913.648698,38.285162,153.140646,-9475.577496
913.649325,133.998066,133.998066,-9399.007173
913.649953,114.855485,153.140646,-9360.722011
913.650581,133.998066,172.283227,-9418.149754
913.651208,153.140646,210.568389,-9399.007173
913.651836,95.712904,95.712904,-9399.007173
913.652464,57.427742,95.712904,-9437.292334
913.653092,76.570323,114.855485,-9418.149754
913.653719,133.998066,114.855485,-9418.149754
913.654347,114.855485,95.712904,-9456.434915
913.654975,133.998066,114.855485,-9456.434915
913.655602,172.283227,76.570323,-9456.434915
913.656230,76.570323,114.855485,-9418.149754
913.656858,153.140646,153.140646,-9399.007173
913.657486,133.998066,191.425808,-9456.434915
913.658113,133.998066,114.855485,-9418.149754
913.658741,76.570323,172.283227,-9418.149754
913.659369,133.998066,114.855485,-9418.149754
913.659996,76.570323,210.568389,-9437.292334
913.660624,153.140646,153.140646,-9399.007173
913.661252,153.140646,191.425808,-9399.007173
913.661880,133.998066,114.855485,-9418.149754
913.662507,76.570323,114.855485,-9418.149754
913.663135,38.285162,114.855485,-9437.292334
913.663763,114.855485,114.855485,-9399.007173
913.664390,133.998066,76.570323,-9379.864592
913.665018,95.712904,153.140646,-9475.577496
913.665646,76.570323,229.710970,-9418.149754
913.666274,133.998066,114.855485,-9475.577496
913.666901,114.855485,95.712904,-9399.007173
913.667529,76.570323,114.855485,-9418.149754
913.668157,76.570323,114.855485,-9437.292334
913.668784,76.570323,114.855485,-9475.577496
913.669412,133.998066,114.855485,-9418.149754
913.670040,133.998066,114.855485,-9418.149754
913.670668,76.570323,114.855485,-9418.149754
913.671295,76.570323,172.283227,-9418.149754
913.671923,76.570323,153.140646,-9437.292334
913.672551,76.570323,210.568389,-9418.149754
913.673178,76.570323,153.140646,-9418.149754
913.673806,133.998066,133.998066,-9399.007173
913.674434,57.427742,153.140646,-9360.722011
913.675062,76.570323,172.283227,-9418.149754
913.675689,95.712904,95.712904,-9399.007173
913.676317,76.570323,210.568389,-9437.292334
913.676945,38.285162,114.855485,-9418.149754
913.677572,133.998066,114.855485,-9418.149754
913.678200,95.712904,95.712904,-9399.007173
913.678828,76.570323,114.855485,-9418.149754
913.679456,76.570323,172.283227,-9418.149754
913.680083,133.998066,153.140646,-9418.149754
913.680711,95.712904,114.855485,-9360.722011
913.681339,114.855485,133.998066,-9418.149754
913.681966,95.712904,95.712904,-9399.007173
913.682594,133.998066,114.855485,-9437.292334
913.683222,133.998066,114.855485,-9418.149754
913.683850,153.140646,133.998066,-9399.007173
913.684477,133.998066,210.568389,-9437.292334
913.685105,76.570323,153.140646,-9475.577496
913.685733,76.570323,153.140646,-9418.149754
913.686360,76.570323,172.283227,-9418.149754
913.686988,133.998066,114.855485,-9418.149754
913.687616,133.998066,133.998066,-9399.007173
913.688244,133.998066,153.140646,-9437.292334
913.688871,153.140646,172.283227,-9399.007173
913.689499,133.998066,114.855485,-9418.149754
913.690127,19.142581,114.855485,-9418.149754
913.690754,76.570323,172.283227,-9456.434915
913.691382,38.285162,114.855485,-9418.149754
913.692010,133.998066,191.425808,-9418.149754
913.692638,133.998066,133.998066,-9399.007173
913.693265,76.570323,114.855485,-9456.434915
913.693893,133.998066,114.855485,-9456.434915
913.694521,95.712904,114.855485,-9418.149754
913.695148,76.570323,172.283227,-9418.149754
913.695776,76.570323,153.140646,-9418.149754
913.696404,38.285162,229.710970,-9437.292334
913.697032,133.998066,172.283227,-9456.434915
913.697659,95.712904,114.855485,-9494.720077
913.698287,76.570323,114.855485,-9437.292334
913.698915,76.570323,153.140646,-9437.292334
913.699542,76.570323,114.855485,-9456.434915
913.700170,76.570323,153.140646,-9437.292334
913.700798,76.570323,172.283227,-9418.149754
913.701426,133.998066,114.855485,-9418.149754
913.702053,76.570323,229.710970,-9475.577496
913.702681,133.998066,114.855485,-9418.149754
913.703309,153.140646,133.998066,-9456.434915
913.703936,153.140646,153.140646,-9399.007173
913.704564,133.998066,153.140646,-9456.434915
913.705192,153.140646,248.853550,-9456.434915
913.705820,133.998066,153.140646,-9456.434915
913.706447,76.570323,114.855485,-9418.149754
913.707075,133.998066,210.568389,-9437.292334
913.707703,38.285162,114.855485,-9418.149754
913.708330,133.998066,114.855485,-9475.577496
913.708958,76.570323,114.855485,-9418.149754
913.709586,133.998066,114.855485,-9418.149754
913.710213,76.570323,114.855485,-9418.149754
913.710841,114.855485,95.712904,-9456.434915
913.711469,76.570323,114.855485,-9418.149754
913.712096,133.998066,172.283227,-9437.292334
913.712724,76.570323,172.283227,-9418.149754
913.713352,57.427742,95.712904,-9399.007173
913.713979,133.998066,114.855485,-9456.434915
913.714607,76.570323,210.568389,-9418.149754
913.715235,76.570323,153.140646,-9456.434915
913.715862,76.570323,172.283227,-9437.292334
913.716490,76.570323,114.855485,-9437.292334
913.717118,95.712904,114.855485,-9437.292334
913.717745,38.285162,114.855485,-9456.434915
913.718373,95.712904,153.140646,-9437.292334
913.719001,210.568389,133.998066,-9456.434915
913.719628,76.570323,210.568389,-9456.434915
913.720256,38.285162,114.855485,-9418.149754
913.720884,114.855485,76.570323,-9418.149754
913.721511,133.998066,114.855485,-9418.149754
913.722139,133.998066,133.998066,-9399.007173
913.722767,76.570323,172.283227,-9418.149754
913.723394,95.712904,172.283227,-9418.149754
913.724022,76.570323,172.283227,-9456.434915
913.724650,76.570323,153.140646,-9418.149754
913.725277,76.570323,114.855485,-9437.292334
913.725905,133.998066,172.283227,-9418.149754
913.726533,95.712904,114.855485,-9437.292334
913.727161,133.998066,172.283227,-9475.577496
913.727788,76.570323,114.855485,-9437.292334
913.728416,38.285162,114.855485,-9418.149754
913.729044,133.998066,153.140646,-9418.149754
913.729671,133.998066,172.283227,-9437.292334
913.730299,76.570323,210.568389,-9475.577496
913.730927,76.570323,153.140646,-9418.149754
913.731554,76.570323,114.855485,-9418.149754
913.732182,114.855485,153.140646,-9418.149754
913.732810,57.427742,172.283227,-9341.579430
913.733437,76.570323,114.855485,-9418.149754
913.734065,76.570323,153.140646,-9418.149754
913.734693,19.142581,114.855485,-9475.577496
913.735320,57.427742,153.140646,-9360.722011
913.735948,76.570323,172.283227,-9437.292334
913.736576,76.570323,95.712904,-9456.434915
913.737203,114.855485,172.283227,-9533.005238
913.737831,38.285162,114.855485,-9456.434915
913.738459,114.855485,76.570323,-9437.292334
913.739086,114.855485,95.712904,-9437.292334
913.739714,133.998066,114.855485,-9418.149754
913.740342,76.570323,114.855485,-9418.149754
913.740969,95.712904,95.712904,-9456.434915
913.741597,114.855485,95.712904,-9399.007173
913.742225,76.570323,114.855485,-9456.434915
913.742852,76.570323,133.998066,-9360.722011
913.743480,76.570323,114.855485,-9418.149754
913.744108,76.570323,172.283227,-9418.149754
913.744735,133.998066,229.710970,-9418.149754
913.745363,38.285162,210.568389,-9418.149754
913.745991,76.570323,114.855485,-9456.434915
913.746618,95.712904,114.855485,-9399.007173
913.747246,76.570323,114.855485,-9418.149754
913.747874,95.712904,95.712904,-9494.720077
913.748501,38.285162,114.855485,-9418.149754
913.749129,76.570323,210.568389,-9418.149754
913.749757,95.712904,229.710970,-9418.149754
913.750384,76.570323,153.140646,-9475.577496
913.751012,95.712904,133.998066,-9360.722011
913.751640,76.570323,191.425808,-9437.292334
913.752267,153.140646,172.283227,-9399.007173
913.752895,153.140646,172.283227,-9456.434915
913.753523,133.998066,172.283227,-9399.007173
913.754151,133.998066,153.140646,-9437.292334
913.754778,133.998066,114.855485,-9437.292334
913.755406,210.568389,133.998066,-9437.292334
913.756034,114.855485,95.712904,-9437.292334
913.756661,114.855485,95.712904,-9399.007173
913.757289,95.712904,133.998066,-9360.722011
913.757917,38.285162,114.855485,-9418.149754
913.758544,133.998066,210.568389,-9418.149754
913.759172,133.998066,153.140646,-9418.149754
913.759800,133.998066,172.283227,-9418.149754
913.760427,76.570323,172.283227,-9418.149754
913.761055,19.142581,114.855485,-9437.292334
913.761683,76.570323,114.855485,-9418.149754
913.762310,57.427742,114.855485,-9494.720077
913.762938,133.998066,114.855485,-9418.149754
913.763566,76.570323,114.855485,-9418.149754
913.764193,95.712904,133.998066,-9360.722011
913.764821,76.570323,114.855485,-9418.149754
913.765449,76.570323,153.140646,-9418.149754
913.766076,76.570323,114.855485,-9418.149754
913.766704,133.998066,153.140646,-9437.292334
913.767332,133.998066,114.855485,-9475.577496
913.767959,133.998066,133.998066,-9437.292334
913.768587,76.570323,172.283227,-9456.434915
913.769215,95.712904,114.855485,-9418.149754
913.769842,76.570323,172.283227,-9418.149754
913.770470,133.998066,153.140646,-9418.149754
913.771098,76.570323,172.283227,-9418.149754
913.771725,76.570323,191.425808,-9437.292334
913.772353,133.998066,114.855485,-9418.149754
913.772981,76.570323,210.568389,-9418.149754
913.773608,95.712904,95.712904,-9399.007173
913.774236,133.998066,210.568389,-9418.149754
913.774864,76.570323,153.140646,-9418.149754
913.775491,133.998066,114.855485,-9475.577496
913.776119,133.998066,210.568389,-9418.149754
913.776747,153.140646,229.710970,-9456.434915
913.777374,38.285162,153.140646,-9418.149754
913.778002,95.712904,153.140646,-9360.722011
913.778630,76.570323,114.855485,-9437.292334
913.779257,133.998066,248.853550,-9399.007173
913.779885,38.285162,114.855485,-9418.149754
913.780513,133.998066,172.283227,-9456.434915
913.781141,95.712904,95.712904,-9399.007173
913.781768,95.712904,95.712904,-9437.292334
913.782396,133.998066,114.855485,-9418.149754
913.783024,153.140646,248.853550,-9494.720077
913.783651,133.998066,153.140646,-9437.292334
913.784279,133.998066,133.998066,-9475.577496
913.784907,153.140646,153.140646,-9399.007173
913.785534,133.998066,191.425808,-9418.149754
913.786162,153.140646,172.283227,-9399.007173
913.786790,133.998066,210.568389,-9418.149754
913.787417,133.998066,114.855485,-9418.149754
913.788045,76.570323,153.140646,-9418.149754
913.788673,133.998066,172.283227,-9418.149754
913.789300,133.998066,114.855485,-9456.434915
913.789928,76.570323,210.568389,-9475.577496
913.790556,76.570323,172.283227,-9418.149754
913.791183,153.140646,133.998066,-9399.007173
913.791811,95.712904,95.712904,-9456.434915
913.792439,76.570323,114.855485,-9437.292334
913.793066,153.140646,172.283227,-9456.434915
913.793694,76.570323,172.283227,-9418.149754
913.794322,76.570323,153.140646,-9418.149754
913.794949,19.142581,172.283227,-9475.577496
913.795577,95.712904,210.568389,-9437.292334
913.796205,133.998066,210.568389,-9456.434915
913.796832,114.855485,133.998066,-9360.722011
913.797460,38.285162,114.855485,-9418.149754
913.798088,95.712904,172.283227,-9456.434915
913.798715,133.998066,114.855485,-9418.149754
913.799343,38.285162,153.140646,-9437.292334
913.799971,76.570323,114.855485,-9418.149754
913.800598,76.570323,172.283227,-9418.149754
913.801226,38.285162,153.140646,-9437.292334
913.801854,38.285162,114.855485,-9418.149754
913.802481,133.998066,114.855485,-9437.292334
913.803109,133.998066,153.140646,-9418.149754
913.803737,133.998066,114.855485,-9418.149754
913.804364,38.285162,153.140646,-9418.149754
913.804992,133.998066,114.855485,-9418.149754
913.805620,76.570323,114.855485,-9418.149754
913.806247,133.998066,133.998066,-9399.007173
913.806875,95.712904,114.855485,-9437.292334
913.807503,76.570323,114.855485,-9533.005238
913.808130,76.570323,114.855485,-9475.577496
913.808758,133.998066,114.855485,-9437.292334
913.809386,133.998066,114.855485,-9418.149754
913.810013,133.998066,153.140646,-9399.007173
913.810641,76.570323,191.425808,-9418.149754
913.811268,57.427742,248.853550,-9360.722011
913.811896,133.998066,153.140646,-9456.434915
913.812524,95.712904,172.283227,-9418.149754
913.813151,76.570323,210.568389,-9418.149754
913.813779,76.570323,114.855485,-9418.149754
913.814407,38.285162,172.283227,-9418.149754
913.815034,133.998066,153.140646,-9418.149754
913.815662,153.140646,133.998066,-9399.007173
913.816289,38.285162,114.855485,-9418.149754
913.816917,38.285162,114.855485,-9418.149754
913.817545,76.570323,210.568389,-9437.292334
913.818172,76.570323,114.855485,-9418.149754
913.818800,38.285162,114.855485,-9418.149754
913.819428,114.855485,95.712904,-9399.007173
913.820055,153.140646,133.998066,-9437.292334
913.820683,76.570323,153.140646,-9418.149754
913.821310,76.570323,172.283227,-9437.292334
913.821938,133.998066,191.425808,-9456.434915
913.822566,133.998066,114.855485,-9418.149754
913.823193,95.712904,114.855485,-9456.434915
913.823821,95.712904,114.855485,-9418.149754
913.824449,133.998066,114.855485,-9437.292334
913.825076,38.285162,114.855485,-9418.149754
913.825704,76.570323,153.140646,-9456.434915
913.826331,38.285162,172.283227,-9456.434915
913.826959,76.570323,114.855485,-9418.149754
913.827587,76.570323,114.855485,-9360.722011
913.828214,95.712904,95.712904,-9399.007173
913.828842,133.998066,133.998066,-9399.007173
913.829470,38.285162,114.855485,-9418.149754
913.830097,38.285162,172.283227,-9456.434915
913.830725,76.570323,153.140646,-9456.434915
913.831352,76.570323,114.855485,-9418.149754
913.831980,95.712904,229.710970,-9418.149754
913.832608,153.140646,114.855485,-9475.577496
913.833235,133.998066,114.855485,-9418.149754
913.833863,172.283227,95.712904,-9399.007173
913.834491,133.998066,114.855485,-9360.722011
913.835118,114.855485,153.140646,-9360.722011
913.835746,133.998066,153.140646,-9456.434915
913.836373,38.285162,172.283227,-9456.434915
913.837001,133.998066,172.283227,-9418.149754
913.837629,133.998066,153.140646,-9418.149754
913.838256,76.570323,114.855485,-9418.149754
913.838884,133.998066,172.283227,-9437.292334
913.839512,153.140646,133.998066,-9399.007173
913.840139,76.570323,172.283227,-9437.292334
913.840767,76.570323,172.283227,-9418.149754
913.841394,133.998066,114.855485,-9418.149754
913.842022,76.570323,153.140646,-9456.434915
913.842650,38.285162,191.425808,-9437.292334
913.843277,133.998066,153.140646,-9437.292334
913.843905,76.570323,114.855485,-9418.149754
913.844533,133.998066,114.855485,-9437.292334
913.845160,95.712904,133.998066,-9360.722011
913.845788,76.570323,172.283227,-9418.149754
913.846415,76.570323,153.140646,-9418.149754
913.847043,133.998066,114.855485,-9533.005238
913.847671,133.998066,114.855485,-9418.149754
913.848298,76.570323,210.568389,-9437.292334
913.848926,133.998066,114.855485,-9475.577496
913.849554,133.998066,133.998066,-9399.007173
913.850181,76.570323,114.855485,-9418.149754
913.850809,133.998066,114.855485,-9418.149754
913.851436,133.998066,172.283227,-9475.577496
913.852064,114.855485,172.283227,-9456.434915
913.852692,95.712904,153.140646,-9418.149754
913.853319,76.570323,114.855485,-9418.149754
913.853947,38.285162,114.855485,-9418.149754
913.854575,133.998066,114.855485,-9418.149754
913.855202,133.998066,114.855485,-9418.149754
913.855830,95.712904,114.855485,-9456.434915
913.856457,133.998066,114.855485,-9437.292334
913.857085,133.998066,153.140646,-9437.292334
913.857713,133.998066,114.855485,-9456.434915
913.858340,95.712904,114.855485,-9399.007173
913.858968,95.712904,172.283227,-9418.149754
913.859596,133.998066,172.283227,-9399.007173
913.860223,76.570323,153.140646,-9418.149754
913.860851,114.855485,95.712904,-9399.007173
913.861478,133.998066,114.855485,-9418.149754
913.862106,76.570323,210.568389,-9475.577496
913.862734,57.427742,210.568389,-9533.005238
913.863361,133.998066,114.855485,-9418.149754
913.863989,76.570323,114.855485,-9456.434915
913.864616,133.998066,172.283227,-9418.149754
913.865244,133.998066,153.140646,-9399.007173
913.865872,38.285162,153.140646,-9418.149754
913.866499,76.570323,153.140646,-9418.149754
913.867127,114.855485,153.140646,-9341.579430
913.867755,133.998066,172.283227,-9437.292334
913.868382,38.285162,114.855485,-9418.149754
913.869010,76.570323,114.855485,-9456.434915
913.869637,133.998066,114.855485,-9418.149754
913.870265,76.570323,114.855485,-9418.149754
913.870893,76.570323,114.855485,-9475.577496
913.871520,133.998066,133.998066,-9399.007173
913.872148,133.998066,114.855485,-9437.292334
913.872776,76.570323,172.283227,-9437.292334
913.873403,76.570323,172.283227,-9456.434915
913.874031,76.570323,153.140646,-9494.720077
913.874658,76.570323,114.855485,-9456.434915
913.875286,38.285162,153.140646,-9399.007173
913.875914,76.570323,153.140646,-9418.149754
913.876541,95.712904,95.712904,-9456.434915
913.877169,76.570323,153.140646,-9418.149754
913.877797,76.570323,153.140646,-9437.292334
913.878424,76.570323,114.855485,-9418.149754
913.879052,133.998066,114.855485,-9475.577496
913.879679,76.570323,153.140646,-9418.149754
913.880307,95.712904,114.855485,-9437.292334
913.880935,76.570323,114.855485,-9475.577496
913.881562,76.570323,229.710970,-9494.720077
913.882190,133.998066,114.855485,-9418.149754
913.882818,133.998066,114.855485,-9437.292334
913.883445,76.570323,172.283227,-9456.434915
913.884073,133.998066,153.140646,-9437.292334
913.884700,76.570323,153.140646,-9418.149754
913.885328,76.570323,114.855485,-9418.149754
913.885956,76.570323,114.855485,-9456.434915
913.886583,153.140646,172.283227,-9418.149754
913.887211,133.998066,210.568389,-9475.577496
913.887839,133.998066,210.568389,-9437.292334
913.888466,38.285162,153.140646,-9437.292334
913.889094,95.712904,172.283227,-9456.434915
913.889721,38.285162,210.568389,-9418.149754
913.890349,76.570323,114.855485,-9418.149754
913.890977,76.570323,153.140646,-9418.149754
913.891604,133.998066,114.855485,-9418.149754
913.892232,133.998066,114.855485,-9418.149754
913.892860,133.998066,114.855485,-9494.720077
913.893487,133.998066,114.855485,-9437.292334
913.894115,76.570323,153.140646,-9418.149754
913.894742,76.570323,172.283227,-9418.149754
913.895370,76.570323,153.140646,-9418.149754
913.895998,76.570323,95.712904,-9418.149754
913.896625,76.570323,172.283227,-9437.292334
913.897253,133.998066,114.855485,-9418.149754
913.897881,133.998066,210.568389,-9418.149754
913.898508,95.712904,229.710970,-9418.149754
913.899136,133.998066,210.568389,-9437.292334
913.899763,114.855485,172.283227,-9418.149754
913.900391,76.570323,114.855485,-9418.149754
913.901019,76.570323,153.140646,-9437.292334
913.901646,38.285162,114.855485,-9418.149754
913.902274,38.285162,114.855485,-9418.149754
913.902902,76.570323,114.855485,-9456.434915
913.903529,76.570323,114.855485,-9418.149754
913.904157,133.998066,133.998066,-9399.007173
913.904784,76.570323,114.855485,-9418.149754
913.905412,76.570323,114.855485,-9418.149754
913.906040,38.285162,114.855485,-9418.149754
913.906667,0.000000,133.998066,-9360.722011
913.907295,76.570323,153.140646,-9437.292334
913.907922,38.285162,114.855485,-9456.434915
913.908550,19.142581,114.855485,-9418.149754
913.909177,133.998066,153.140646,-9418.149754
913.909805,153.140646,133.998066,-9399.007173
913.910432,133.998066,172.283227,-9418.149754
913.911060,76.570323,153.140646,-9418.149754
913.911687,95.712904,114.855485,-9475.577496
913.912315,133.998066,114.855485,-9475.577496
913.912942,76.570323,210.568389,-9418.149754
913.913569,95.712904,114.855485,-9418.149754
913.914197,95.712904,114.855485,-9475.577496
913.914824,114.855485,133.998066,-9360.722011
913.915452,95.712904,114.855485,-9456.434915
913.916079,153.140646,172.283227,-9437.292334
913.916707,114.855485,153.140646,-9360.722011
913.917334,76.570323,114.855485,-9456.434915
913.917962,95.712904,153.140646,-9456.434915
913.918589,95.712904,114.855485,-9418.149754
913.919217,57.427742,95.712904,-9399.007173
913.919844,76.570323,153.140646,-9456.434915
913.920472,76.570323,153.140646,-9418.149754
913.921099,133.998066,153.140646,-9437.292334
913.921727,133.998066,114.855485,-9456.434915
913.922354,76.570323,114.855485,-9437.292334
913.922982,172.283227,76.570323,-9475.577496
913.923609,76.570323,172.283227,-9418.149754
913.924236,57.427742,153.140646,-9360.722011
913.924864,76.570323,153.140646,-9418.149754
913.925491,76.570323,172.283227,-9399.007173
913.926119,76.570323,114.855485,-9456.434915
913.926746,57.427742,172.283227,-9418.149754
913.927374,76.570323,76.570323,-9399.007173
913.928001,76.570323,153.140646,-9418.149754
913.928629,38.285162,114.855485,-9418.149754
913.929256,76.570323,210.568389,-9437.292334
913.929884,38.285162,153.140646,-9437.292334
913.930511,76.570323,153.140646,-9418.149754
913.931139,133.998066,114.855485,-9418.149754
913.931766,95.712904,210.568389,-9418.149754
913.932394,133.998066,114.855485,-9418.149754
913.933021,133.998066,114.855485,-9418.149754
913.933649,153.140646,133.998066,-9399.007173
913.934276,38.285162,114.855485,-9418.149754
913.934904,153.140646,153.140646,-9475.577496
913.935531,153.140646,191.425808,-9399.007173
913.936158,76.570323,153.140646,-9418.149754
913.936786,133.998066,114.855485,-9418.149754
913.937413,133.998066,114.855485,-9437.292334
913.938041,133.998066,153.140646,-9418.149754
913.938668,57.427742,114.855485,-9418.149754
913.939296,95.712904,114.855485,-9418.149754
913.939923,76.570323,114.855485,-9437.292334
913.940551,153.140646,133.998066,-9399.007173
913.941178,133.998066,114.855485,-9418.149754
913.941806,95.712904,172.283227,-9418.149754
913.942433,38.285162,114.855485,-9437.292334
913.943061,38.285162,210.568389,-9418.149754
913.943688,95.712904,172.283227,-9360.722011
913.944316,133.998066,210.568389,-9418.149754
913.944943,76.570323,229.710970,-9418.149754
913.945571,153.140646,114.855485,-9418.149754
913.946198,133.998066,210.568389,-9437.292334
913.946825,133.998066,114.855485,-9456.434915
913.947453,133.998066,114.855485,-9456.434915
913.948080,95.712904,210.568389,-9418.149754
913.948708,76.570323,114.855485,-9418.149754
913.949335,76.570323,210.568389,-9437.292334
913.949963,76.570323,114.855485,-9418.149754
913.950590,133.998066,114.855485,-9418.149754
913.951218,153.140646,133.998066,-9379.864592
913.951845,76.570323,114.855485,-9418.149754
913.952473,76.570323,114.855485,-9418.149754
913.953100,133.998066,172.283227,-9418.149754
913.953728,114.855485,95.712904,-9399.007173
913.954355,76.570323,114.855485,-9437.292334
913.954983,38.285162,114.855485,-9437.292334
913.955610,19.142581,210.568389,-9418.149754
913.956238,38.285162,210.568389,-9418.149754
913.956865,57.427742,172.283227,-9437.292334
913.957492,76.570323,114.855485,-9418.149754
913.958120,114.855485,133.998066,-9475.577496
913.958747,38.285162,114.855485,-9418.149754
913.959375,76.570323,172.283227,-9418.149754
913.960002,76.570323,114.855485,-9437.292334
913.960630,76.570323,153.140646,-9418.149754
913.961257,38.285162,153.140646,-9475.577496
913.961885,95.712904,95.712904,-9399.007173
913.962512,133.998066,114.855485,-9418.149754
913.963140,95.712904,95.712904,-9399.007173
913.963767,76.570323,172.283227,-9418.149754
913.964395,76.570323,114.855485,-9418.149754
913.965022,76.570323,114.855485,-9418.149754
913.965650,38.285162,114.855485,-9418.149754
913.966277,133.998066,153.140646,-9437.292334
913.966905,76.570323,114.855485,-9418.149754
913.967532,76.570323,153.140646,-9418.149754
913.968160,76.570323,153.140646,-9418.149754
913.968787,133.998066,114.855485,-9418.149754
913.969414,76.570323,114.855485,-9456.434915
913.970042,76.570323,153.140646,-9437.292334
913.970669,76.570323,153.140646,-9437.292334
913.971297,76.570323,114.855485,-9456.434915
913.971924,76.570323,114.855485,-9456.434915
913.972552,76.570323,172.283227,-9418.149754
913.973179,153.140646,133.998066,-9399.007173
913.973807,57.427742,95.712904,-9399.007173
913.974434,76.570323,114.855485,-9475.577496
913.975062,76.570323,172.283227,-9475.577496
913.975689,57.427742,133.998066,-9360.722011
913.976317,95.712904,172.283227,-9360.722011
913.976944,95.712904,95.712904,-9399.007173
913.977572,133.998066,114.855485,-9418.149754
913.978199,76.570323,114.855485,-9437.292334
913.978827,38.285162,172.283227,-9437.292334
913.979454,133.998066,114.855485,-9456.434915
913.980081,133.998066,114.855485,-9456.434915
913.980709,133.998066,114.855485,-9418.149754
913.981336,133.998066,114.855485,-9418.149754
913.981964,76.570323,114.855485,-9494.720077
913.982591,133.998066,114.855485,-9418.149754
913.983219,133.998066,172.283227,-9418.149754
913.983846,133.998066,191.425808,-9456.434915
913.984474,133.998066,114.855485,-9418.149754
913.985101,38.285162,172.283227,-9418.149754
913.985729,133.998066,191.425808,-9418.149754
913.986356,133.998066,191.425808,-9399.007173
913.986984,133.998066,210.568389,-9418.149754
913.987611,133.998066,114.855485,-9533.005238
913.988239,133.998066,172.283227,-9475.577496
913.988866,133.998066,229.710970,-9456.434915
913.989494,133.998066,114.855485,-9456.434915
913.990121,76.570323,114.855485,-9418.149754
913.990748,76.570323,172.283227,-9456.434915
913.991376,133.998066,172.283227,-9437.292334
913.992003,133.998066,172.283227,-9475.577496
913.992631,133.998066,172.283227,-9418.149754
913.993258,38.285162,114.855485,-9437.292334
913.993886,38.285162,210.568389,-9475.577496
913.994513,38.285162,114.855485,-9418.149754
913.995141,133.998066,76.570323,-9379.864592
913.995768,95.712904,153.140646,-9360.722011
913.996396,38.285162,114.855485,-9418.149754
913.997023,153.140646,114.855485,-9418.149754
913.997651,153.140646,191.425808,-9399.007173
913.998278,133.998066,172.283227,-9418.149754
913.998906,210.568389,172.283227,-9494.720077
913.999533,76.570323,210.568389,-9418.149754
914.000161,76.570323,114.855485,-9437.292334
914.000788,133.998066,153.140646,-9418.149754
914.001416,114.855485,210.568389,-9379.864592
914.002043,95.712904,114.855485,-9418.149754
914.002670,95.712904,114.855485,-9456.434915
914.003298,133.998066,114.855485,-9418.149754
914.003925,76.570323,114.855485,-9418.149754
914.004553,133.998066,114.855485,-9418.149754
914.005180,133.998066,210.568389,-9418.149754
914.005808,95.712904,114.855485,-9456.434915
914.006435,114.855485,133.998066,-9475.577496
914.007063,76.570323,153.140646,-9456.434915
914.007690,76.570323,114.855485,-9437.292334
914.008318,133.998066,114.855485,-9456.434915
914.008945,76.570323,191.425808,-9418.149754
914.009573,133.998066,153.140646,-9418.149754
914.010201,38.285162,153.140646,-9418.149754
914.010828,76.570323,114.855485,-9418.149754
914.011456,95.712904,95.712904,-9399.007173
914.012083,76.570323,114.855485,-9475.577496
914.012711,133.998066,172.283227,-9418.149754
914.013338,57.427742,114.855485,-9418.149754
914.013966,38.285162,172.283227,-9418.149754
914.014593,133.998066,114.855485,-9437.292334
914.015221,172.283227,76.570323,-9418.149754
914.015849,57.427742,95.712904,-9399.007173
914.016476,114.855485,133.998066,-9360.722011
914.017104,95.712904,172.283227,-9360.722011
914.017731,210.568389,172.283227,-9399.007173
914.018359,133.998066,76.570323,-9379.864592
914.018986,76.570323,114.855485,-9456.434915
914.019614,133.998066,114.855485,-9418.149754
914.020241,76.570323,133.998066,-9360.722011
914.020869,133.998066,114.855485,-9418.149754
914.021497,133.998066,114.855485,-9418.149754
914.022124,76.570323,114.855485,-9418.149754
914.022752,133.998066,210.568389,-9418.149754
914.023379,133.998066,114.855485,-9418.149754
914.024007,133.998066,172.283227,-9418.149754
914.024634,133.998066,114.855485,-9418.149754
914.025262,76.570323,191.425808,-9456.434915
914.025889,57.427742,172.283227,-9418.149754
914.026517,38.285162,210.568389,-9494.720077
914.027145,76.570323,114.855485,-9418.149754
914.027772,133.998066,114.855485,-9418.149754
914.028400,76.570323,153.140646,-9418.149754
914.029027,95.712904,114.855485,-9418.149754
914.029655,76.570323,114.855485,-9418.149754
914.030282,38.285162,114.855485,-9437.292334
914.030910,76.570323,114.855485,-9437.292334
914.031537,133.998066,114.855485,-9456.434915
914.032165,38.285162,172.283227,-9418.149754
914.032793,76.570323,114.855485,-9418.149754
914.033420,76.570323,114.855485,-9418.149754
914.034048,76.570323,114.855485,-9418.149754
914.034675,76.570323,210.568389,-9418.149754
914.035303,38.285162,153.140646,-9437.292334
914.035930,133.998066,133.998066,-9437.292334
914.036558,114.855485,172.283227,-9360.722011
914.037185,76.570323,153.140646,-9418.149754
914.037813,76.570323,114.855485,-9437.292334
914.038441,76.570323,153.140646,-9475.577496
914.039068,76.570323,114.855485,-9418.149754
914.039696,76.570323,114.855485,-9418.149754
914.040323,38.285162,153.140646,-9418.149754
914.040951,57.427742,114.855485,-9456.434915
914.041578,133.998066,210.568389,-9418.149754
914.042206,76.570323,172.283227,-9418.149754
914.042833,76.570323,114.855485,-9437.292334
914.043461,95.712904,95.712904,-9399.007173
914.044089,76.570323,114.855485,-9456.434915
914.044716,95.712904,114.855485,-9418.149754
914.045344,133.998066,114.855485,-9418.149754
914.045971,153.140646,133.998066,-9456.434915
914.046599,38.285162,114.855485,-9418.149754
914.047226,76.570323,114.855485,-9456.434915
914.047854,76.570323,95.712904,-9399.007173
914.048482,76.570323,76.570323,-9379.864592
914.049109,57.427742,95.712904,-9399.007173
914.049737,76.570323,114.855485,-9418.149754
914.050364,95.712904,114.855485,-9494.720077
914.050992,133.998066,133.998066,-9494.720077
914.051619,95.712904,133.998066,-9475.577496
914.052247,153.140646,133.998066,-9456.434915
914.052874,133.998066,172.283227,-9418.149754
914.053502,133.998066,153.140646,-9456.434915
914.054130,76.570323,172.283227,-9437.292334
914.054757,133.998066,172.283227,-9494.720077
914.055385,133.998066,133.998066,-9437.292334
914.056012,76.570323,114.855485,-9418.149754
914.056640,153.140646,133.998066,-9399.007173
914.057267,95.712904,191.425808,-9418.149754
914.057895,76.570323,114.855485,-9437.292334
914.058522,133.998066,229.710970,-9418.149754
914.059150,133.998066,153.140646,-9418.149754
914.059778,76.570323,153.140646,-9437.292334
914.060405,95.712904,114.855485,-9494.720077
914.061033,133.998066,210.568389,-9418.149754
914.061660,114.855485,114.855485,-9399.007173
914.062288,76.570323,114.855485,-9418.149754
914.062915,76.570323,191.425808,-9418.149754
914.063543,76.570323,114.855485,-9418.149754
914.064170,0.000000,133.998066,-9360.722011
914.064798,57.427742,153.140646,-9418.149754
914.065426,76.570323,229.710970,-9456.434915
914.066053,95.712904,172.283227,-9360.722011
914.066681,114.855485,172.283227,-9360.722011
914.067308,133.998066,76.570323,-9379.864592
914.067936,76.570323,172.283227,-9418.149754
914.068563,133.998066,172.283227,-9418.149754
914.069191,76.570323,172.283227,-9418.149754
914.069818,95.712904,172.283227,-9418.149754
914.070446,133.998066,114.855485,-9418.149754
914.071074,95.712904,114.855485,-9418.149754
914.071701,133.998066,153.140646,-9475.577496
914.072329,76.570323,153.140646,-9456.434915
914.072956,133.998066,172.283227,-9399.007173
914.073584,76.570323,210.568389,-9418.149754
914.074211,76.570323,114.855485,-9418.149754
914.074839,95.712904,114.855485,-9418.149754
914.075466,57.427742,133.998066,-9360.722011
914.076094,133.998066,114.855485,-9418.149754
914.076722,153.140646,153.140646,-9399.007173
914.077349,95.712904,114.855485,-9437.292334
914.077977,133.998066,114.855485,-9418.149754
914.078604,76.570323,172.283227,-9475.577496
914.079232,114.855485,191.425808,-9360.722011
914.079859,76.570323,210.568389,-9418.149754
914.080487,38.285162,114.855485,-9418.149754
914.081114,133.998066,153.140646,-9418.149754
914.081742,133.998066,210.568389,-9437.292334
914.082370,133.998066,172.283227,-9418.149754
914.082997,76.570323,153.140646,-9533.005238
914.083625,38.285162,114.855485,-9418.149754
914.084252,76.570323,191.425808,-9418.149754
914.084880,133.998066,153.140646,-9494.720077
914.085507,76.570323,114.855485,-9456.434915
914.086135,95.712904,153.140646,-9418.149754
914.086762,76.570323,210.568389,-9418.149754
914.087390,19.142581,153.140646,-9475.577496
914.088018,133.998066,172.283227,-9418.149754
914.088645,133.998066,210.568389,-9456.434915
914.089273,133.998066,172.283227,-9475.577496
914.089900,133.998066,153.140646,-9418.149754
914.090528,133.998066,210.568389,-9494.720077
914.091155,76.570323,229.710970,-9418.149754
914.091783,76.570323,172.283227,-9418.149754
914.092410,133.998066,114.855485,-9456.434915
914.093038,76.570323,114.855485,-9437.292334
914.093666,38.285162,191.425808,-9418.149754
914.094293,76.570323,210.568389,-9418.149754
914.094921,38.285162,153.140646,-9437.292334
914.095548,133.998066,114.855485,-9418.149754
914.096176,76.570323,210.568389,-9437.292334
914.096803,76.570323,172.283227,-9418.149754
914.097431,133.998066,172.283227,-9437.292334
914.098058,95.712904,172.283227,-9360.722011
914.098686,114.855485,191.425808,-9360.722011
914.099314,153.140646,133.998066,-9399.007173
914.099941,133.998066,114.855485,-9418.149754
914.100569,133.998066,172.283227,-9437.292334
914.101196,19.142581,172.283227,-9418.149754
914.101824,38.285162,114.855485,-9456.434915
914.102451,76.570323,172.283227,-9456.434915
914.103079,133.998066,114.855485,-9475.577496
914.103707,153.140646,153.140646,-9399.007173
914.104334,133.998066,172.283227,-9456.434915
914.104962,114.855485,133.998066,-9360.722011
914.105589,76.570323,153.140646,-9418.149754
914.106217,95.712904,114.855485,-9418.149754
914.106844,76.570323,114.855485,-9456.434915
914.107472,76.570323,114.855485,-9418.149754
914.108099,57.427742,114.855485,-9418.149754
914.108727,76.570323,114.855485,-9437.292334
914.109354,133.998066,114.855485,-9418.149754
914.109981,153.140646,133.998066,-9437.292334
914.110609,76.570323,114.855485,-9418.149754
914.111236,57.427742,114.855485,-9418.149754
914.111863,133.998066,114.855485,-9418.149754
914.112491,133.998066,114.855485,-9418.149754
914.113118,95.712904,153.140646,-9341.579430
914.113746,38.285162,172.283227,-9418.149754
914.114373,114.855485,133.998066,-9360.722011
914.115000,133.998066,114.855485,-9418.149754
914.115628,133.998066,114.855485,-9418.149754
914.116255,133.998066,114.855485,-9418.149754
914.116882,114.855485,191.425808,-9360.722011
914.117510,76.570323,114.855485,-9418.149754
914.118137,38.285162,114.855485,-9437.292334
914.118764,172.283227,76.570323,-9418.149754
914.119392,19.142581,153.140646,-9418.149754
914.120019,38.285162,172.283227,-9456.434915
914.120647,38.285162,114.855485,-9456.434915
914.121274,76.570323,153.140646,-9418.149754
914.121901,133.998066,114.855485,-9418.149754
914.122529,133.998066,114.855485,-9418.149754
914.123156,76.570323,191.425808,-9418.149754
914.123783,133.998066,172.283227,-9418.149754
914.124411,76.570323,114.855485,-9418.149754
914.125038,133.998066,172.283227,-9418.149754
914.125666,95.712904,172.283227,-9360.722011
914.126293,133.998066,191.425808,-9418.149754
914.126920,133.998066,210.568389,-9418.149754
914.127548,76.570323,172.283227,-9437.292334
914.128175,133.998066,114.855485,-9437.292334
914.128802,133.998066,133.998066,-9399.007173
914.129430,38.285162,172.283227,-9418.149754
914.130057,114.855485,95.712904,-9399.007173
914.130685,133.998066,153.140646,-9418.149754
914.131312,153.140646,153.140646,-9456.434915
914.131939,133.998066,114.855485,-9437.292334
914.132567,76.570323,114.855485,-9418.149754
914.133194,133.998066,114.855485,-9418.149754
914.133821,114.855485,95.712904,-9399.007173
914.134449,76.570323,172.283227,-9475.577496
914.135076,133.998066,114.855485,-9475.577496
914.135703,76.570323,114.855485,-9418.149754
914.136331,76.570323,153.140646,-9418.149754
914.136958,172.283227,76.570323,-9418.149754
914.137586,95.712904,153.140646,-9360.722011
914.138213,76.570323,210.568389,-9475.577496
914.138840,95.712904,133.998066,-9533.005238
914.139468,114.855485,95.712904,-9437.292334
914.140095,95.712904,153.140646,-9418.149754
914.140722,133.998066,114.855485,-9456.434915
914.141350,114.855485,114.855485,-9399.007173
914.141977,76.570323,153.140646,-9418.149754
914.142605,133.998066,114.855485,-9418.149754
914.143232,153.140646,172.283227,-9399.007173
914.143859,76.570323,114.855485,-9418.149754
914.144487,133.998066,133.998066,-9399.007173
914.145114,76.570323,114.855485,-9456.434915
914.145741,38.285162,153.140646,-9418.149754
914.146369,38.285162,191.425808,-9418.149754
914.146996,76.570323,114.855485,-9418.149754
914.147623,153.140646,153.140646,-9399.007173
914.148251,76.570323,114.855485,-9418.149754
914.148878,76.570323,133.998066,-9379.864592
914.149506,38.285162,114.855485,-9418.149754
914.150133,38.285162,153.140646,-9418.149754
914.150760,38.285162,172.283227,-9418.149754
914.151388,76.570323,95.712904,-9513.862658
914.152015,133.998066,114.855485,-9456.434915
914.152642,38.285162,114.855485,-9475.577496
914.153270,76.570323,172.283227,-9418.149754
914.153897,133.998066,153.140646,-9418.149754
914.154525,38.285162,114.855485,-9437.292334
914.155152,133.998066,114.855485,-9418.149754
914.155779,76.570323,114.855485,-9437.292334
914.156407,114.855485,95.712904,-9399.007173
914.157034,172.283227,114.855485,-9399.007173
914.157661,153.140646,133.998066,-9456.434915
914.158289,76.570323,210.568389,-9418.149754
914.158916,38.285162,114.855485,-9418.149754
914.159544,38.285162,210.568389,-9437.292334
914.160171,133.998066,172.283227,-9475.577496
914.160798,133.998066,114.855485,-9418.149754
914.161426,76.570323,153.140646,-9475.577496
914.162053,19.142581,153.140646,-9418.149754
914.162680,38.285162,114.855485,-9456.434915
914.163308,133.998066,172.283227,-9418.149754
914.163935,76.570323,210.568389,-9418.149754
914.164562,133.998066,172.283227,-9418.149754
914.165190,57.427742,172.283227,-9533.005238
914.165817,76.570323,153.140646,-9456.434915
914.166445,95.712904,114.855485,-9456.434915
914.167072,95.712904,133.998066,-9360.722011
914.167699,76.570323,210.568389,-9418.149754
914.168327,76.570323,133.998066,-9399.007173
914.168954,57.427742,153.140646,-9360.722011
914.169581,133.998066,114.855485,-9418.149754
914.170209,76.570323,153.140646,-9456.434915
914.170836,133.998066,114.855485,-9418.149754
914.171464,76.570323,172.283227,-9418.149754
914.172091,76.570323,153.140646,-9418.149754
914.172718,95.712904,114.855485,-9494.720077
914.173346,133.998066,114.855485,-9456.434915
914.173973,153.140646,153.140646,-9418.149754
914.174600,133.998066,114.855485,-9418.149754
914.175228,38.285162,114.855485,-9437.292334
914.175855,76.570323,114.855485,-9418.149754
914.176482,95.712904,95.712904,-9399.007173
914.177110,114.855485,95.712904,-9399.007173
914.177737,95.712904,114.855485,-9437.292334
914.178365,38.285162,114.855485,-9456.434915
914.178992,76.570323,114.855485,-9418.149754
914.179619,95.712904,95.712904,-9437.292334
914.180247,133.998066,114.855485,-9418.149754
914.180874,133.998066,172.283227,-9418.149754
914.181501,153.140646,172.283227,-9399.007173
914.182129,153.140646,133.998066,-9456.434915
914.182756,114.855485,133.998066,-9360.722011
914.183384,57.427742,210.568389,-9360.722011
914.184011,76.570323,172.283227,-9418.149754
914.184638,76.570323,114.855485,-9418.149754
914.185266,133.998066,191.425808,-9418.149754
914.185893,76.570323,210.568389,-9418.149754
914.186520,76.570323,114.855485,-9418.149754
914.187148,153.140646,133.998066,-9399.007173
914.187775,95.712904,95.712904,-9399.007173
914.188402,38.285162,172.283227,-9475.577496
914.189030,76.570323,114.855485,-9475.577496
914.189657,133.998066,133.998066,-9399.007173
914.190285,133.998066,114.855485,-9418.149754
914.190912,76.570323,210.568389,-9418.149754
914.191539,133.998066,133.998066,-9513.862658
914.192167,114.855485,95.712904,-9456.434915
914.192794,76.570323,114.855485,-9475.577496
914.193421,38.285162,114.855485,-9418.149754
914.194049,133.998066,114.855485,-9456.434915
914.194676,76.570323,114.855485,-9475.577496
914.195304,133.998066,172.283227,-9456.434915
914.195931,114.855485,114.855485,-9437.292334
914.196558,95.712904,172.283227,-9456.434915
914.197186,172.283227,172.283227,-9379.864592
914.197813,133.998066,153.140646,-9437.292334
914.198440,76.570323,114.855485,-9418.149754
914.199068,76.570323,114.855485,-9418.149754
914.199695,76.570323,114.855485,-9418.149754
914.200323,95.712904,191.425808,-9360.722011
914.200950,133.998066,153.140646,-9399.007173
914.201577,76.570323,114.855485,-9418.149754
914.202205,76.570323,210.568389,-9437.292334
914.202832,38.285162,114.855485,-9533.005238
914.203459,153.140646,210.568389,-9399.007173
914.204087,38.285162,153.140646,-9456.434915
914.204714,76.570323,153.140646,-9437.292334
914.205341,95.712904,172.283227,-9418.149754
914.205969,153.140646,133.998066,-9399.007173
914.206596,57.427742,95.712904,-9399.007173
914.207224,95.712904,95.712904,-9399.007173
914.207851,133.998066,114.855485,-9418.149754
914.208478,133.998066,114.855485,-9418.149754
914.209106,38.285162,114.855485,-9418.149754
914.209733,133.998066,114.855485,-9437.292334
914.210361,133.998066,114.855485,-9418.149754
914.210988,38.285162,114.855485,-9418.149754
914.211616,95.712904,114.855485,-9456.434915
914.212243,172.283227,76.570323,-9418.149754
914.212871,133.998066,153.140646,-9456.434915
914.213498,76.570323,191.425808,-9475.577496
914.214125,133.998066,114.855485,-9456.434915
914.214753,133.998066,114.855485,-9418.149754
914.215380,133.998066,114.855485,-9418.149754
914.216008,153.140646,172.283227,-9379.864592
914.216635,76.570323,114.855485,-9418.149754
914.217263,95.712904,114.855485,-9437.292334
914.217890,133.998066,172.283227,-9418.149754
914.218518,153.140646,172.283227,-9399.007173
914.219145,133.998066,172.283227,-9513.862658
914.219773,95.712904,172.283227,-9418.149754
914.220400,133.998066,229.710970,-9418.149754
914.221028,76.570323,172.283227,-9418.149754
914.221655,133.998066,172.283227,-9418.149754
914.222282,76.570323,153.140646,-9418.149754
914.222910,95.712904,95.712904,-9399.007173
914.223537,76.570323,114.855485,-9418.149754
914.224165,76.570323,172.283227,-9418.149754
914.224792,38.285162,172.283227,-9418.149754
914.225420,114.855485,95.712904,-9456.434915
914.226047,57.427742,95.712904,-9456.434915
914.226675,114.855485,95.712904,-9494.720077
914.227302,76.570323,114.855485,-9475.577496
914.227930,133.998066,172.283227,-9475.577496
914.228557,133.998066,210.568389,-9494.720077
914.229184,76.570323,114.855485,-9418.149754
914.229812,76.570323,114.855485,-9456.434915
914.230439,153.140646,133.998066,-9399.007173
914.231067,38.285162,172.283227,-9456.434915
914.231694,133.998066,172.283227,-9437.292334
914.232322,95.712904,172.283227,-9418.149754
914.232949,76.570323,114.855485,-9437.292334
914.233577,133.998066,114.855485,-9418.149754
914.234204,76.570323,114.855485,-9418.149754
914.234832,76.570323,114.855485,-9418.149754
914.235459,57.427742,95.712904,-9399.007173
914.236086,172.283227,114.855485,-9379.864592
914.236714,133.998066,114.855485,-9418.149754
914.237341,76.570323,114.855485,-9437.292334
914.237969,172.283227,76.570323,-9494.720077
914.238596,76.570323,153.140646,-9437.292334
914.239224,95.712904,133.998066,-9360.722011
914.239851,76.570323,114.855485,-9418.149754
914.240479,133.998066,114.855485,-9437.292334
914.241106,95.712904,95.712904,-9456.434915
914.241734,76.570323,153.140646,-9418.149754
914.242361,133.998066,172.283227,-9418.149754
914.242988,133.998066,114.855485,-9418.149754
914.243616,76.570323,114.855485,-9418.149754
914.244243,153.140646,133.998066,-9494.720077
914.244871,38.285162,114.855485,-9494.720077
914.245498,76.570323,114.855485,-9475.577496
914.246126,133.998066,153.140646,-9418.149754
914.246753,38.285162,114.855485,-9418.149754
914.247381,114.855485,133.998066,-9418.149754
914.248008,76.570323,114.855485,-9418.149754
914.248636,38.285162,191.425808,-9437.292334
914.249263,76.570323,172.283227,-9418.149754
914.249890,133.998066,153.140646,-9418.149754
914.250518,76.570323,172.283227,-9418.149754
914.251145,133.998066,114.855485,-9418.149754
914.251773,76.570323,153.140646,-9418.149754
914.252400,76.570323,95.712904,-9418.149754
914.253028,76.570323,114.855485,-9418.149754
914.253655,76.570323,114.855485,-9437.292334
914.254283,95.712904,172.283227,-9418.149754
914.254910,76.570323,210.568389,-9418.149754
914.255538,76.570323,114.855485,-9418.149754
914.256165,133.998066,114.855485,-9418.149754
914.256792,38.285162,114.855485,-9418.149754
914.257420,114.855485,114.855485,-9399.007173
914.258047,133.998066,114.855485,-9418.149754
914.258675,114.855485,95.712904,-9456.434915
914.259302,76.570323,114.855485,-9475.577496
914.259930,153.140646,248.853550,-9399.007173
914.260557,133.998066,114.855485,-9418.149754
914.261185,133.998066,172.283227,-9418.149754
914.261812,153.140646,191.425808,-9399.007173
914.262440,114.855485,133.998066,-9360.722011
914.263067,133.998066,114.855485,-9418.149754
914.263694,76.570323,172.283227,-9437.292334
914.264322,95.712904,153.140646,-9418.149754
914.264949,95.712904,133.998066,-9379.864592
914.265577,133.998066,114.855485,-9418.149754
914.266204,95.712904,114.855485,-9399.007173
914.266832,38.285162,114.855485,-9418.149754
914.267459,76.570323,114.855485,-9360.722011
914.268087,57.427742,114.855485,-9418.149754
914.268714,133.998066,153.140646,-9418.149754
914.269342,95.712904,172.283227,-9418.149754
914.269969,76.570323,114.855485,-9418.149754
914.270596,153.140646,133.998066,-9399.007173
914.271224,210.568389,133.998066,-9399.007173
914.271851,133.998066,114.855485,-9475.577496
914.272479,133.998066,114.855485,-9418.149754
914.273106,133.998066,114.855485,-9456.434915
914.273734,95.712904,114.855485,-9475.577496
914.274361,95.712904,114.855485,-9437.292334
914.274989,114.855485,95.712904,-9399.007173
914.275616,95.712904,153.140646,-9437.292334
914.276244,133.998066,153.140646,-9399.007173
914.276871,133.998066,114.855485,-9418.149754
914.277498,76.570323,114.855485,-9418.149754
914.278126,95.712904,229.710970,-9475.577496
914.278753,38.285162,172.283227,-9456.434915
914.279381,95.712904,172.283227,-9418.149754
914.280008,95.712904,114.855485,-9418.149754
914.280636,153.140646,210.568389,-9456.434915
914.281263,76.570323,153.140646,-9418.149754
914.281891,133.998066,153.140646,-9418.149754
914.282518,133.998066,210.568389,-9437.292334
914.283146,38.285162,153.140646,-9418.149754
914.283773,76.570323,114.855485,-9475.577496
914.284400,76.570323,114.855485,-9437.292334
914.285028,76.570323,172.283227,-9456.434915
914.285655,76.570323,210.568389,-9418.149754
914.286283,38.285162,210.568389,-9418.149754
914.286910,133.998066,210.568389,-9418.149754
914.287538,76.570323,153.140646,-9418.149754
914.288165,133.998066,114.855485,-9437.292334
914.288793,133.998066,210.568389,-9475.577496
914.289420,133.998066,153.140646,-9418.149754
914.290048,133.998066,172.283227,-9418.149754
914.290675,133.998066,114.855485,-9360.722011
914.291302,76.570323,153.140646,-9418.149754
914.291930,95.712904,95.712904,-9399.007173
914.292557,133.998066,172.283227,-9437.292334
914.293185,153.140646,172.283227,-9494.720077
914.293812,153.140646,248.853550,-9399.007173
914.294440,133.998066,191.425808,-9418.149754
914.295067,76.570323,153.140646,-9475.577496
914.295695,76.570323,114.855485,-9437.292334
914.296322,76.570323,210.568389,-9437.292334
914.296950,133.998066,210.568389,-9418.149754
914.297577,76.570323,172.283227,-9456.434915
914.298204,133.998066,114.855485,-9437.292334
914.298832,153.140646,191.425808,-9399.007173
914.299459,76.570323,210.568389,-9418.149754
914.300087,38.285162,229.710970,-9418.149754
914.300714,57.427742,153.140646,-9418.149754
914.301342,133.998066,114.855485,-9418.149754
914.301969,153.140646,133.998066,-9456.434915
914.302597,133.998066,133.998066,-9399.007173
914.303224,133.998066,114.855485,-9456.434915
914.303852,133.998066,114.855485,-9418.149754
914.304479,38.285162,114.855485,-9456.434915
914.305106,76.570323,114.855485,-9418.149754
914.305734,57.427742,133.998066,-9360.722011
914.306361,133.998066,114.855485,-9418.149754
914.306989,76.570323,172.283227,-9418.149754
914.307616,133.998066,153.140646,-9399.007173
914.308244,38.285162,153.140646,-9418.149754
914.308871,76.570323,114.855485,-9437.292334
914.309498,38.285162,153.140646,-9456.434915
914.310125,133.998066,114.855485,-9437.292334
914.310752,95.712904,153.140646,-9456.434915
914.311379,76.570323,114.855485,-9418.149754
914.312006,57.427742,133.998066,-9418.149754
914.312633,153.140646,133.998066,-9475.577496
914.313260,57.427742,114.855485,-9418.149754
914.313887,38.285162,172.283227,-9418.149754
914.314514,95.712904,114.855485,-9418.149754
914.315141,153.140646,133.998066,-9456.434915
914.315768,133.998066,114.855485,-9418.149754
914.316395,95.712904,95.712904,-9399.007173
914.317022,76.570323,153.140646,-9418.149754
914.317649,38.285162,153.140646,-9360.722011
914.318277,38.285162,153.140646,-9475.577496
914.318904,38.285162,114.855485,-9494.720077
914.319531,76.570323,172.283227,-9475.577496
914.320158,133.998066,172.283227,-9437.292334
914.320785,76.570323,229.710970,-9418.149754
914.321412,76.570323,210.568389,-9418.149754
914.322039,133.998066,114.855485,-9418.149754
914.322666,133.998066,133.998066,-9494.720077
914.323293,76.570323,114.855485,-9437.292334
914.323920,95.712904,76.570323,-9399.007173
914.324547,133.998066,172.283227,-9418.149754
914.325174,76.570323,114.855485,-9437.292334
914.325801,76.570323,114.855485,-9437.292334
914.326428,38.285162,114.855485,-9437.292334
914.327055,133.998066,172.283227,-9456.434915
914.327682,133.998066,172.283227,-9418.149754
914.328309,76.570323,172.283227,-9418.149754
914.328936,76.570323,153.140646,-9418.149754
914.329563,95.712904,95.712904,-9399.007173
914.330190,133.998066,114.855485,-9418.149754
914.330818,172.283227,95.712904,-9456.434915
914.331445,76.570323,114.855485,-9456.434915
914.332072,133.998066,114.855485,-9418.149754
914.332699,76.570323,153.140646,-9418.149754
914.333326,133.998066,114.855485,-9418.149754
914.333953,57.427742,114.855485,-9399.007173
914.334580,76.570323,114.855485,-9456.434915
914.335207,153.140646,172.283227,-9437.292334
914.335834,95.712904,95.712904,-9437.292334
914.336461,95.712904,95.712904,-9399.007173
914.337088,38.285162,114.855485,-9475.577496
914.337715,95.712904,114.855485,-9399.007173
914.338342,76.570323,153.140646,-9418.149754
914.338969,38.285162,114.855485,-9418.149754
914.339596,76.570323,114.855485,-9418.149754
914.340223,133.998066,114.855485,-9418.149754
914.340850,76.570323,153.140646,-9418.149754
914.341477,133.998066,114.855485,-9418.149754
914.342104,133.998066,229.710970,-9475.577496
914.342731,76.570323,114.855485,-9437.292334
914.343359,95.712904,210.568389,-9418.149754
914.343986,76.570323,210.568389,-9418.149754
914.344613,133.998066,172.283227,-9437.292334
914.345240,133.998066,172.283227,-9399.007173
914.345867,133.998066,153.140646,-9418.149754
914.346494,153.140646,172.283227,-9418.149754
914.347121,76.570323,114.855485,-9418.149754
914.347748,76.570323,172.283227,-9418.149754
914.348375,133.998066,114.855485,-9437.292334
914.349002,76.570323,172.283227,-9456.434915
914.349629,153.140646,153.140646,-9418.149754
914.350256,76.570323,114.855485,-9437.292334
914.350883,76.570323,153.140646,-9437.292334
914.351510,114.855485,95.712904,-9399.007173
914.352137,95.712904,95.712904,-9494.720077
914.352764,133.998066,114.855485,-9418.149754
914.353391,133.998066,114.855485,-9418.149754
914.354018,38.285162,172.283227,-9437.292334
914.354645,57.427742,95.712904,-9475.577496
914.355272,153.140646,133.998066,-9437.292334
914.355900,95.712904,95.712904,-9494.720077
914.356527,38.285162,114.855485,-9456.434915
914.357154,133.998066,114.855485,-9437.292334
914.357781,76.570323,153.140646,-9456.434915
914.358408,76.570323,153.140646,-9360.722011
914.359035,133.998066,153.140646,-9418.149754
914.359662,95.712904,133.998066,-9360.722011
914.360289,114.855485,133.998066,-9360.722011
914.360916,133.998066,114.855485,-9456.434915
914.361543,76.570323,210.568389,-9418.149754
914.362170,133.998066,153.140646,-9418.149754
914.362797,76.570323,114.855485,-9418.149754
914.363424,38.285162,172.283227,-9456.434915
914.364051,114.855485,114.855485,-9399.007173
914.364678,153.140646,133.998066,-9456.434915
914.365305,76.570323,172.283227,-9418.149754
914.365932,76.570323,114.855485,-9437.292334
914.366559,38.285162,114.855485,-9456.434915
914.367186,133.998066,153.140646,-9418.149754
914.367813,133.998066,191.425808,-9399.007173
914.368441,133.998066,210.568389,-9533.005238
914.369068,133.998066,172.283227,-9456.434915
914.369695,95.712904,172.283227,-9456.434915
914.370322,133.998066,114.855485,-9437.292334
914.370949,114.855485,133.998066,-9418.149754
914.371576,76.570323,114.855485,-9456.434915
914.372203,133.998066,210.568389,-9418.149754
914.372830,133.998066,114.855485,-9418.149754
914.373457,133.998066,114.855485,-9456.434915
914.374084,133.998066,153.140646,-9418.149754
914.374711,114.855485,133.998066,-9418.149754
914.375338,133.998066,114.855485,-9437.292334
914.375965,133.998066,133.998066,-9494.720077
914.376592,38.285162,172.283227,-9456.434915
914.377219,76.570323,114.855485,-9418.149754
914.377846,76.570323,153.140646,-9418.149754
914.378473,133.998066,114.855485,-9418.149754
914.379100,133.998066,153.140646,-9475.577496
914.379727,133.998066,153.140646,-9437.292334
914.380354,133.998066,114.855485,-9418.149754
914.380981,57.427742,172.283227,-9418.149754
914.381609,133.998066,114.855485,-9418.149754
914.382236,38.285162,210.568389,-9418.149754
914.382863,76.570323,153.140646,-9418.149754
914.383490,133.998066,153.140646,-9437.292334
914.384117,38.285162,114.855485,-9456.434915
914.384744,133.998066,114.855485,-9418.149754
914.385371,133.998066,114.855485,-9418.149754
914.385998,114.855485,133.998066,-9360.722011
914.386625,133.998066,210.568389,-9437.292334
914.387252,133.998066,153.140646,-9456.434915
914.387879,76.570323,172.283227,-9418.149754
914.388506,114.855485,153.140646,-9360.722011
914.389133,114.855485,172.283227,-9360.722011
914.389760,76.570323,172.283227,-9418.149754
914.390387,133.998066,172.283227,-9418.149754
914.391014,133.998066,210.568389,-9418.149754
914.391641,133.998066,114.855485,-9456.434915
914.392268,95.712904,95.712904,-9456.434915
914.392895,133.998066,172.283227,-9475.577496
914.393522,76.570323,114.855485,-9418.149754
914.394150,38.285162,114.855485,-9456.434915
914.394777,114.855485,153.140646,-9360.722011
914.395404,133.998066,172.283227,-9418.149754
914.396031,76.570323,210.568389,-9456.434915
914.396658,133.998066,153.140646,-9437.292334
914.397285,133.998066,114.855485,-9418.149754
914.397912,76.570323,95.712904,-9399.007173
914.398539,133.998066,153.140646,-9456.434915
914.399166,38.285162,114.855485,-9456.434915
914.399793,76.570323,114.855485,-9418.149754
914.400420,38.285162,114.855485,-9437.292334
914.401047,57.427742,114.855485,-9437.292334
914.401674,95.712904,210.568389,-9418.149754
914.402301,95.712904,153.140646,-9418.149754
914.402928,76.570323,114.855485,-9475.577496
914.403555,133.998066,114.855485,-9437.292334
914.404182,133.998066,153.140646,-9418.149754
914.404809,172.283227,133.998066,-9418.149754
914.405436,76.570323,114.855485,-9437.292334
914.406063,38.285162,153.140646,-9418.149754
914.406691,38.285162,114.855485,-9437.292334
914.407318,133.998066,114.855485,-9418.149754
914.407945,153.140646,172.283227,-9399.007173
914.408572,114.855485,133.998066,-9360.722011
914.409199,133.998066,114.855485,-9418.149754
914.409826,133.998066,172.283227,-9475.577496
914.410454,38.285162,153.140646,-9418.149754
914.411081,133.998066,133.998066,-9399.007173
914.411709,133.998066,172.283227,-9418.149754
914.412336,38.285162,210.568389,-9437.292334
914.412963,76.570323,114.855485,-9418.149754
914.413591,133.998066,114.855485,-9437.292334
914.414218,76.570323,114.855485,-9437.292334
914.414846,95.712904,95.712904,-9399.007173
914.415473,153.140646,133.998066,-9399.007173
914.416100,38.285162,114.855485,-9437.292334
914.416728,153.140646,133.998066,-9456.434915
914.417355,95.712904,133.998066,-9360.722011
914.417982,57.427742,95.712904,-9494.720077
914.418610,133.998066,133.998066,-9399.007173
914.419237,133.998066,172.283227,-9399.007173
914.419865,76.570323,114.855485,-9456.434915
914.420492,114.855485,95.712904,-9399.007173
914.421119,76.570323,172.283227,-9418.149754
914.421747,57.427742,153.140646,-9360.722011
914.422374,133.998066,153.140646,-9418.149754
914.423002,133.998066,114.855485,-9437.292334
914.423629,38.285162,153.140646,-9437.292334
914.424256,172.283227,76.570323,-9418.149754
914.424884,133.998066,210.568389,-9456.434915
914.425511,133.998066,210.568389,-9418.149754
914.426138,76.570323,172.283227,-9437.292334
914.426766,114.855485,191.425808,-9360.722011
914.427393,133.998066,172.283227,-9456.434915
914.428021,114.855485,76.570323,-9456.434915
914.428648,95.712904,95.712904,-9399.007173
914.429275,38.285162,114.855485,-9418.149754
914.429903,76.570323,172.283227,-9418.149754
914.430530,114.855485,153.140646,-9360.722011
914.431158,133.998066,210.568389,-9418.149754
914.431785,38.285162,172.283227,-9418.149754
914.432412,76.570323,153.140646,-9418.149754
914.433040,133.998066,153.140646,-9418.149754
914.433667,153.140646,172.283227,-9456.434915
914.434295,76.570323,191.425808,-9418.149754
914.434922,133.998066,210.568389,-9418.149754
914.435549,76.570323,153.140646,-9437.292334
914.436177,57.427742,95.712904,-9399.007173
914.436804,76.570323,114.855485,-9418.149754
914.437431,38.285162,114.855485,-9418.149754
914.438059,133.998066,114.855485,-9418.149754
914.438686,95.712904,95.712904,-9437.292334
914.439314,76.570323,114.855485,-9437.292334
914.439941,153.140646,172.283227,-9456.434915
914.440568,133.998066,191.425808,-9475.577496
914.441196,133.998066,210.568389,-9399.007173
914.441823,76.570323,210.568389,-9418.149754
914.442451,76.570323,114.855485,-9418.149754
914.443078,133.998066,153.140646,-9399.007173
914.443705,133.998066,114.855485,-9418.149754
914.444333,153.140646,191.425808,-9437.292334
914.444960,153.140646,133.998066,-9399.007173
914.445587,133.998066,172.283227,-9418.149754
914.446215,95.712904,172.283227,-9418.149754
914.446842,114.855485,95.712904,-9399.007173
914.447470,95.712904,133.998066,-9360.722011
914.448097,133.998066,114.855485,-9418.149754
914.448724,133.998066,114.855485,-9418.149754
914.449352,133.998066,133.998066,-9399.007173
914.449979,76.570323,153.140646,-9418.149754
914.450607,95.712904,114.855485,-9399.007173
914.451234,133.998066,114.855485,-9456.434915
914.451861,76.570323,114.855485,-9475.577496
914.452489,76.570323,210.568389,-9456.434915
914.453116,76.570323,153.140646,-9418.149754
914.453743,38.285162,114.855485,-9418.149754
914.454371,38.285162,114.855485,-9437.292334
914.454998,76.570323,114.855485,-9418.149754
914.455626,76.570323,114.855485,-9418.149754
914.456253,38.285162,153.140646,-9418.149754
914.456880,38.285162,114.855485,-9437.292334
914.457508,38.285162,114.855485,-9437.292334
914.458135,95.712904,114.855485,-9437.292334
914.458763,76.570323,172.283227,-9418.149754
914.459390,38.285162,153.140646,-9418.149754
914.460017,76.570323,172.283227,-9437.292334
914.460645,133.998066,210.568389,-9456.434915
914.461272,114.855485,191.425808,-9418.149754
914.461899,38.285162,172.283227,-9437.292334
914.462527,38.285162,114.855485,-9418.149754
914.463154,76.570323,153.140646,-9456.434915
914.463782,19.142581,153.140646,-9418.149754
914.464409,76.570323,114.855485,-9456.434915
914.465036,38.285162,114.855485,-9437.292334
914.465664,38.285162,114.855485,-9418.149754
914.466291,57.427742,114.855485,-9418.149754
914.466919,133.998066,153.140646,-9418.149754
914.467546,114.855485,95.712904,-9456.434915
914.468173,114.855485,95.712904,-9399.007173
914.468801,38.285162,172.283227,-9418.149754
914.469428,38.285162,153.140646,-9456.434915
914.470056,172.283227,114.855485,-9513.862658
914.470683,133.998066,114.855485,-9418.149754
914.471310,133.998066,133.998066,-9437.292334
914.471938,133.998066,114.855485,-9437.292334
914.472565,76.570323,153.140646,-9418.149754
914.473192,38.285162,172.283227,-9494.720077
914.473820,95.712904,114.855485,-9418.149754
914.474447,114.855485,114.855485,-9379.864592
914.475075,114.855485,153.140646,-9360.722011
914.475702,76.570323,153.140646,-9418.149754
914.476329,76.570323,114.855485,-9418.149754
914.476957,38.285162,153.140646,-9418.149754
914.477584,153.140646,133.998066,-9399.007173
914.478212,76.570323,172.283227,-9456.434915
914.478839,76.570323,172.283227,-9418.149754
914.479466,76.570323,114.855485,-9418.149754
914.480094,133.998066,153.140646,-9475.577496
914.480721,38.285162,172.283227,-9475.577496
914.481348,38.285162,172.283227,-9475.577496
914.481976,133.998066,210.568389,-9456.434915
914.482603,133.998066,172.283227,-9456.434915
914.483231,76.570323,153.140646,-9418.149754
914.483858,95.712904,172.283227,-9360.722011
914.484485,76.570323,153.140646,-9437.292334
914.485113,133.998066,114.855485,-9418.149754
914.485740,133.998066,153.140646,-9418.149754
914.486368,38.285162,114.855485,-9418.149754
914.486995,133.998066,114.855485,-9418.149754
914.487622,133.998066,172.283227,-9418.149754
914.488250,57.427742,153.140646,-9475.577496
914.488877,210.568389,133.998066,-9456.434915
914.489504,76.570323,114.855485,-9418.149754
914.490132,133.998066,114.855485,-9456.434915
914.490759,76.570323,114.855485,-9418.149754
914.491387,76.570323,172.283227,-9418.149754
914.492014,38.285162,114.855485,-9456.434915
914.492641,76.570323,172.283227,-9418.149754
914.493269,76.570323,153.140646,-9456.434915
914.493896,133.998066,133.998066,-9399.007173
914.494524,133.998066,153.140646,-9418.149754
914.495151,95.712904,191.425808,-9418.149754
914.495778,133.998066,153.140646,-9418.149754
914.496406,38.285162,114.855485,-9437.292334
914.497033,95.712904,172.283227,-9475.577496
914.497661,114.855485,172.283227,-9360.722011
914.498288,76.570323,172.283227,-9418.149754
914.498915,153.140646,172.283227,-9418.149754
914.499543,133.998066,172.283227,-9399.007173
914.500170,76.570323,114.855485,-9418.149754
914.500797,76.570323,114.855485,-9456.434915
914.501425,57.427742,133.998066,-9360.722011
914.502052,114.855485,133.998066,-9360.722011
914.502680,114.855485,191.425808,-9360.722011
914.503307,95.712904,153.140646,-9418.149754
914.503934,133.998066,172.283227,-9418.149754
914.504562,76.570323,114.855485,-9437.292334
914.505189,133.998066,114.855485,-9418.149754
914.505817,114.855485,95.712904,-9399.007173
914.506444,76.570323,172.283227,-9418.149754
914.507071,76.570323,114.855485,-9418.149754
914.507699,76.570323,153.140646,-9418.149754
914.508326,76.570323,153.140646,-9418.149754
914.508953,153.140646,133.998066,-9399.007173
914.509581,76.570323,153.140646,-9475.577496
914.510208,76.570323,114.855485,-9418.149754
914.510835,95.712904,114.855485,-9437.292334
914.511462,38.285162,210.568389,-9418.149754
914.512089,95.712904,172.283227,-9418.149754
914.512717,133.998066,114.855485,-9456.434915
914.513344,76.570323,114.855485,-9475.577496
914.513971,76.570323,114.855485,-9418.149754
914.514598,133.998066,210.568389,-9418.149754
914.515225,114.855485,133.998066,-9360.722011
914.515853,133.998066,191.425808,-9418.149754
914.516480,38.285162,114.855485,-9475.577496
914.517107,133.998066,153.140646,-9456.434915
914.517734,38.285162,114.855485,-9475.577496
914.518361,38.285162,114.855485,-9437.292334
914.518989,133.998066,153.140646,-9418.149754
914.519616,76.570323,153.140646,-9418.149754
914.520243,38.285162,114.855485,-9418.149754
914.520870,76.570323,210.568389,-9399.007173
914.521497,133.998066,210.568389,-9418.149754
914.522125,133.998066,210.568389,-9418.149754
914.522752,76.570323,172.283227,-9418.149754
914.523379,76.570323,153.140646,-9418.149754
914.524006,133.998066,172.283227,-9437.292334
914.524633,76.570323,210.568389,-9456.434915
914.525261,76.570323,229.710970,-9418.149754
914.525888,133.998066,210.568389,-9418.149754
914.526515,95.712904,114.855485,-9456.434915
914.527142,76.570323,153.140646,-9437.292334
914.527769,95.712904,114.855485,-9418.149754
914.528397,76.570323,114.855485,-9494.720077
914.529024,133.998066,114.855485,-9418.149754
914.529651,76.570323,114.855485,-9418.149754
914.530278,38.285162,114.855485,-9494.720077
914.530905,133.998066,114.855485,-9437.292334
914.531533,76.570323,172.283227,-9456.434915
914.532160,38.285162,114.855485,-9418.149754
914.532787,38.285162,114.855485,-9418.149754
914.533414,133.998066,114.855485,-9418.149754
914.534041,153.140646,133.998066,-9399.007173
914.534669,114.855485,76.570323,-9418.149754
914.535296,76.570323,191.425808,-9437.292334
914.535923,114.855485,95.712904,-9437.292334
914.536550,76.570323,191.425808,-9437.292334
914.537177,76.570323,114.855485,-9418.149754
914.537805,38.285162,114.855485,-9418.149754
914.538432,38.285162,114.855485,-9437.292334
914.539059,76.570323,153.140646,-9418.149754
914.539686,153.140646,133.998066,-9456.434915
914.540313,38.285162,114.855485,-9418.149754
914.540941,57.427742,95.712904,-9399.007173
914.541568,57.427742,114.855485,-9399.007173
914.542195,133.998066,114.855485,-9418.149754
914.542822,153.140646,191.425808,-9399.007173
914.543449,133.998066,210.568389,-9418.149754
914.544077,76.570323,191.425808,-9360.722011
914.544704,133.998066,114.855485,-9475.577496
914.545331,76.570323,210.568389,-9418.149754
914.545958,76.570323,114.855485,-9418.149754
914.546585,153.140646,172.283227,-9399.007173
914.547213,133.998066,210.568389,-9418.149754
914.547840,133.998066,172.283227,-9418.149754
914.548467,76.570323,210.568389,-9456.434915
914.549094,57.427742,191.425808,-9360.722011
914.549721,95.712904,114.855485,-9456.434915
914.550349,38.285162,114.855485,-9418.149754
914.550976,133.998066,191.425808,-9437.292334
914.551603,76.570323,210.568389,-9418.149754
914.552230,153.140646,172.283227,-9437.292334
914.552857,114.855485,191.425808,-9360.722011
914.553485,76.570323,114.855485,-9418.149754
914.554112,38.285162,114.855485,-9437.292334
914.554739,114.855485,95.712904,-9437.292334
914.555366,133.998066,153.140646,-9456.434915
914.555993,153.140646,133.998066,-9437.292334
914.556621,114.855485,153.140646,-9360.722011
914.557248,76.570323,210.568389,-9418.149754
914.557875,76.570323,172.283227,-9437.292334
914.558502,76.570323,172.283227,-9418.149754
914.559129,114.855485,95.712904,-9379.864592
914.559757,172.283227,76.570323,-9418.149754
914.560384,133.998066,172.283227,-9418.149754
914.561011,153.140646,210.568389,-9399.007173
914.561638,57.427742,153.140646,-9418.149754
914.562265,38.285162,153.140646,-9437.292334
914.562893,76.570323,114.855485,-9456.434915
914.563520,38.285162,114.855485,-9418.149754
914.564147,76.570323,172.283227,-9360.722011
914.564774,57.427742,133.998066,-9360.722011
914.565401,133.998066,210.568389,-9418.149754
914.566029,133.998066,153.140646,-9418.149754
914.566656,153.140646,172.283227,-9437.292334
914.567283,133.998066,114.855485,-9456.434915
914.567910,38.285162,153.140646,-9418.149754
914.568537,-38.285162,133.998066,-9399.007173
914.569165,133.998066,114.855485,-9494.720077
914.569792,133.998066,172.283227,-9456.434915
914.570419,95.712904,95.712904,-9399.007173
914.571046,133.998066,114.855485,-9418.149754
914.571673,76.570323,172.283227,-9437.292334
914.572301,114.855485,95.712904,-9437.292334
914.572928,133.998066,210.568389,-9456.434915
914.573555,133.998066,114.855485,-9437.292334
914.574182,133.998066,172.283227,-9399.007173
914.574809,76.570323,95.712904,-9399.007173
914.575437,114.855485,133.998066,-9360.722011
914.576064,133.998066,153.140646,-9418.149754
914.576691,38.285162,114.855485,-9418.149754
914.577318,57.427742,153.140646,-9360.722011
914.577945,95.712904,114.855485,-9418.149754
914.578573,95.712904,95.712904,-9399.007173
914.579200,76.570323,114.855485,-9418.149754
914.579827,57.427742,133.998066,-9341.579430
914.580454,19.142581,172.283227,-9418.149754
914.581081,76.570323,172.283227,-9418.149754
914.581709,133.998066,172.283227,-9418.149754
914.582336,153.140646,210.568389,-9437.292334
914.582963,153.140646,153.140646,-9399.007173
914.583590,76.570323,114.855485,-9418.149754
914.584217,76.570323,114.855485,-9418.149754
914.584845,133.998066,114.855485,-9494.720077
914.585472,133.998066,114.855485,-9475.577496
914.586099,76.570323,172.283227,-9418.149754
914.586726,95.712904,114.855485,-9418.149754
914.587353,133.998066,114.855485,-9494.720077
914.587981,57.427742,114.855485,-9418.149754
914.588608,133.998066,153.140646,-9418.149754
914.589235,153.140646,133.998066,-9456.434915
914.589862,114.855485,191.425808,-9456.434915
914.590489,76.570323,210.568389,-9418.149754
914.591117,114.855485,172.283227,-9418.149754
914.591744,38.285162,114.855485,-9418.149754
914.592371,95.712904,153.140646,-9418.149754
914.592998,38.285162,114.855485,-9437.292334
914.593625,76.570323,210.568389,-9418.149754
914.594253,114.855485,133.998066,-9360.722011
914.594880,133.998066,114.855485,-9418.149754
914.595507,133.998066,210.568389,-9418.149754
914.596134,76.570323,172.283227,-9418.149754
914.596761,133.998066,114.855485,-9418.149754
914.597389,76.570323,114.855485,-9418.149754
914.598016,38.285162,210.568389,-9418.149754
914.598643,76.570323,153.140646,-9475.577496
914.599270,76.570323,153.140646,-9456.434915
914.599897,38.285162,114.855485,-9494.720077
914.600525,76.570323,133.998066,-9360.722011
914.601152,133.998066,114.855485,-9456.434915
914.601779,76.570323,114.855485,-9475.577496
914.602406,76.570323,153.140646,-9456.434915
914.603033,172.283227,76.570323,-9418.149754
914.603661,95.712904,172.283227,-9360.722011
914.604288,114.855485,95.712904,-9399.007173
914.604915,153.140646,153.140646,-9399.007173
914.605542,133.998066,172.283227,-9437.292334
914.606169,133.998066,153.140646,-9418.149754
914.606797,76.570323,114.855485,-9475.577496
914.607424,133.998066,210.568389,-9418.149754
914.608051,133.998066,114.855485,-9418.149754
914.608678,133.998066,114.855485,-9418.149754
914.609305,114.855485,95.712904,-9399.007173
914.609932,76.570323,153.140646,-9418.149754
914.610559,76.570323,114.855485,-9418.149754
914.611187,76.570323,114.855485,-9418.149754
914.611814,76.570323,95.712904,-9399.007173
914.612441,76.570323,114.855485,-9418.149754
914.613068,76.570323,133.998066,-9418.149754
914.613695,76.570323,114.855485,-9437.292334
914.614322,133.998066,172.283227,-9437.292334
914.614949,133.998066,172.283227,-9494.720077
914.615576,153.140646,114.855485,-9418.149754
914.616203,133.998066,114.855485,-9437.292334
914.616830,76.570323,153.140646,-9360.722011
914.617457,172.283227,114.855485,-9379.864592
914.618084,133.998066,114.855485,-9418.149754
914.618711,76.570323,114.855485,-9399.007173
914.619338,95.712904,114.855485,-9418.149754
914.619965,38.285162,114.855485,-9418.149754
914.620592,95.712904,114.855485,-9399.007173
914.621219,38.285162,114.855485,-9418.149754
914.621846,38.285162,229.710970,-9418.149754
914.622473,38.285162,172.283227,-9437.292334
914.623100,133.998066,114.855485,-9437.292334
914.623727,76.570323,172.283227,-9437.292334
914.624355,133.998066,153.140646,-9418.149754
914.624982,76.570323,114.855485,-9418.149754
914.625609,95.712904,133.998066,-9360.722011
914.626236,114.855485,95.712904,-9399.007173
914.626863,133.998066,153.140646,-9418.149754
914.627490,76.570323,114.855485,-9418.149754
914.628117,38.285162,210.568389,-9456.434915
914.628744,133.998066,210.568389,-9437.292334
914.629371,76.570323,153.140646,-9418.149754
914.629998,76.570323,210.568389,-9418.149754
914.630625,133.998066,114.855485,-9437.292334
914.631252,133.998066,172.283227,-9418.149754
914.631879,76.570323,153.140646,-9475.577496
914.632506,38.285162,114.855485,-9418.149754
914.633133,76.570323,172.283227,-9418.149754
914.633760,76.570323,114.855485,-9418.149754
914.634387,76.570323,114.855485,-9437.292334
914.635014,76.570323,114.855485,-9418.149754
914.635641,38.285162,153.140646,-9418.149754
914.636268,76.570323,210.568389,-9418.149754
914.636895,133.998066,191.425808,-9475.577496
914.637523,76.570323,114.855485,-9418.149754
914.638150,95.712904,172.283227,-9437.292334
914.638777,133.998066,114.855485,-9437.292334
914.639404,153.140646,133.998066,-9399.007173
914.640031,153.140646,153.140646,-9399.007173
914.640658,172.283227,114.855485,-9379.864592
914.641285,133.998066,114.855485,-9437.292334
914.641912,95.712904,114.855485,-9494.720077
914.642539,133.998066,210.568389,-9533.005238
914.643166,76.570323,153.140646,-9494.720077
914.643793,76.570323,172.283227,-9418.149754
914.644420,133.998066,172.283227,-9418.149754
914.645047,76.570323,153.140646,-9418.149754
914.645674,76.570323,114.855485,-9418.149754
914.646301,38.285162,114.855485,-9533.005238
914.646928,114.855485,95.712904,-9399.007173
914.647555,114.855485,210.568389,-9418.149754
914.648182,76.570323,172.283227,-9418.149754
914.648809,38.285162,210.568389,-9437.292334
914.649436,38.285162,153.140646,-9475.577496
914.650064,133.998066,114.855485,-9418.149754
914.650691,76.570323,114.855485,-9418.149754
914.651318,133.998066,114.855485,-9418.149754
914.651945,76.570323,114.855485,-9437.292334
914.652572,76.570323,114.855485,-9475.577496
914.653199,133.998066,114.855485,-9456.434915
914.653826,133.998066,210.568389,-9456.434915
914.654453,114.855485,133.998066,-9360.722011
914.655080,210.568389,133.998066,-9456.434915
914.655707,57.427742,114.855485,-9456.434915
914.656334,114.855485,153.140646,-9360.722011
914.656961,133.998066,210.568389,-9418.149754
914.657588,38.285162,114.855485,-9437.292334
914.658215,76.570323,114.855485,-9418.149754
914.658842,76.570323,114.855485,-9418.149754
914.659469,76.570323,114.855485,-9418.149754
914.660096,76.570323,210.568389,-9437.292334
914.660723,133.998066,153.140646,-9418.149754
914.661350,38.285162,114.855485,-9418.149754
914.661977,133.998066,114.855485,-9418.149754
914.662604,153.140646,210.568389,-9399.007173
914.663232,133.998066,153.140646,-9418.149754
914.663859,172.283227,172.283227,-9399.007173
914.664486,133.998066,114.855485,-9456.434915
914.665113,95.712904,153.140646,-9456.434915
914.665740,153.140646,133.998066,-9399.007173
914.666367,57.427742,95.712904,-9399.007173
914.666994,38.285162,172.283227,-9418.149754
914.667621,19.142581,114.855485,-9437.292334
914.668248,95.712904,133.998066,-9360.722011
914.668875,114.855485,76.570323,-9437.292334
914.669502,133.998066,114.855485,-9418.149754
914.670129,76.570323,114.855485,-9418.149754
914.670756,76.570323,114.855485,-9418.149754
914.671383,114.855485,114.855485,-9379.864592
914.672010,95.712904,95.712904,-9456.434915
914.672637,76.570323,172.283227,-9418.149754
914.673264,133.998066,172.283227,-9456.434915
914.673891,114.855485,95.712904,-9399.007173
914.674518,57.427742,172.283227,-9360.722011
914.675145,133.998066,210.568389,-9456.434915
914.675773,76.570323,172.283227,-9418.149754
914.676400,38.285162,172.283227,-9418.149754
914.677027,76.570323,210.568389,-9456.434915
914.677654,133.998066,210.568389,-9437.292334
914.678281,133.998066,133.998066,-9399.007173
914.678908,76.570323,172.283227,-9360.722011
914.679535,76.570323,114.855485,-9418.149754
914.680162,133.998066,114.855485,-9437.292334
914.680789,76.570323,114.855485,-9418.149754
914.681416,133.998066,114.855485,-9418.149754
914.682043,153.140646,153.140646,-9456.434915
914.682670,76.570323,210.568389,-9456.434915
914.683297,76.570323,114.855485,-9418.149754
914.683924,57.427742,95.712904,-9399.007173
914.684551,38.285162,153.140646,-9418.149754
914.685178,133.998066,172.283227,-9418.149754
914.685805,95.712904,191.425808,-9360.722011
914.686432,95.712904,210.568389,-9418.149754
914.687059,76.570323,172.283227,-9418.149754
914.687686,133.998066,114.855485,-9418.149754
914.688313,57.427742,95.712904,-9399.007173
914.688941,133.998066,114.855485,-9418.149754
914.689568,153.140646,191.425808,-9456.434915
914.690195,95.712904,133.998066,-9360.722011
914.690822,76.570323,172.283227,-9456.434915
914.691449,76.570323,114.855485,-9437.292334
914.692076,76.570323,114.855485,-9418.149754
914.692703,95.712904,172.283227,-9533.005238
914.693330,133.998066,114.855485,-9456.434915
914.693957,133.998066,172.283227,-9456.434915
914.694584,133.998066,133.998066,-9456.434915
914.695211,95.712904,153.140646,-9360.722011
914.695838,76.570323,172.283227,-9494.720077
914.696465,133.998066,210.568389,-9418.149754
914.697092,153.140646,133.998066,-9399.007173
914.697719,133.998066,114.855485,-9418.149754
914.698346,114.855485,114.855485,-9379.864592
914.698973,95.712904,133.998066,-9360.722011
914.699600,76.570323,114.855485,-9418.149754
914.700227,95.712904,153.140646,-9437.292334
914.700854,95.712904,114.855485,-9360.722011
914.701481,76.570323,114.855485,-9418.149754
914.702109,133.998066,114.855485,-9456.434915
914.702736,133.998066,153.140646,-9437.292334
914.703363,57.427742,133.998066,-9360.722011
914.703990,38.285162,172.283227,-9456.434915
914.704617,76.570323,114.855485,-9418.149754
914.705244,95.712904,210.568389,-9418.149754
914.705871,133.998066,172.283227,-9418.149754
914.706498,38.285162,114.855485,-9418.149754
914.707125,76.570323,172.283227,-9418.149754
914.707752,38.285162,114.855485,-9418.149754
914.708379,153.140646,133.998066,-9513.862658
914.709006,133.998066,114.855485,-9418.149754
914.709633,76.570323,114.855485,-9418.149754
914.710261,57.427742,95.712904,-9399.007173
914.710888,76.570323,114.855485,-9418.149754
914.711515,153.140646,133.998066,-9456.434915
914.712143,76.570323,114.855485,-9437.292334
914.712770,133.998066,172.283227,-9418.149754
914.713398,133.998066,210.568389,-9418.149754
914.714025,133.998066,114.855485,-9418.149754
914.714652,133.998066,133.998066,-9456.434915
914.715280,95.712904,95.712904,-9456.434915
914.715907,133.998066,114.855485,-9418.149754
914.716535,76.570323,172.283227,-9418.149754
914.717162,76.570323,229.710970,-9418.149754
914.717789,76.570323,153.140646,-9418.149754
914.718417,133.998066,133.998066,-9437.292334
914.719044,76.570323,153.140646,-9418.149754
914.719672,95.712904,191.425808,-9360.722011
914.720299,76.570323,210.568389,-9418.149754
914.720926,57.427742,114.855485,-9437.292334
914.721554,76.570323,114.855485,-9475.577496
914.722181,38.285162,172.283227,-9418.149754
914.722809,133.998066,114.855485,-9456.434915
914.723436,76.570323,114.855485,-9456.434915
914.724064,153.140646,133.998066,-9399.007173
914.724691,95.712904,133.998066,-9341.579430
914.725318,133.998066,114.855485,-9418.149754
914.725946,133.998066,114.855485,-9418.149754
914.726573,76.570323,210.568389,-9418.149754
914.727201,114.855485,133.998066,-9360.722011
914.727828,76.570323,114.855485,-9418.149754
914.728455,133.998066,114.855485,-9418.149754
914.729083,38.285162,114.855485,-9418.149754
914.729710,133.998066,172.283227,-9418.149754
914.730338,95.712904,114.855485,-9418.149754
914.730965,95.712904,133.998066,-9360.722011
914.731592,133.998066,153.140646,-9418.149754
914.732220,95.712904,133.998066,-9360.722011
914.732847,76.570323,172.283227,-9418.149754
914.733475,133.998066,114.855485,-9418.149754
914.734102,133.998066,210.568389,-9418.149754
914.734729,172.283227,114.855485,-9379.864592
914.735357,133.998066,114.855485,-9418.149754
914.735984,133.998066,172.283227,-9475.577496
914.736612,153.140646,172.283227,-9494.720077
914.737239,133.998066,114.855485,-9418.149754
914.737867,133.998066,114.855485,-9418.149754
914.738494,133.998066,114.855485,-9437.292334
914.739121,133.998066,172.283227,-9418.149754
914.739749,76.570323,114.855485,-9418.149754
914.740376,38.285162,210.568389,-9418.149754
914.741004,38.285162,210.568389,-9418.149754
914.741631,133.998066,172.283227,-9418.149754
914.742258,133.998066,153.140646,-9418.149754
914.742886,95.712904,133.998066,-9360.722011
914.743513,76.570323,114.855485,-9360.722011
914.744141,57.427742,172.283227,-9360.722011
914.744768,95.712904,133.998066,-9360.722011
914.745395,57.427742,95.712904,-9456.434915
914.746023,76.570323,191.425808,-9418.149754
914.746650,38.285162,153.140646,-9418.149754
914.747278,38.285162,114.855485,-9437.292334
914.747905,57.427742,153.140646,-9360.722011
914.748532,153.140646,191.425808,-9399.007173
914.749160,133.998066,210.568389,-9418.149754
914.749787,133.998066,114.855485,-9437.292334
914.750415,76.570323,114.855485,-9418.149754
914.751042,133.998066,114.855485,-9437.292334
914.751670,95.712904,153.140646,-9418.149754
914.752297,95.712904,133.998066,-9360.722011
914.752924,57.427742,172.283227,-9418.149754
914.753552,95.712904,114.855485,-9418.149754
914.754179,153.140646,133.998066,-9399.007173
914.754807,133.998066,133.998066,-9437.292334
914.755434,133.998066,172.283227,-9418.149754
914.756061,76.570323,210.568389,-9418.149754
914.756689,95.712904,210.568389,-9418.149754
914.757316,76.570323,114.855485,-9418.149754
914.757944,133.998066,172.283227,-9437.292334
914.758571,133.998066,114.855485,-9475.577496
914.759198,133.998066,114.855485,-9418.149754
914.759826,133.998066,114.855485,-9360.722011
914.760453,95.712904,95.712904,-9399.007173
914.761081,114.855485,95.712904,-9399.007173
914.761708,133.998066,191.425808,-9418.149754
914.762335,95.712904,114.855485,-9494.720077
914.762963,76.570323,114.855485,-9475.577496
914.763590,38.285162,114.855485,-9437.292334
914.764218,95.712904,172.283227,-9418.149754
914.764845,133.998066,191.425808,-9418.149754
914.765472,172.283227,114.855485,-9379.864592
914.766100,153.140646,191.425808,-9399.007173
914.766727,153.140646,172.283227,-9399.007173
914.767355,133.998066,114.855485,-9437.292334
914.767982,133.998066,153.140646,-9456.434915
914.768610,153.140646,133.998066,-9399.007173
914.769237,133.998066,114.855485,-9418.149754
914.769864,38.285162,114.855485,-9475.577496
914.770492,76.570323,114.855485,-9437.292334
914.771119,38.285162,114.855485,-9418.149754
914.771747,76.570323,114.855485,-9418.149754
914.772374,133.998066,172.283227,-9418.149754
914.773001,153.140646,210.568389,-9399.007173
914.773629,210.568389,172.283227,-9456.434915
914.774256,133.998066,114.855485,-9418.149754
914.774884,133.998066,153.140646,-9418.149754
914.775511,133.998066,172.283227,-9418.149754
914.776138,95.712904,114.855485,-9418.149754
914.776766,57.427742,114.855485,-9418.149754
914.777393,38.285162,172.283227,-9418.149754
914.778021,76.570323,172.283227,-9475.577496
914.778648,133.998066,114.855485,-9475.577496
914.779275,57.427742,95.712904,-9399.007173
914.779903,133.998066,229.710970,-9418.149754
914.780530,38.285162,172.283227,-9418.149754
914.781158,133.998066,210.568389,-9418.149754
914.781785,133.998066,114.855485,-9475.577496
914.782413,133.998066,114.855485,-9418.149754
914.783040,95.712904,114.855485,-9418.149754
914.783667,95.712904,114.855485,-9418.149754
914.784295,133.998066,133.998066,-9399.007173
914.784922,38.285162,114.855485,-9418.149754
914.785550,38.285162,114.855485,-9418.149754
914.786177,153.140646,133.998066,-9437.292334
914.786804,76.570323,172.283227,-9418.149754
914.787432,133.998066,229.710970,-9418.149754
914.788059,38.285162,210.568389,-9437.292334
914.788687,76.570323,210.568389,-9418.149754
914.789314,133.998066,172.283227,-9475.577496
914.789941,95.712904,191.425808,-9360.722011
914.790569,38.285162,114.855485,-9533.005238
914.791196,76.570323,172.283227,-9418.149754
914.791824,76.570323,153.140646,-9418.149754
914.792451,76.570323,172.283227,-9418.149754
914.793078,172.283227,76.570323,-9418.149754
914.793706,133.998066,114.855485,-9418.149754
914.794333,133.998066,172.283227,-9418.149754
914.794961,76.570323,114.855485,-9456.434915
914.795588,76.570323,210.568389,-9418.149754
914.796216,76.570323,172.283227,-9418.149754
914.796843,38.285162,114.855485,-9418.149754
914.797470,76.570323,114.855485,-9418.149754
914.798098,114.855485,95.712904,-9399.007173
914.798725,133.998066,153.140646,-9456.434915
914.799353,153.140646,114.855485,-9418.149754
914.799980,153.140646,153.140646,-9456.434915
914.800607,133.998066,210.568389,-9456.434915
914.801235,133.998066,114.855485,-9475.577496
914.801862,133.998066,114.855485,-9418.149754
914.802490,133.998066,114.855485,-9494.720077
914.803117,76.570323,114.855485,-9437.292334
914.803744,76.570323,114.855485,-9360.722011
914.804372,38.285162,114.855485,-9456.434915
914.804999,95.712904,95.712904,-9399.007173
914.805627,76.570323,153.140646,-9475.577496
914.806254,76.570323,172.283227,-9418.149754
914.806881,153.140646,229.710970,-9437.292334
914.807509,76.570323,114.855485,-9418.149754
914.808136,76.570323,153.140646,-9418.149754
914.808764,133.998066,210.568389,-9456.434915
914.809391,133.998066,114.855485,-9418.149754
914.810019,133.998066,114.855485,-9418.149754
914.810646,133.998066,229.710970,-9418.149754
914.811273,38.285162,114.855485,-9418.149754
914.811901,95.712904,133.998066,-9360.722011
914.812528,133.998066,153.140646,-9437.292334
914.813155,153.140646,133.998066,-9399.007173
914.813783,133.998066,114.855485,-9418.149754
914.814410,133.998066,153.140646,-9399.007173
914.815038,76.570323,153.140646,-9418.149754
914.815665,57.427742,133.998066,-9360.722011
914.816292,76.570323,114.855485,-9418.149754
914.816920,76.570323,114.855485,-9437.292334
914.817547,76.570323,114.855485,-9418.149754
914.818175,76.570323,114.855485,-9437.292334
914.818802,76.570323,114.855485,-9533.005238
914.819429,114.855485,133.998066,-9360.722011
914.820057,133.998066,114.855485,-9456.434915
914.820684,76.570323,153.140646,-9418.149754
914.821311,153.140646,153.140646,-9437.292334
914.821939,153.140646,133.998066,-9494.720077
914.822566,38.285162,153.140646,-9533.005238
914.823194,57.427742,95.712904,-9399.007173
914.823821,38.285162,172.283227,-9418.149754
914.824448,133.998066,210.568389,-9418.149754
914.825076,76.570323,172.283227,-9418.149754
914.825703,38.285162,210.568389,-9418.149754
914.826331,133.998066,114.855485,-9418.149754
914.826958,133.998066,133.998066,-9379.864592
914.827585,114.855485,95.712904,-9513.862658
914.828213,95.712904,95.712904,-9437.292334
914.828840,153.140646,133.998066,-9399.007173
914.829467,19.142581,114.855485,-9475.577496
914.830095,76.570323,153.140646,-9456.434915
914.830722,133.998066,172.283227,-9456.434915
914.831350,38.285162,153.140646,-9456.434915
914.831977,133.998066,114.855485,-9418.149754
914.832604,153.140646,95.712904,-9360.722011
914.833232,76.570323,114.855485,-9418.149754
914.833859,76.570323,114.855485,-9418.149754
914.834487,114.855485,95.712904,-9456.434915
914.835114,76.570323,114.855485,-9456.434915
914.835741,76.570323,153.140646,-9475.577496
914.836369,95.712904,114.855485,-9418.149754
914.836996,133.998066,114.855485,-9475.577496
914.837623,133.998066,114.855485,-9456.434915
914.838251,95.712904,114.855485,-9418.149754
914.838878,76.570323,76.570323,-9379.864592
914.839506,76.570323,114.855485,-9418.149754
914.840133,133.998066,172.283227,-9437.292334
914.840760,76.570323,114.855485,-9456.434915
914.841388,38.285162,172.283227,-9456.434915
914.842015,95.712904,210.568389,-9418.149754
914.842643,133.998066,191.425808,-9456.434915
914.843270,133.998066,172.283227,-9418.149754
914.843897,76.570323,153.140646,-9418.149754
914.844525,133.998066,153.140646,-9418.149754
914.845152,133.998066,114.855485,-9418.149754
914.845779,133.998066,114.855485,-9437.292334
914.846407,114.855485,210.568389,-9399.007173
914.847034,133.998066,114.855485,-9418.149754
914.847662,133.998066,114.855485,-9418.149754
914.848289,76.570323,191.425808,-9437.292334
914.848916,38.285162,153.140646,-9418.149754
914.849544,76.570323,114.855485,-9418.149754
914.850171,38.285162,114.855485,-9418.149754
914.850799,76.570323,153.140646,-9437.292334
914.851426,133.998066,114.855485,-9418.149754
914.852053,133.998066,114.855485,-9437.292334
914.852681,76.570323,114.855485,-9418.149754
914.853308,133.998066,76.570323,-9379.864592
914.853935,76.570323,172.283227,-9418.149754
914.854563,76.570323,133.998066,-9360.722011
914.855190,76.570323,210.568389,-9418.149754
914.855818,133.998066,114.855485,-9418.149754
914.856445,133.998066,153.140646,-9418.149754
914.857072,153.140646,133.998066,-9399.007173
914.857700,153.140646,133.998066,-9475.577496
914.858327,133.998066,172.283227,-9437.292334
914.858955,95.712904,114.855485,-9456.434915
914.859582,38.285162,114.855485,-9418.149754
914.860209,95.712904,114.855485,-9418.149754
914.860837,153.140646,133.998066,-9456.434915
914.861464,133.998066,114.855485,-9418.149754
914.862091,133.998066,114.855485,-9418.149754
914.862719,133.998066,114.855485,-9418.149754
914.863346,95.712904,95.712904,-9494.720077
914.863974,76.570323,210.568389,-9418.149754
914.864601,95.712904,153.140646,-9437.292334
914.865228,76.570323,114.855485,-9437.292334
914.865856,76.570323,172.283227,-9418.149754
914.866483,95.712904,191.425808,-9418.149754
914.867111,133.998066,172.283227,-9494.720077
914.867738,133.998066,210.568389,-9494.720077
914.868365,133.998066,172.283227,-9437.292334
914.868993,114.855485,114.855485,-9437.292334
914.869620,95.712904,114.855485,-9418.149754
914.870247,133.998066,210.568389,-9418.149754
914.870875,76.570323,229.710970,-9437.292334
914.871502,38.285162,153.140646,-9418.149754
914.872130,133.998066,153.140646,-9475.577496
914.872757,76.570323,153.140646,-9456.434915
914.873384,133.998066,114.855485,-9418.149754
914.874012,133.998066,172.283227,-9418.149754
914.874639,133.998066,172.283227,-9399.007173
914.875267,76.570323,172.283227,-9418.149754
914.875894,153.140646,133.998066,-9437.292334
914.876521,76.570323,114.855485,-9418.149754
914.877149,95.712904,172.283227,-9360.722011
914.877776,38.285162,76.570323,-9399.007173
914.878403,76.570323,153.140646,-9418.149754
914.879031,38.285162,114.855485,-9456.434915
914.879658,133.998066,172.283227,-9418.149754
914.880286,133.998066,172.283227,-9456.434915
914.880913,38.285162,114.855485,-9418.149754
914.881540,133.998066,133.998066,-9399.007173
914.882168,133.998066,153.140646,-9418.149754
914.882795,76.570323,210.568389,-9418.149754
914.883423,133.998066,114.855485,-9418.149754
914.884050,76.570323,153.140646,-9456.434915
914.884677,133.998066,114.855485,-9418.149754
914.885305,133.998066,114.855485,-9418.149754
914.885932,153.140646,133.998066,-9399.007173
914.886559,76.570323,172.283227,-9418.149754
914.887187,133.998066,114.855485,-9437.292334
914.887814,76.570323,172.283227,-9475.577496
914.888442,76.570323,114.855485,-9456.434915
914.889069,114.855485,133.998066,-9360.722011
914.889696,133.998066,153.140646,-9418.149754
914.890324,153.140646,172.283227,-9360.722011
914.890951,76.570323,114.855485,-9418.149754
914.891579,133.998066,153.140646,-9418.149754
914.892206,76.570323,114.855485,-9418.149754
914.892833,114.855485,95.712904,-9399.007173
914.893461,76.570323,114.855485,-9494.720077
914.894088,76.570323,114.855485,-9418.149754
914.894715,76.570323,114.855485,-9418.149754
914.895343,95.712904,133.998066,-9360.722011
914.895970,114.855485,95.712904,-9399.007173
914.896598,76.570323,114.855485,-9418.149754
914.897225,76.570323,114.855485,-9437.292334
914.897852,95.712904,172.283227,-9418.149754
914.898480,76.570323,153.140646,-9456.434915
914.899107,76.570323,114.855485,-9418.149754
914.899735,76.570323,114.855485,-9437.292334
914.900362,38.285162,114.855485,-9437.292334
914.900989,76.570323,114.855485,-9437.292334
914.901617,76.570323,114.855485,-9418.149754
914.902244,38.285162,153.140646,-9418.149754
914.902871,95.712904,114.855485,-9360.722011
914.903499,76.570323,114.855485,-9418.149754
914.904126,133.998066,114.855485,-9418.149754
914.904754,133.998066,153.140646,-9456.434915
914.905381,133.998066,114.855485,-9456.434915
914.906008,153.140646,172.283227,-9437.292334
914.906636,76.570323,114.855485,-9418.149754
914.907263,133.998066,172.283227,-9437.292334
914.907891,76.570323,114.855485,-9418.149754
914.908518,95.712904,210.568389,-9418.149754
914.909145,114.855485,114.855485,-9437.292334
914.909773,133.998066,114.855485,-9418.149754
914.910400,133.998066,114.855485,-9475.577496
914.911028,133.998066,114.855485,-9418.149754
914.911655,133.998066,114.855485,-9437.292334
914.912283,133.998066,172.283227,-9399.007173
914.912910,133.998066,153.140646,-9418.149754
914.913538,76.570323,114.855485,-9437.292334
914.914165,76.570323,114.855485,-9418.149754
914.914793,133.998066,172.283227,-9437.292334
914.915420,153.140646,133.998066,-9399.007173
914.916048,114.855485,95.712904,-9437.292334
914.916675,38.285162,114.855485,-9456.434915
914.917303,95.712904,114.855485,-9418.149754
914.917930,133.998066,172.283227,-9418.149754
914.918558,76.570323,191.425808,-9360.722011
914.919185,133.998066,114.855485,-9418.149754
914.919813,172.283227,114.855485,-9379.864592
914.920440,133.998066,133.998066,-9494.720077
914.921068,210.568389,133.998066,-9399.007173
914.921695,76.570323,114.855485,-9456.434915
914.922323,76.570323,172.283227,-9418.149754
914.922950,95.712904,153.140646,-9475.577496
914.923578,76.570323,172.283227,-9437.292334
914.924205,76.570323,172.283227,-9533.005238
914.924833,76.570323,153.140646,-9437.292334
914.925460,38.285162,114.855485,-9437.292334
914.926088,38.285162,114.855485,-9437.292334
914.926715,76.570323,114.855485,-9456.434915
914.927343,133.998066,153.140646,-9437.292334
914.927970,153.140646,153.140646,-9399.007173
914.928598,133.998066,114.855485,-9418.149754
914.929225,76.570323,114.855485,-9456.434915
914.929853,76.570323,114.855485,-9437.292334
914.930480,38.285162,172.283227,-9418.149754
914.931108,133.998066,114.855485,-9437.292334
914.931735,76.570323,172.283227,-9418.149754
914.932363,133.998066,210.568389,-9418.149754
914.932990,76.570323,114.855485,-9437.292334
914.933618,76.570323,114.855485,-9418.149754
914.934245,95.712904,95.712904,-9399.007173
914.934873,76.570323,172.283227,-9360.722011
914.935500,114.855485,172.283227,-9360.722011
914.936128,133.998066,153.140646,-9399.007173
914.936755,133.998066,114.855485,-9418.149754
914.937383,57.427742,191.425808,-9418.149754
914.938010,76.570323,114.855485,-9456.434915
914.938638,76.570323,172.283227,-9418.149754
914.939265,114.855485,153.140646,-9418.149754
914.939893,133.998066,210.568389,-9418.149754
914.940520,57.427742,172.283227,-9456.434915
914.941148,133.998066,172.283227,-9418.149754
914.941775,76.570323,114.855485,-9418.149754
914.942403,76.570323,172.283227,-9418.149754
914.943030,133.998066,172.283227,-9437.292334
914.943658,76.570323,172.283227,-9418.149754
914.944285,133.998066,114.855485,-9418.149754
914.944913,133.998066,114.855485,-9418.149754
914.945540,95.712904,210.568389,-9360.722011
914.946168,38.285162,210.568389,-9418.149754
914.946795,38.285162,114.855485,-9418.149754
914.947423,133.998066,248.853550,-9456.434915
914.948050,76.570323,172.283227,-9437.292334
914.948678,38.285162,153.140646,-9418.149754
914.949305,76.570323,114.855485,-9418.149754
914.949933,76.570323,114.855485,-9418.149754
914.950560,76.570323,133.998066,-9360.722011
914.951188,76.570323,114.855485,-9360.722011
914.951815,95.712904,172.283227,-9418.149754
914.952443,95.712904,133.998066,-9418.149754
914.953070,76.570323,114.855485,-9418.149754
914.953698,57.427742,95.712904,-9399.007173
914.954325,95.712904,114.855485,-9418.149754
914.954953,76.570323,114.855485,-9437.292334
914.955580,76.570323,153.140646,-9437.292334
914.956208,191.425808,114.855485,-9379.864592
914.956835,76.570323,114.855485,-9418.149754
914.957463,76.570323,172.283227,-9418.149754
914.958090,133.998066,191.425808,-9418.149754
914.958718,133.998066,172.283227,-9437.292334
914.959345,153.140646,172.283227,-9456.434915
914.959973,133.998066,172.283227,-9456.434915
914.960600,76.570323,172.283227,-9418.149754
914.961228,95.712904,133.998066,-9418.149754
914.961855,76.570323,153.140646,-9494.720077
914.962483,133.998066,133.998066,-9399.007173
914.963110,38.285162,153.140646,-9418.149754
914.963738,133.998066,172.283227,-9437.292334
914.964365,76.570323,172.283227,-9456.434915
914.964993,76.570323,114.855485,-9418.149754
914.965620,133.998066,114.855485,-9418.149754
914.966248,76.570323,172.283227,-9360.722011
914.966875,95.712904,114.855485,-9418.149754
914.967503,133.998066,114.855485,-9418.149754
914.968130,133.998066,114.855485,-9475.577496
914.968758,133.998066,172.283227,-9494.720077
914.969385,133.998066,210.568389,-9418.149754
914.970013,76.570323,153.140646,-9418.149754
914.970640,133.998066,210.568389,-9360.722011
914.971268,95.712904,210.568389,-9418.149754
914.971895,133.998066,114.855485,-9418.149754
914.972523,153.140646,172.283227,-9399.007173
914.973150,76.570323,114.855485,-9418.149754
914.973778,38.285162,114.855485,-9533.005238
914.974405,38.285162,210.568389,-9418.149754
914.975033,38.285162,153.140646,-9437.292334
914.975660,76.570323,114.855485,-9456.434915
914.976288,95.712904,114.855485,-9437.292334
914.976915,133.998066,191.425808,-9418.149754
914.977543,153.140646,248.853550,-9437.292334
914.978170,76.570323,210.568389,-9437.292334
914.978798,95.712904,114.855485,-9456.434915
914.979425,76.570323,114.855485,-9418.149754
914.980053,133.998066,114.855485,-9475.577496
914.980680,95.712904,114.855485,-9533.005238
914.981308,133.998066,153.140646,-9437.292334
914.981935,76.570323,153.140646,-9437.292334
914.982563,38.285162,172.283227,-9418.149754
914.983190,95.712904,114.855485,-9456.434915
914.983818,95.712904,153.140646,-9360.722011
914.984445,76.570323,114.855485,-9418.149754
914.985073,76.570323,114.855485,-9475.577496
914.985700,133.998066,114.855485,-9437.292334
914.986328,76.570323,114.855485,-9456.434915
914.986955,172.283227,133.998066,-9456.434915
914.987583,76.570323,172.283227,-9456.434915
914.988211,38.285162,172.283227,-9456.434915
914.988838,76.570323,114.855485,-9418.149754
914.989466,133.998066,172.283227,-9418.149754
914.990093,76.570323,153.140646,-9418.149754
914.990721,153.140646,133.998066,-9494.720077
914.991348,133.998066,248.853550,-9513.862658
914.991976,38.285162,114.855485,-9475.577496
914.992603,76.570323,210.568389,-9418.149754
914.993231,133.998066,153.140646,-9418.149754
914.993858,133.998066,191.425808,-9418.149754
914.994486,95.712904,95.712904,-9399.007173
914.995113,95.712904,172.283227,-9360.722011
914.995741,38.285162,210.568389,-9418.149754
914.996368,133.998066,114.855485,-9418.149754
914.996996,133.998066,114.855485,-9418.149754
914.997623,76.570323,114.855485,-9437.292334
914.998251,76.570323,114.855485,-9437.292334
914.998878,76.570323,153.140646,-9437.292334
914.999506,133.998066,172.283227,-9399.007173
915.000133,133.998066,114.855485,-9418.149754
915.000761,76.570323,153.140646,-9418.149754
915.001388,95.712904,172.283227,-9456.434915
915.002016,114.855485,95.712904,-9399.007173
915.002643,133.998066,114.855485,-9418.149754
915.003271,133.998066,114.855485,-9418.149754
915.003898,133.998066,114.855485,-9418.149754
915.004526,38.285162,153.140646,-9437.292334
915.005153,133.998066,114.855485,-9418.149754
915.005781,95.712904,95.712904,-9399.007173
915.006408,95.712904,95.712904,-9399.007173
915.007036,38.285162,172.283227,-9418.149754
915.007663,76.570323,114.855485,-9533.005238
915.008291,76.570323,114.855485,-9456.434915
915.008918,133.998066,114.855485,-9456.434915
915.009546,153.140646,133.998066,-9399.007173
915.010173,133.998066,172.283227,-9418.149754
915.010801,76.570323,172.283227,-9418.149754
915.011428,38.285162,114.855485,-9418.149754
915.012055,76.570323,114.855485,-9456.434915
915.012682,57.427742,95.712904,-9456.434915
915.013309,133.998066,172.283227,-9456.434915
915.013937,76.570323,153.140646,-9418.149754
915.014564,133.998066,114.855485,-9418.149754
915.015191,76.570323,114.855485,-9418.149754
915.015818,76.570323,114.855485,-9418.149754
915.016445,133.998066,114.855485,-9418.149754
915.017072,76.570323,229.710970,-9475.577496
915.017700,133.998066,114.855485,-9437.292334
915.018327,133.998066,114.855485,-9494.720077
915.018954,114.855485,95.712904,-9399.007173
915.019581,153.140646,133.998066,-9399.007173
915.020208,95.712904,172.283227,-9418.149754
915.020836,95.712904,95.712904,-9399.007173
915.021463,95.712904,114.855485,-9418.149754
915.022090,133.998066,114.855485,-9418.149754
915.022717,76.570323,114.855485,-9418.149754
915.023344,76.570323,153.140646,-9456.434915
915.023971,133.998066,114.855485,-9418.149754
915.024599,133.998066,114.855485,-9456.434915
915.025226,153.140646,133.998066,-9456.434915
915.025853,38.285162,114.855485,-9437.292334
915.026480,76.570323,114.855485,-9475.577496
915.027107,133.998066,114.855485,-9418.149754
915.027734,76.570323,114.855485,-9456.434915
915.028362,133.998066,153.140646,-9418.149754
915.028989,95.712904,153.140646,-9456.434915
915.029616,95.712904,153.140646,-9456.434915
915.030243,153.140646,172.283227,-9437.292334
915.030870,76.570323,114.855485,-9418.149754
915.031498,133.998066,210.568389,-9437.292334
915.032125,153.140646,133.998066,-9399.007173
915.032752,133.998066,114.855485,-9418.149754
915.033379,76.570323,114.855485,-9418.149754
915.034006,95.712904,191.425808,-9360.722011
915.034633,114.855485,133.998066,-9360.722011
915.035261,76.570323,114.855485,-9456.434915
915.035888,133.998066,153.140646,-9437.292334
915.036515,133.998066,114.855485,-9418.149754
915.037142,133.998066,114.855485,-9418.149754
915.037769,76.570323,153.140646,-9418.149754
915.038397,95.712904,114.855485,-9437.292334
915.039024,76.570323,114.855485,-9437.292334
915.039651,114.855485,172.283227,-9399.007173
915.040278,76.570323,133.998066,-9360.722011
915.040905,76.570323,114.855485,-9418.149754
915.041532,133.998066,114.855485,-9437.292334
915.042160,133.998066,114.855485,-9437.292334
915.042787,76.570323,172.283227,-9456.434915
915.043414,95.712904,172.283227,-9418.149754
915.044041,133.998066,210.568389,-9475.577496
915.044668,76.570323,172.283227,-9418.149754
915.045296,57.427742,133.998066,-9341.579430
915.045923,95.712904,172.283227,-9360.722011
915.046550,57.427742,133.998066,-9475.577496
915.047177,133.998066,133.998066,-9399.007173
915.047804,153.140646,133.998066,-9399.007173
915.048431,172.283227,172.283227,-9379.864592
915.049059,133.998066,172.283227,-9418.149754
915.049686,95.712904,191.425808,-9360.722011
915.050313,191.425808,76.570323,-9456.434915
915.050940,95.712904,133.998066,-9360.722011
915.051567,133.998066,191.425808,-9456.434915
915.052195,133.998066,229.710970,-9418.149754
915.052822,133.998066,114.855485,-9418.149754
915.053449,76.570323,153.140646,-9360.722011
915.054076,133.998066,191.425808,-9437.292334
915.054703,133.998066,114.855485,-9418.149754
915.055330,153.140646,191.425808,-9399.007173
915.055958,76.570323,210.568389,-9437.292334
915.056585,133.998066,172.283227,-9437.292334
915.057212,133.998066,114.855485,-9418.149754
915.057839,133.998066,133.998066,-9494.720077
915.058466,57.427742,133.998066,-9360.722011
915.059093,38.285162,114.855485,-9418.149754
915.059721,133.998066,114.855485,-9418.149754
915.060348,38.285162,114.855485,-9360.722011
915.060975,95.712904,191.425808,-9360.722011
915.061602,172.283227,153.140646,-9379.864592
915.062229,76.570323,114.855485,-9418.149754
915.062857,153.140646,133.998066,-9399.007173
915.063484,76.570323,114.855485,-9418.149754
915.064111,153.140646,191.425808,-9399.007173
915.064738,95.712904,114.855485,-9418.149754
915.065365,133.998066,153.140646,-9360.722011
915.065992,76.570323,172.283227,-9437.292334
915.066620,133.998066,114.855485,-9418.149754
915.067247,114.855485,95.712904,-9399.007173
915.067874,76.570323,153.140646,-9418.149754
915.068501,133.998066,172.283227,-9418.149754
915.069128,76.570323,172.283227,-9418.149754
915.069756,76.570323,114.855485,-9437.292334
915.070383,76.570323,114.855485,-9437.292334
915.071010,172.283227,76.570323,-9494.720077
915.071637,133.998066,114.855485,-9437.292334
915.072264,95.712904,95.712904,-9456.434915
915.072891,38.285162,114.855485,-9456.434915
915.073519,38.285162,114.855485,-9418.149754
915.074146,133.998066,172.283227,-9494.720077
915.074773,76.570323,172.283227,-9418.149754
915.075400,76.570323,114.855485,-9418.149754
915.076027,95.712904,114.855485,-9418.149754
915.076655,76.570323,153.140646,-9418.149754
915.077282,133.998066,114.855485,-9418.149754
915.077909,133.998066,172.283227,-9456.434915
915.078536,133.998066,172.283227,-9418.149754
915.079163,76.570323,114.855485,-9456.434915
915.079790,153.140646,133.998066,-9437.292334
915.080418,38.285162,114.855485,-9418.149754
915.081045,133.998066,172.283227,-9494.720077
915.081672,76.570323,153.140646,-9418.149754
915.082299,133.998066,153.140646,-9418.149754
915.082926,76.570323,229.710970,-9418.149754
915.083554,114.855485,191.425808,-9418.149754
915.084181,95.712904,210.568389,-9456.434915
915.084808,133.998066,172.283227,-9533.005238
915.085435,133.998066,114.855485,-9418.149754
915.086062,133.998066,114.855485,-9418.149754
915.086689,38.285162,114.855485,-9399.007173
915.087317,133.998066,76.570323,-9379.864592
915.087944,133.998066,172.283227,-9437.292334
915.088571,95.712904,133.998066,-9360.722011
915.089198,153.140646,133.998066,-9494.720077
915.089825,95.712904,95.712904,-9494.720077
915.090453,76.570323,114.855485,-9475.577496
915.091080,95.712904,114.855485,-9418.149754
915.091707,153.140646,172.283227,-9399.007173
915.092334,76.570323,114.855485,-9418.149754
915.092961,133.998066,114.855485,-9456.434915
915.093588,95.712904,114.855485,-9437.292334
915.094216,76.570323,114.855485,-9418.149754
915.094843,76.570323,114.855485,-9418.149754
915.095470,114.855485,95.712904,-9399.007173
915.096097,76.570323,114.855485,-9456.434915
915.096724,38.285162,210.568389,-9437.292334
915.097351,133.998066,172.283227,-9533.005238
915.097979,76.570323,114.855485,-9456.434915
915.098606,153.140646,133.998066,-9456.434915
915.099233,133.998066,114.855485,-9418.149754
915.099860,76.570323,114.855485,-9418.149754
