#time,accel_x,accel_y,accel_z
885.351088,76.570323,153.140646,-9418.149754
885.351714,133.998066,172.283227,-9418.149754
885.352341,133.998066,172.283227,-9418.149754
885.352967,153.140646,133.998066,-9437.292334
885.353593,210.568389,133.998066,-9399.007173
885.354219,133.998066,210.568389,-9456.434915
885.354845,133.998066,153.140646,-9418.149754
885.355471,153.140646,172.283227,-9399.007173
885.356097,133.998066,133.998066,-9437.292334
885.356723,95.712904,114.855485,-9418.149754
885.357349,76.570323,114.855485,-9456.434915
885.357975,76.570323,153.140646,-9437.292334
885.358601,57.427742,95.712904,-9456.434915
885.359227,76.570323,114.855485,-9418.149754
885.359853,133.998066,114.855485,-9418.149754
885.360479,133.998066,172.283227,-9456.434915
885.361105,76.570323,114.855485,-9437.292334
885.361731,133.998066,153.140646,-9437.292334
885.362357,76.570323,114.855485,-9418.149754
885.362983,114.855485,133.998066,-9360.722011
885.363609,76.570323,153.140646,-9418.149754
885.364235,133.998066,114.855485,-9437.292334
885.364861,133.998066,114.855485,-9418.149754
885.365487,133.998066,114.855485,-9475.577496
885.366113,153.140646,133.998066,-9399.007173
885.366739,114.855485,95.712904,-9494.720077
885.367365,38.285162,114.855485,-9418.149754
885.367991,76.570323,153.140646,-9456.434915
885.368617,76.570323,114.855485,-9437.292334
885.369243,133.998066,114.855485,-9418.149754
885.369869,95.712904,95.712904,-9399.007173
885.370495,95.712904,210.568389,-9456.434915
885.371121,76.570323,172.283227,-9494.720077
885.371747,76.570323,153.140646,-9418.149754
885.372373,76.570323,114.855485,-9437.292334
885.372999,76.570323,172.283227,-9418.149754
885.373625,76.570323,114.855485,-9418.149754
885.374251,57.427742,114.855485,-9437.292334
885.374877,133.998066,114.855485,-9418.149754
885.375503,133.998066,172.283227,-9418.149754
885.376129,133.998066,210.568389,-9418.149754
885.376755,95.712904,114.855485,-9437.292334
885.377382,76.570323,172.283227,-9437.292334
885.378008,76.570323,114.855485,-9418.149754
885.378634,95.712904,172.283227,-9437.292334
885.379260,76.570323,210.568389,-9418.149754
885.379886,133.998066,114.855485,-9418.149754
885.380512,76.570323,114.855485,-9418.149754
885.381138,133.998066,114.855485,-9456.434915
885.381764,57.427742,114.855485,-9494.720077
885.382390,133.998066,153.140646,-9418.149754
885.383016,76.570323,153.140646,-9418.149754
885.383642,57.427742,114.855485,-9418.149754
885.384268,133.998066,172.283227,-9418.149754
885.384894,133.998066,114.855485,-9437.292334
885.385520,153.140646,172.283227,-9399.007173
885.386146,133.998066,114.855485,-9418.149754
885.386772,57.427742,114.855485,-9494.720077
885.387398,76.570323,229.710970,-9418.149754
885.388024,133.998066,172.283227,-9418.149754
885.388650,133.998066,191.425808,-9418.149754
885.389276,76.570323,114.855485,-9437.292334
885.389902,76.570323,172.283227,-9437.292334
885.390528,76.570323,114.855485,-9494.720077
885.391154,133.998066,114.855485,-9418.149754
885.391780,133.998066,133.998066,-9399.007173
885.392406,76.570323,153.140646,-9418.149754
885.393032,172.283227,153.140646,-9399.007173
885.393658,133.998066,153.140646,-9494.720077
885.394284,133.998066,133.998066,-9456.434915
885.394910,153.140646,172.283227,-9399.007173
885.395536,95.712904,114.855485,-9418.149754
885.396162,38.285162,114.855485,-9418.149754
885.396788,76.570323,114.855485,-9418.149754
885.397414,153.140646,114.855485,-9418.149754
885.398040,76.570323,114.855485,-9475.577496
885.398666,210.568389,133.998066,-9456.434915
885.399292,95.712904,114.855485,-9418.149754
885.399918,76.570323,114.855485,-9418.149754
885.400544,172.283227,153.140646,-9360.722011
885.401170,153.140646,210.568389,-9418.149754
885.401796,95.712904,114.855485,-9399.007173
885.402422,133.998066,114.855485,-9418.149754
885.403049,153.140646,133.998066,-9437.292334
885.403675,76.570323,114.855485,-9418.149754
885.404302,76.570323,95.712904,-9399.007173
885.404928,76.570323,114.855485,-9418.149754
885.405555,133.998066,172.283227,-9533.005238
885.406181,133.998066,114.855485,-9418.149754
885.406808,76.570323,114.855485,-9418.149754
885.407434,95.712904,114.855485,-9456.434915
885.408061,153.140646,133.998066,-9456.434915
885.408687,172.283227,76.570323,-9418.149754
885.409314,114.855485,95.712904,-9399.007173
885.409940,95.712904,95.712904,-9399.007173
885.410567,76.570323,114.855485,-9418.149754
885.411193,38.285162,114.855485,-9418.149754
885.411820,133.998066,114.855485,-9418.149754
885.412446,95.712904,95.712904,-9456.434915
885.413073,133.998066,153.140646,-9418.149754
885.413699,95.712904,210.568389,-9360.722011
885.414326,76.570323,133.998066,-9418.149754
885.414953,95.712904,95.712904,-9399.007173
885.415579,76.570323,76.570323,-9379.864592
885.416206,76.570323,210.568389,-9418.149754
885.416832,133.998066,114.855485,-9418.149754
885.417459,133.998066,153.140646,-9418.149754
885.418085,95.712904,95.712904,-9399.007173
885.418712,95.712904,114.855485,-9418.149754
885.419338,76.570323,114.855485,-9456.434915
885.419965,95.712904,95.712904,-9399.007173
885.420591,133.998066,114.855485,-9418.149754
885.421218,76.570323,114.855485,-9475.577496
885.421844,133.998066,133.998066,-9475.577496
885.422471,76.570323,172.283227,-9418.149754
885.423097,38.285162,153.140646,-9456.434915
885.423724,95.712904,114.855485,-9418.149754
885.424350,133.998066,114.855485,-9418.149754
885.424977,133.998066,172.283227,-9418.149754
885.425603,76.570323,191.425808,-9437.292334
885.426230,76.570323,153.140646,-9475.577496
885.426857,133.998066,172.283227,-9494.720077
885.427483,95.712904,172.283227,-9418.149754
885.428110,76.570323,210.568389,-9418.149754
885.428736,153.140646,133.998066,-9399.007173
885.429363,95.712904,114.855485,-9437.292334
885.429989,76.570323,191.425808,-9418.149754
885.430616,133.998066,114.855485,-9418.149754
885.431242,76.570323,153.140646,-9475.577496
885.431869,38.285162,210.568389,-9418.149754
885.432495,76.570323,153.140646,-9437.292334
885.433122,76.570323,114.855485,-9418.149754
885.433748,133.998066,114.855485,-9437.292334
885.434375,76.570323,114.855485,-9475.577496
885.435001,76.570323,114.855485,-9533.005238
885.435628,95.712904,114.855485,-9456.434915
885.436254,76.570323,114.855485,-9456.434915
885.436881,76.570323,133.998066,-9360.722011
885.437508,133.998066,114.855485,-9418.149754
885.438134,114.855485,153.140646,-9360.722011
885.438761,76.570323,114.855485,-9418.149754
885.439387,95.712904,114.855485,-9437.292334
885.440014,153.140646,133.998066,-9399.007173
885.440640,133.998066,153.140646,-9418.149754
885.441267,76.570323,114.855485,-9475.577496
885.441893,38.285162,153.140646,-9418.149754
885.442520,133.998066,153.140646,-9418.149754
885.443146,57.427742,172.283227,-9456.434915
885.443773,133.998066,114.855485,-9418.149754
885.444399,57.427742,153.140646,-9418.149754
885.445026,76.570323,153.140646,-9418.149754
885.445652,133.998066,133.998066,-9399.007173
885.446279,153.140646,114.855485,-9418.149754
885.446905,191.425808,76.570323,-9418.149754
885.447532,133.998066,133.998066,-9437.292334
885.448158,114.855485,95.712904,-9456.434915
885.448785,153.140646,133.998066,-9399.007173
885.449412,95.712904,95.712904,-9399.007173
885.450038,38.285162,114.855485,-9437.292334
885.450665,38.285162,114.855485,-9418.149754
885.451291,76.570323,114.855485,-9456.434915
885.451918,38.285162,172.283227,-9437.292334
885.452544,95.712904,172.283227,-9437.292334
885.453171,153.140646,172.283227,-9437.292334
885.453797,19.142581,172.283227,-9418.149754
885.454424,76.570323,114.855485,-9437.292334
885.455050,57.427742,153.140646,-9437.292334
885.455677,76.570323,114.855485,-9418.149754
885.456303,76.570323,114.855485,-9475.577496
885.456930,133.998066,114.855485,-9475.577496
885.457556,172.283227,76.570323,-9494.720077
885.458183,133.998066,114.855485,-9456.434915
885.458809,114.855485,76.570323,-9418.149754
885.459436,114.855485,95.712904,-9399.007173
885.460062,95.712904,95.712904,-9399.007173
885.460689,95.712904,114.855485,-9418.149754
885.461316,76.570323,114.855485,-9456.434915
885.461942,133.998066,114.855485,-9418.149754
885.462569,76.570323,133.998066,-9418.149754
885.463195,95.712904,133.998066,-9360.722011
885.463822,114.855485,133.998066,-9360.722011
885.464448,95.712904,95.712904,-9399.007173
885.465075,38.285162,191.425808,-9437.292334
885.465701,133.998066,153.140646,-9418.149754
885.466328,38.285162,153.140646,-9475.577496
885.466954,95.712904,114.855485,-9418.149754
885.467581,133.998066,210.568389,-9533.005238
885.468207,95.712904,114.855485,-9456.434915
885.468834,38.285162,114.855485,-9437.292334
885.469460,38.285162,114.855485,-9437.292334
885.470087,133.998066,114.855485,-9418.149754
885.470713,153.140646,133.998066,-9399.007173
885.471340,76.570323,114.855485,-9418.149754
885.471967,95.712904,114.855485,-9418.149754
885.472593,133.998066,114.855485,-9437.292334
885.473220,76.570323,95.712904,-9437.292334
885.473846,153.140646,133.998066,-9437.292334
885.474473,76.570323,114.855485,-9418.149754
885.475099,57.427742,172.283227,-9418.149754
885.475726,95.712904,114.855485,-9494.720077
885.476352,133.998066,114.855485,-9456.434915
885.476979,76.570323,114.855485,-9418.149754
885.477605,38.285162,210.568389,-9418.149754
885.478232,76.570323,114.855485,-9437.292334
885.478858,133.998066,153.140646,-9494.720077
885.479485,76.570323,114.855485,-9475.577496
885.480111,133.998066,172.283227,-9494.720077
885.480738,76.570323,153.140646,-9418.149754
885.481364,76.570323,153.140646,-9360.722011
885.481991,133.998066,210.568389,-9418.149754
885.482617,133.998066,153.140646,-9475.577496
885.483244,38.285162,114.855485,-9418.149754
885.483871,133.998066,133.998066,-9494.720077
885.484497,133.998066,114.855485,-9437.292334
885.485124,95.712904,114.855485,-9418.149754
885.485750,133.998066,172.283227,-9494.720077
885.486377,38.285162,153.140646,-9418.149754
885.487003,76.570323,114.855485,-9418.149754
885.487630,133.998066,114.855485,-9418.149754
885.488256,38.285162,114.855485,-9418.149754
885.488883,38.285162,114.855485,-9418.149754
885.489509,76.570323,114.855485,-9418.149754
885.490136,38.285162,172.283227,-9475.577496
885.490762,76.570323,172.283227,-9418.149754
885.491389,76.570323,153.140646,-9494.720077
885.492015,76.570323,114.855485,-9437.292334
885.492642,57.427742,114.855485,-9418.149754
885.493268,38.285162,153.140646,-9418.149754
885.493895,38.285162,114.855485,-9437.292334
885.494521,133.998066,114.855485,-9360.722011
885.495148,133.998066,114.855485,-9437.292334
885.495775,133.998066,114.855485,-9437.292334
885.496401,133.998066,114.855485,-9418.149754
885.497028,114.855485,133.998066,-9418.149754
885.497654,76.570323,114.855485,-9418.149754
885.498281,95.712904,172.283227,-9475.577496
885.498907,133.998066,114.855485,-9418.149754
885.499534,38.285162,114.855485,-9418.149754
885.500160,133.998066,114.855485,-9418.149754
885.500787,95.712904,153.140646,-9360.722011
885.501413,95.712904,114.855485,-9437.292334
885.502040,95.712904,95.712904,-9437.292334
885.502666,114.855485,95.712904,-9399.007173
885.503293,133.998066,76.570323,-9379.864592
885.503919,153.140646,133.998066,-9399.007173
885.504546,76.570323,114.855485,-9418.149754
885.505172,76.570323,133.998066,-9360.722011
885.505799,133.998066,210.568389,-9437.292334
885.506426,133.998066,114.855485,-9418.149754
885.507052,95.712904,95.712904,-9399.007173
885.507679,76.570323,114.855485,-9418.149754
885.508305,38.285162,153.140646,-9418.149754
885.508932,153.140646,133.998066,-9399.007173
885.509559,133.998066,114.855485,-9418.149754
885.510186,76.570323,172.283227,-9418.149754
885.510813,38.285162,114.855485,-9418.149754
885.511439,153.140646,133.998066,-9399.007173
885.512066,38.285162,153.140646,-9418.149754
885.512693,153.140646,133.998066,-9456.434915
885.513320,133.998066,172.283227,-9437.292334
885.513947,76.570323,172.283227,-9418.149754
885.514574,76.570323,172.283227,-9456.434915
885.515201,76.570323,172.283227,-9437.292334
885.515828,114.855485,95.712904,-9494.720077
885.516455,38.285162,114.855485,-9437.292334
885.517081,38.285162,114.855485,-9456.434915
885.517708,76.570323,153.140646,-9533.005238
885.518335,133.998066,114.855485,-9456.434915
885.518962,76.570323,172.283227,-9418.149754
885.519589,76.570323,210.568389,-9418.149754
885.520216,38.285162,114.855485,-9418.149754
885.520843,114.855485,248.853550,-9360.722011
885.521470,133.998066,153.140646,-9418.149754
885.522096,133.998066,172.283227,-9494.720077
885.522723,76.570323,114.855485,-9418.149754
885.523350,76.570323,114.855485,-9418.149754
885.523977,133.998066,172.283227,-9456.434915
885.524604,133.998066,114.855485,-9475.577496
885.525231,133.998066,114.855485,-9456.434915
885.525858,76.570323,172.283227,-9418.149754
885.526485,38.285162,210.568389,-9418.149754
885.527111,95.712904,133.998066,-9360.722011
885.527738,133.998066,114.855485,-9437.292334
885.528365,133.998066,172.283227,-9418.149754
885.528992,133.998066,114.855485,-9437.292334
885.529619,76.570323,172.283227,-9418.149754
885.530246,38.285162,153.140646,-9418.149754
885.530873,57.427742,114.855485,-9437.292334
885.531500,133.998066,114.855485,-9437.292334
885.532127,76.570323,172.283227,-9418.149754
885.532753,114.855485,76.570323,-9418.149754
885.533380,38.285162,153.140646,-9418.149754
885.534007,76.570323,114.855485,-9418.149754
885.534634,76.570323,153.140646,-9418.149754
885.535261,38.285162,114.855485,-9418.149754
885.535888,76.570323,114.855485,-9418.149754
885.536515,57.427742,114.855485,-9418.149754
885.537142,133.998066,114.855485,-9437.292334
885.537768,95.712904,114.855485,-9456.434915
885.538395,153.140646,172.283227,-9456.434915
885.539022,76.570323,153.140646,-9418.149754
885.539649,95.712904,114.855485,-9418.149754
885.540276,133.998066,114.855485,-9418.149754
885.540903,76.570323,172.283227,-9437.292334
885.541530,76.570323,114.855485,-9437.292334
885.542157,76.570323,172.283227,-9418.149754
885.542783,95.712904,153.140646,-9360.722011
885.543410,95.712904,153.140646,-9360.722011
885.544037,76.570323,153.140646,-9418.149754
885.544664,133.998066,114.855485,-9475.577496
885.545291,76.570323,153.140646,-9533.005238
885.545918,76.570323,114.855485,-9533.005238
885.546545,38.285162,172.283227,-9456.434915
885.547172,95.712904,172.283227,-9418.149754
885.547799,76.570323,153.140646,-9456.434915
885.548425,76.570323,172.283227,-9418.149754
885.549052,153.140646,133.998066,-9399.007173
885.549679,76.570323,210.568389,-9437.292334
885.550306,38.285162,172.283227,-9456.434915
885.550933,133.998066,114.855485,-9475.577496
885.551560,153.140646,172.283227,-9456.434915
885.552187,76.570323,76.570323,-9379.864592
885.552814,38.285162,210.568389,-9418.149754
885.553440,133.998066,133.998066,-9399.007173
885.554067,114.855485,133.998066,-9360.722011
885.554694,133.998066,114.855485,-9418.149754
885.555321,76.570323,172.283227,-9418.149754
885.555948,76.570323,153.140646,-9418.149754
885.556575,133.998066,114.855485,-9456.434915
885.557202,76.570323,114.855485,-9418.149754
885.557829,76.570323,114.855485,-9418.149754
885.558455,114.855485,153.140646,-9360.722011
885.559082,76.570323,114.855485,-9418.149754
885.559709,95.712904,133.998066,-9360.722011
885.560336,38.285162,191.425808,-9418.149754
885.560963,95.712904,114.855485,-9418.149754
885.561590,153.140646,133.998066,-9494.720077
885.562217,153.140646,153.140646,-9399.007173
885.562844,76.570323,172.283227,-9437.292334
885.563471,133.998066,191.425808,-9456.434915
885.564097,76.570323,210.568389,-9533.005238
885.564724,95.712904,114.855485,-9456.434915
885.565351,114.855485,95.712904,-9399.007173
885.565978,95.712904,95.712904,-9399.007173
885.566605,133.998066,133.998066,-9475.577496
885.567232,76.570323,114.855485,-9418.149754
885.567859,133.998066,153.140646,-9437.292334
885.568486,133.998066,114.855485,-9475.577496
885.569112,133.998066,133.998066,-9399.007173
885.569739,76.570323,153.140646,-9418.149754
885.570366,76.570323,114.855485,-9418.149754
885.570993,76.570323,172.283227,-9418.149754
885.571620,38.285162,133.998066,-9360.722011
885.572247,95.712904,95.712904,-9399.007173
885.572874,95.712904,172.283227,-9418.149754
885.573501,153.140646,133.998066,-9437.292334
885.574127,133.998066,153.140646,-9399.007173
885.574754,133.998066,114.855485,-9418.149754
885.575381,76.570323,191.425808,-9418.149754
885.576008,133.998066,114.855485,-9418.149754
885.576635,114.855485,287.138712,-9399.007173
885.577262,133.998066,153.140646,-9437.292334
885.577889,76.570323,210.568389,-9475.577496
885.578516,19.142581,172.283227,-9399.007173
885.579143,38.285162,114.855485,-9456.434915
885.579769,114.855485,133.998066,-9360.722011
885.580396,76.570323,210.568389,-9418.149754
885.581023,133.998066,248.853550,-9456.434915
885.581650,76.570323,210.568389,-9533.005238
885.582277,76.570323,114.855485,-9475.577496
885.582904,95.712904,133.998066,-9475.577496
885.583531,76.570323,210.568389,-9418.149754
885.584158,57.427742,133.998066,-9360.722011
885.584784,114.855485,133.998066,-9360.722011
885.585411,76.570323,114.855485,-9418.149754
885.586038,76.570323,114.855485,-9418.149754
885.586665,95.712904,172.283227,-9437.292334
885.587292,76.570323,114.855485,-9437.292334
885.587919,153.140646,133.998066,-9456.434915
885.588546,153.140646,133.998066,-9399.007173
885.589173,76.570323,172.283227,-9456.434915
885.589799,153.140646,114.855485,-9418.149754
885.590426,76.570323,172.283227,-9418.149754
885.591053,38.285162,114.855485,-9418.149754
885.591680,95.712904,95.712904,-9399.007173
885.592307,38.285162,153.140646,-9418.149754
885.592934,76.570323,114.855485,-9418.149754
885.593561,133.998066,114.855485,-9533.005238
885.594188,95.712904,95.712904,-9399.007173
885.594815,133.998066,114.855485,-9418.149754
885.595441,133.998066,114.855485,-9456.434915
885.596068,76.570323,114.855485,-9418.149754
885.596695,95.712904,114.855485,-9475.577496
885.597322,114.855485,95.712904,-9399.007173
885.597949,76.570323,172.283227,-9456.434915
885.598576,76.570323,153.140646,-9418.149754
885.599203,153.140646,191.425808,-9456.434915
885.599830,95.712904,114.855485,-9475.577496
885.600456,57.427742,95.712904,-9437.292334
885.601083,133.998066,114.855485,-9475.577496
885.601710,38.285162,172.283227,-9418.149754
885.602337,38.285162,172.283227,-9418.149754
885.602964,38.285162,172.283227,-9418.149754
885.603591,76.570323,153.140646,-9437.292334
885.604218,76.570323,153.140646,-9418.149754
885.604845,95.712904,114.855485,-9418.149754
885.605471,76.570323,114.855485,-9418.149754
885.606098,76.570323,114.855485,-9456.434915
885.606725,133.998066,114.855485,-9418.149754
885.607352,133.998066,172.283227,-9418.149754
885.607979,76.570323,114.855485,-9456.434915
885.608606,95.712904,95.712904,-9399.007173
885.609233,76.570323,172.283227,-9418.149754
885.609860,153.140646,133.998066,-9437.292334
885.610487,114.855485,95.712904,-9399.007173
885.611114,76.570323,114.855485,-9418.149754
885.611741,133.998066,114.855485,-9418.149754
885.612368,38.285162,153.140646,-9418.149754
885.612995,153.140646,153.140646,-9399.007173
885.613623,95.712904,172.283227,-9360.722011
885.614250,76.570323,114.855485,-9418.149754
885.614877,133.998066,114.855485,-9418.149754
885.615504,38.285162,114.855485,-9418.149754
885.616131,95.712904,114.855485,-9456.434915
885.616758,133.998066,114.855485,-9418.149754
885.617385,76.570323,172.283227,-9399.007173
885.618012,76.570323,76.570323,-9379.864592
885.618639,133.998066,153.140646,-9418.149754
885.619266,133.998066,114.855485,-9437.292334
885.619893,57.427742,133.998066,-9360.722011
885.620521,76.570323,133.998066,-9360.722011
885.621148,95.712904,95.712904,-9475.577496
885.621775,133.998066,114.855485,-9418.149754
885.622402,95.712904,95.712904,-9399.007173
885.623029,133.998066,133.998066,-9399.007173
885.623656,133.998066,114.855485,-9437.292334
885.624283,133.998066,172.283227,-9494.720077
885.624910,95.712904,114.855485,-9418.149754
885.625537,76.570323,114.855485,-9418.149754
885.626164,76.570323,172.283227,-9456.434915
885.626791,114.855485,95.712904,-9399.007173
885.627419,76.570323,153.140646,-9418.149754
885.628046,133.998066,153.140646,-9475.577496
885.628673,133.998066,191.425808,-9437.292334
885.629300,133.998066,172.283227,-9418.149754
885.629927,76.570323,210.568389,-9418.149754
885.630554,76.570323,114.855485,-9475.577496
885.631181,76.570323,153.140646,-9456.434915
885.631808,133.998066,114.855485,-9437.292334
885.632435,133.998066,114.855485,-9456.434915
885.633062,76.570323,114.855485,-9475.577496
885.633689,133.998066,114.855485,-9437.292334
885.634317,76.570323,210.568389,-9437.292334
885.634944,133.998066,172.283227,-9418.149754
885.635571,76.570323,229.710970,-9418.149754
885.636198,76.570323,133.998066,-9360.722011
885.636825,76.570323,172.283227,-9456.434915
885.637452,76.570323,114.855485,-9418.149754
885.638079,153.140646,133.998066,-9399.007173
885.638706,57.427742,114.855485,-9418.149754
885.639333,76.570323,114.855485,-9418.149754
885.639960,133.998066,172.283227,-9437.292334
885.640587,76.570323,172.283227,-9418.149754
885.641215,133.998066,153.140646,-9437.292334
885.641842,133.998066,172.283227,-9437.292334
885.642469,153.140646,133.998066,-9437.292334
885.643096,38.285162,172.283227,-9456.434915
885.643723,57.427742,153.140646,-9360.722011
885.644350,133.998066,153.140646,-9418.149754
885.644977,76.570323,153.140646,-9418.149754
885.645604,153.140646,133.998066,-9399.007173
885.646231,133.998066,76.570323,-9399.007173
885.646858,133.998066,114.855485,-9437.292334
885.647485,76.570323,114.855485,-9418.149754
885.648112,38.285162,114.855485,-9437.292334
885.648740,76.570323,172.283227,-9456.434915
885.649367,38.285162,114.855485,-9418.149754
885.649994,76.570323,114.855485,-9475.577496
885.650621,133.998066,172.283227,-9418.149754
885.651248,133.998066,153.140646,-9418.149754
885.651875,172.283227,114.855485,-9399.007173
885.652502,133.998066,133.998066,-9399.007173
885.653129,114.855485,95.712904,-9456.434915
885.653756,76.570323,114.855485,-9494.720077
885.654383,133.998066,114.855485,-9418.149754
885.655010,38.285162,114.855485,-9456.434915
885.655638,76.570323,114.855485,-9418.149754
885.656265,133.998066,153.140646,-9418.149754
885.656892,133.998066,114.855485,-9437.292334
885.657519,210.568389,133.998066,-9399.007173
885.658146,133.998066,114.855485,-9418.149754
885.658773,38.285162,153.140646,-9456.434915
885.659400,133.998066,172.283227,-9399.007173
885.660027,76.570323,114.855485,-9418.149754
885.660654,76.570323,172.283227,-9437.292334
885.661281,133.998066,114.855485,-9456.434915
885.661908,38.285162,172.283227,-9418.149754
885.662536,153.140646,133.998066,-9399.007173
885.663163,76.570323,153.140646,-9456.434915
885.663790,133.998066,191.425808,-9475.577496
885.664417,76.570323,114.855485,-9418.149754
885.665044,133.998066,114.855485,-9418.149754
885.665671,133.998066,153.140646,-9418.149754
885.666298,133.998066,114.855485,-9418.149754
885.666925,76.570323,114.855485,-9418.149754
885.667552,133.998066,114.855485,-9418.149754
885.668179,133.998066,172.283227,-9418.149754
885.668806,95.712904,172.283227,-9418.149754
885.669434,38.285162,114.855485,-9418.149754
885.670061,133.998066,153.140646,-9456.434915
885.670688,133.998066,133.998066,-9399.007173
885.671315,153.140646,133.998066,-9456.434915
885.671942,76.570323,153.140646,-9418.149754
885.672569,76.570323,153.140646,-9418.149754
885.673196,114.855485,114.855485,-9418.149754
885.673823,133.998066,153.140646,-9494.720077
885.674450,133.998066,114.855485,-9437.292334
885.675077,38.285162,229.710970,-9456.434915
885.675704,95.712904,172.283227,-9360.722011
885.676332,133.998066,210.568389,-9456.434915
885.676959,95.712904,95.712904,-9399.007173
885.677586,57.427742,95.712904,-9456.434915
885.678213,76.570323,114.855485,-9418.149754
885.678840,133.998066,114.855485,-9456.434915
885.679467,76.570323,114.855485,-9456.434915
885.680094,76.570323,114.855485,-9475.577496
885.680721,133.998066,114.855485,-9418.149754
885.681348,95.712904,172.283227,-9360.722011
885.681975,76.570323,153.140646,-9418.149754
885.682602,76.570323,114.855485,-9418.149754
885.683229,57.427742,95.712904,-9399.007173
885.683857,153.140646,133.998066,-9399.007173
885.684484,133.998066,114.855485,-9418.149754
885.685111,133.998066,76.570323,-9379.864592
885.685738,76.570323,114.855485,-9456.434915
885.686365,19.142581,114.855485,-9418.149754
885.686992,95.712904,95.712904,-9456.434915
885.687619,76.570323,172.283227,-9475.577496
885.688246,38.285162,210.568389,-9437.292334
885.688873,76.570323,114.855485,-9418.149754
885.689500,76.570323,172.283227,-9418.149754
885.690127,76.570323,114.855485,-9418.149754
885.690755,114.855485,153.140646,-9360.722011
885.691382,133.998066,114.855485,-9437.292334
885.692009,153.140646,133.998066,-9399.007173
885.692636,95.712904,114.855485,-9475.577496
885.693263,76.570323,153.140646,-9418.149754
885.693890,76.570323,172.283227,-9418.149754
885.694517,133.998066,114.855485,-9418.149754
885.695144,153.140646,133.998066,-9399.007173
885.695771,133.998066,153.140646,-9418.149754
885.696398,153.140646,133.998066,-9456.434915
885.697025,76.570323,114.855485,-9475.577496
885.697653,38.285162,114.855485,-9456.434915
885.698280,38.285162,210.568389,-9418.149754
885.698907,38.285162,153.140646,-9418.149754
885.699534,95.712904,95.712904,-9437.292334
885.700161,133.998066,114.855485,-9418.149754
885.700788,76.570323,114.855485,-9418.149754
885.701415,114.855485,95.712904,-9399.007173
885.702042,133.998066,114.855485,-9418.149754
885.702669,133.998066,172.283227,-9399.007173
885.703296,38.285162,172.283227,-9418.149754
885.703923,114.855485,95.712904,-9456.434915
885.704551,95.712904,114.855485,-9399.007173
885.705178,133.998066,114.855485,-9475.577496
885.705805,76.570323,114.855485,-9418.149754
885.706432,114.855485,95.712904,-9399.007173
885.707059,76.570323,153.140646,-9437.292334
885.707686,76.570323,210.568389,-9437.292334
885.708313,133.998066,191.425808,-9475.577496
885.708940,76.570323,153.140646,-9475.577496
885.709568,76.570323,114.855485,-9418.149754
885.710195,133.998066,172.283227,-9418.149754
885.710823,76.570323,210.568389,-9418.149754
885.711450,76.570323,153.140646,-9418.149754
885.712077,133.998066,114.855485,-9437.292334
885.712705,153.140646,133.998066,-9437.292334
885.713332,133.998066,172.283227,-9399.007173
885.713960,76.570323,114.855485,-9437.292334
885.714587,76.570323,114.855485,-9456.434915
885.715215,133.998066,172.283227,-9418.149754
885.715842,76.570323,114.855485,-9418.149754
885.716470,133.998066,172.283227,-9418.149754
885.717097,133.998066,114.855485,-9437.292334
885.717725,153.140646,114.855485,-9418.149754
885.718352,76.570323,153.140646,-9456.434915
885.718979,153.140646,153.140646,-9399.007173
885.719607,133.998066,133.998066,-9437.292334
885.720234,76.570323,114.855485,-9360.722011
885.720862,76.570323,114.855485,-9437.292334
885.721489,95.712904,133.998066,-9360.722011
885.722117,153.140646,133.998066,-9456.434915
885.722744,153.140646,172.283227,-9399.007173
885.723372,133.998066,114.855485,-9418.149754
885.723999,76.570323,114.855485,-9456.434915
885.724627,76.570323,153.140646,-9437.292334
885.725254,133.998066,153.140646,-9418.149754
885.725881,133.998066,114.855485,-9418.149754
885.726509,76.570323,114.855485,-9456.434915
885.727136,153.140646,133.998066,-9399.007173
885.727764,76.570323,153.140646,-9418.149754
885.728391,38.285162,114.855485,-9418.149754
885.729019,38.285162,114.855485,-9418.149754
885.729646,76.570323,172.283227,-9360.722011
885.730274,76.570323,114.855485,-9418.149754
885.730901,133.998066,114.855485,-9418.149754
885.731529,133.998066,114.855485,-9437.292334
885.732156,153.140646,133.998066,-9399.007173
885.732783,133.998066,172.283227,-9418.149754
885.733411,76.570323,172.283227,-9418.149754
885.734038,153.140646,133.998066,-9456.434915
885.734666,76.570323,153.140646,-9418.149754
885.735293,38.285162,191.425808,-9418.149754
885.735921,76.570323,153.140646,-9494.720077
885.736548,76.570323,153.140646,-9418.149754
885.737176,153.140646,153.140646,-9494.720077
885.737803,76.570323,114.855485,-9418.149754
885.738431,76.570323,114.855485,-9418.149754
885.739058,133.998066,114.855485,-9475.577496
885.739685,76.570323,153.140646,-9418.149754
885.740313,114.855485,153.140646,-9360.722011
885.740940,95.712904,95.712904,-9399.007173
885.741568,76.570323,114.855485,-9437.292334
885.742195,133.998066,133.998066,-9399.007173
885.742823,133.998066,114.855485,-9418.149754
885.743450,38.285162,114.855485,-9437.292334
885.744078,133.998066,114.855485,-9418.149754
885.744705,133.998066,133.998066,-9437.292334
885.745333,76.570323,153.140646,-9437.292334
885.745960,76.570323,114.855485,-9437.292334
885.746587,76.570323,114.855485,-9418.149754
885.747215,153.140646,133.998066,-9399.007173
885.747842,76.570323,114.855485,-9475.577496
885.748470,38.285162,114.855485,-9437.292334
885.749097,38.285162,210.568389,-9437.292334
885.749725,114.855485,95.712904,-9494.720077
885.750352,172.283227,95.712904,-9399.007173
885.750980,76.570323,114.855485,-9418.149754
885.751607,153.140646,133.998066,-9399.007173
885.752235,133.998066,114.855485,-9456.434915
885.752862,114.855485,95.712904,-9399.007173
885.753489,95.712904,76.570323,-9418.149754
885.754117,95.712904,95.712904,-9399.007173
885.754744,114.855485,95.712904,-9399.007173
885.755372,76.570323,114.855485,-9418.149754
885.755999,76.570323,153.140646,-9418.149754
885.756627,95.712904,114.855485,-9475.577496
885.757254,95.712904,95.712904,-9399.007173
885.757882,57.427742,133.998066,-9360.722011
885.758509,76.570323,114.855485,-9437.292334
885.759137,38.285162,114.855485,-9437.292334
885.759764,76.570323,172.283227,-9418.149754
885.760391,76.570323,114.855485,-9475.577496
885.761019,76.570323,114.855485,-9456.434915
885.761646,133.998066,153.140646,-9456.434915
885.762274,133.998066,172.283227,-9437.292334
885.762901,76.570323,114.855485,-9418.149754
885.763529,76.570323,114.855485,-9418.149754
885.764156,76.570323,114.855485,-9475.577496
885.764784,76.570323,114.855485,-9418.149754
885.765411,76.570323,114.855485,-9418.149754
885.766039,76.570323,114.855485,-9418.149754
885.766666,76.570323,172.283227,-9418.149754
885.767293,38.285162,114.855485,-9418.149754
885.767921,133.998066,172.283227,-9418.149754
885.768548,133.998066,153.140646,-9418.149754
885.769176,76.570323,114.855485,-9418.149754
885.769803,76.570323,153.140646,-9418.149754
885.770431,153.140646,133.998066,-9399.007173
885.771058,133.998066,191.425808,-9456.434915
885.771686,133.998066,133.998066,-9399.007173
885.772313,133.998066,210.568389,-9418.149754
885.772941,76.570323,114.855485,-9418.149754
885.773568,133.998066,114.855485,-9475.577496
885.774195,172.283227,114.855485,-9399.007173
885.774823,133.998066,114.855485,-9418.149754
885.775450,76.570323,153.140646,-9456.434915
885.776078,133.998066,114.855485,-9456.434915
885.776705,153.140646,153.140646,-9399.007173
885.777333,153.140646,153.140646,-9494.720077
885.777960,133.998066,191.425808,-9399.007173
885.778588,76.570323,172.283227,-9456.434915
885.779215,38.285162,114.855485,-9475.577496
885.779843,76.570323,114.855485,-9418.149754
885.780470,153.140646,191.425808,-9399.007173
885.781098,133.998066,114.855485,-9494.720077
885.781725,95.712904,95.712904,-9399.007173
885.782352,153.140646,133.998066,-9399.007173
885.782980,133.998066,229.710970,-9418.149754
885.783607,57.427742,114.855485,-9494.720077
885.784235,133.998066,210.568389,-9418.149754
885.784862,153.140646,133.998066,-9437.292334
885.785490,38.285162,114.855485,-9456.434915
885.786117,95.712904,114.855485,-9418.149754
885.786745,95.712904,114.855485,-9418.149754
885.787372,153.140646,133.998066,-9399.007173
885.788000,133.998066,191.425808,-9437.292334
885.788627,153.140646,133.998066,-9437.292334
885.789254,133.998066,114.855485,-9533.005238
885.789882,76.570323,172.283227,-9418.149754
885.790509,38.285162,210.568389,-9418.149754
885.791137,76.570323,153.140646,-9418.149754
885.791764,133.998066,114.855485,-9437.292334
885.792392,76.570323,153.140646,-9418.149754
885.793019,95.712904,114.855485,-9437.292334
885.793647,172.283227,76.570323,-9437.292334
885.794274,133.998066,114.855485,-9418.149754
885.794902,114.855485,95.712904,-9399.007173
885.795529,133.998066,153.140646,-9418.149754
885.796156,114.855485,76.570323,-9418.149754
885.796784,133.998066,114.855485,-9418.149754
885.797411,76.570323,114.855485,-9418.149754
885.798039,172.283227,114.855485,-9379.864592
885.798666,76.570323,114.855485,-9418.149754
885.799294,114.855485,95.712904,-9399.007173
885.799921,76.570323,114.855485,-9418.149754
885.800549,133.998066,114.855485,-9418.149754
885.801176,76.570323,114.855485,-9418.149754
885.801804,76.570323,76.570323,-9379.864592
885.802431,38.285162,191.425808,-9418.149754
885.803058,76.570323,114.855485,-9456.434915
885.803686,95.712904,114.855485,-9418.149754
885.804313,133.998066,114.855485,-9418.149754
885.804941,76.570323,172.283227,-9418.149754
885.805568,153.140646,114.855485,-9437.292334
885.806196,133.998066,133.998066,-9399.007173
885.806823,76.570323,114.855485,-9418.149754
885.807451,76.570323,114.855485,-9418.149754
885.808078,133.998066,114.855485,-9418.149754
885.808706,95.712904,114.855485,-9475.577496
885.809333,133.998066,114.855485,-9418.149754
885.809960,172.283227,76.570323,-9456.434915
885.810588,95.712904,172.283227,-9418.149754
885.811215,76.570323,172.283227,-9418.149754
885.811843,76.570323,229.710970,-9456.434915
885.812470,133.998066,114.855485,-9418.149754
885.813098,76.570323,210.568389,-9456.434915
885.813725,133.998066,133.998066,-9399.007173
885.814352,76.570323,114.855485,-9437.292334
885.814980,95.712904,191.425808,-9437.292334
885.815607,133.998066,172.283227,-9494.720077
885.816235,153.140646,172.283227,-9399.007173
885.816862,76.570323,153.140646,-9418.149754
885.817490,133.998066,114.855485,-9418.149754
885.818117,76.570323,153.140646,-9418.149754
885.818744,95.712904,114.855485,-9399.007173
885.819372,38.285162,114.855485,-9418.149754
885.819999,114.855485,114.855485,-9418.149754
885.820627,76.570323,114.855485,-9418.149754
885.821254,133.998066,114.855485,-9456.434915
885.821882,133.998066,172.283227,-9418.149754
885.822509,153.140646,191.425808,-9399.007173
885.823136,76.570323,172.283227,-9437.292334
885.823764,38.285162,153.140646,-9418.149754
885.824391,57.427742,172.283227,-9360.722011
885.825019,95.712904,133.998066,-9360.722011
885.825646,153.140646,172.283227,-9399.007173
885.826274,133.998066,153.140646,-9456.434915
885.826901,76.570323,114.855485,-9418.149754
885.827528,95.712904,172.283227,-9437.292334
885.828156,133.998066,153.140646,-9437.292334
885.828783,133.998066,114.855485,-9418.149754
885.829411,133.998066,114.855485,-9418.149754
885.830038,114.855485,210.568389,-9418.149754
885.830666,153.140646,133.998066,-9399.007173
885.831293,76.570323,114.855485,-9399.007173
885.831920,76.570323,114.855485,-9437.292334
885.832548,38.285162,114.855485,-9418.149754
885.833175,133.998066,133.998066,-9399.007173
885.833803,153.140646,153.140646,-9399.007173
885.834430,76.570323,114.855485,-9418.149754
885.835058,76.570323,153.140646,-9418.149754
885.835685,76.570323,210.568389,-9418.149754
885.836312,133.998066,210.568389,-9418.149754
885.836940,76.570323,210.568389,-9418.149754
885.837567,38.285162,114.855485,-9418.149754
885.838195,133.998066,172.283227,-9437.292334
885.838822,153.140646,153.140646,-9456.434915
885.839450,153.140646,133.998066,-9456.434915
885.840077,114.855485,95.712904,-9399.007173
885.840704,133.998066,153.140646,-9456.434915
885.841332,76.570323,153.140646,-9418.149754
885.841959,95.712904,133.998066,-9360.722011
885.842587,133.998066,172.283227,-9418.149754
885.843214,76.570323,153.140646,-9418.149754
885.843842,19.142581,114.855485,-9418.149754
885.844469,38.285162,114.855485,-9418.149754
885.845096,133.998066,76.570323,-9379.864592
885.845724,95.712904,95.712904,-9399.007173
885.846351,57.427742,95.712904,-9399.007173
885.846979,153.140646,133.998066,-9399.007173
885.847606,114.855485,95.712904,-9437.292334
885.848234,76.570323,153.140646,-9437.292334
885.848861,38.285162,114.855485,-9437.292334
885.849488,38.285162,153.140646,-9456.434915
885.850116,133.998066,114.855485,-9418.149754
885.850743,76.570323,153.140646,-9418.149754
885.851371,95.712904,114.855485,-9399.007173
885.851998,76.570323,210.568389,-9418.149754
885.852626,76.570323,210.568389,-9456.434915
885.853253,133.998066,210.568389,-9418.149754
885.853880,153.140646,172.283227,-9494.720077
885.854508,133.998066,153.140646,-9437.292334
885.855135,133.998066,153.140646,-9418.149754
885.855763,76.570323,114.855485,-9437.292334
885.856390,133.998066,114.855485,-9456.434915
885.857018,153.140646,133.998066,-9494.720077
885.857645,133.998066,172.283227,-9456.434915
885.858272,133.998066,172.283227,-9456.434915
885.858900,76.570323,114.855485,-9418.149754
885.859527,133.998066,172.283227,-9418.149754
885.860155,133.998066,153.140646,-9418.149754
885.860782,153.140646,133.998066,-9399.007173
885.861410,38.285162,114.855485,-9437.292334
885.862037,153.140646,114.855485,-9418.149754
885.862664,133.998066,114.855485,-9418.149754
885.863292,133.998066,114.855485,-9418.149754
885.863919,153.140646,133.998066,-9399.007173
885.864547,133.998066,114.855485,-9418.149754
885.865174,133.998066,133.998066,-9437.292334
885.865802,76.570323,172.283227,-9456.434915
885.866429,76.570323,114.855485,-9418.149754
885.867056,95.712904,114.855485,-9360.722011
885.867684,95.712904,95.712904,-9456.434915
885.868311,133.998066,114.855485,-9456.434915
885.868939,133.998066,153.140646,-9418.149754
885.869566,114.855485,133.998066,-9418.149754
885.870194,76.570323,114.855485,-9494.720077
885.870821,76.570323,114.855485,-9456.434915
885.871448,114.855485,95.712904,-9437.292334
885.872076,76.570323,153.140646,-9418.149754
885.872703,153.140646,153.140646,-9437.292334
885.873331,133.998066,210.568389,-9456.434915
885.873958,133.998066,172.283227,-9437.292334
885.874586,38.285162,153.140646,-9418.149754
885.875213,76.570323,114.855485,-9418.149754
885.875840,76.570323,114.855485,-9418.149754
885.876468,153.140646,153.140646,-9418.149754
885.877095,133.998066,133.998066,-9437.292334
885.877723,95.712904,114.855485,-9418.149754
885.878350,133.998066,133.998066,-9494.720077
885.878978,19.142581,114.855485,-9418.149754
885.879605,57.427742,114.855485,-9418.149754
885.880232,76.570323,114.855485,-9418.149754
885.880860,76.570323,172.283227,-9418.149754
885.881487,76.570323,172.283227,-9418.149754
885.882115,114.855485,95.712904,-9456.434915
885.882742,133.998066,133.998066,-9456.434915
885.883370,133.998066,114.855485,-9494.720077
885.883997,76.570323,114.855485,-9456.434915
885.884624,133.998066,133.998066,-9399.007173
885.885252,114.855485,95.712904,-9399.007173
885.885879,76.570323,114.855485,-9418.149754
885.886507,114.855485,95.712904,-9399.007173
885.887134,95.712904,114.855485,-9418.149754
885.887762,133.998066,114.855485,-9437.292334
885.888389,153.140646,133.998066,-9399.007173
885.889016,133.998066,114.855485,-9437.292334
885.889644,76.570323,210.568389,-9437.292334
885.890271,153.140646,133.998066,-9399.007173
885.890899,133.998066,114.855485,-9418.149754
885.891526,76.570323,172.283227,-9437.292334
885.892154,38.285162,210.568389,-9456.434915
885.892781,38.285162,153.140646,-9418.149754
885.893408,76.570323,153.140646,-9418.149754
885.894036,57.427742,95.712904,-9456.434915
885.894663,76.570323,114.855485,-9437.292334
885.895291,76.570323,172.283227,-9418.149754
885.895918,38.285162,114.855485,-9418.149754
885.896546,153.140646,133.998066,-9399.007173
885.897173,57.427742,95.712904,-9399.007173
885.897800,76.570323,153.140646,-9418.149754
885.898428,133.998066,210.568389,-9456.434915
885.899055,133.998066,133.998066,-9399.007173
885.899683,95.712904,95.712904,-9399.007173
885.900310,95.712904,114.855485,-9456.434915
885.900938,133.998066,114.855485,-9418.149754
885.901565,38.285162,114.855485,-9418.149754
885.902192,172.283227,210.568389,-9456.434915
885.902820,95.712904,172.283227,-9360.722011
885.903447,114.855485,95.712904,-9399.007173
885.904075,172.283227,95.712904,-9437.292334
885.904702,114.855485,133.998066,-9360.722011
885.905329,133.998066,172.283227,-9418.149754
885.905957,38.285162,114.855485,-9418.149754
885.906584,76.570323,114.855485,-9418.149754
885.907212,76.570323,114.855485,-9418.149754
885.907839,19.142581,191.425808,-9456.434915
885.908467,76.570323,153.140646,-9360.722011
885.909094,133.998066,153.140646,-9399.007173
885.909721,76.570323,153.140646,-9418.149754
885.910349,133.998066,114.855485,-9437.292334
885.910976,114.855485,114.855485,-9379.864592
885.911603,133.998066,114.855485,-9437.292334
885.912231,153.140646,133.998066,-9456.434915
885.912858,76.570323,114.855485,-9418.149754
885.913485,133.998066,114.855485,-9418.149754
885.914113,133.998066,210.568389,-9418.149754
885.914740,76.570323,153.140646,-9418.149754
885.915367,38.285162,95.712904,-9399.007173
885.915994,76.570323,114.855485,-9456.434915
885.916622,76.570323,114.855485,-9418.149754
885.917249,133.998066,114.855485,-9437.292334
885.917876,76.570323,210.568389,-9437.292334
885.918504,133.998066,153.140646,-9456.434915
885.919131,76.570323,172.283227,-9418.149754
885.919758,95.712904,95.712904,-9494.720077
885.920386,76.570323,114.855485,-9418.149754
885.921013,76.570323,153.140646,-9418.149754
885.921640,133.998066,114.855485,-9418.149754
885.922267,76.570323,172.283227,-9475.577496
885.922895,38.285162,153.140646,-9418.149754
885.923522,76.570323,172.283227,-9456.434915
885.924149,95.712904,114.855485,-9399.007173
885.924777,76.570323,114.855485,-9418.149754
885.925404,76.570323,114.855485,-9418.149754
885.926031,133.998066,114.855485,-9494.720077
885.926659,133.998066,114.855485,-9418.149754
885.927286,76.570323,114.855485,-9475.577496
885.927913,76.570323,95.712904,-9437.292334
885.928540,38.285162,153.140646,-9418.149754
885.929168,76.570323,172.283227,-9475.577496
885.929795,38.285162,114.855485,-9437.292334
885.930422,95.712904,133.998066,-9360.722011
885.931050,95.712904,153.140646,-9437.292334
885.931677,76.570323,210.568389,-9418.149754
885.932304,133.998066,153.140646,-9418.149754
885.932932,76.570323,114.855485,-9418.149754
885.933559,95.712904,114.855485,-9456.434915
885.934186,114.855485,95.712904,-9399.007173
885.934813,76.570323,114.855485,-9418.149754
885.935441,76.570323,114.855485,-9456.434915
885.936068,76.570323,114.855485,-9475.577496
885.936695,153.140646,133.998066,-9399.007173
885.937323,191.425808,210.568389,-9399.007173
885.937950,38.285162,114.855485,-9437.292334
885.938577,95.712904,153.140646,-9418.149754
885.939205,76.570323,153.140646,-9456.434915
885.939832,153.140646,133.998066,-9399.007173
885.940459,133.998066,172.283227,-9494.720077
885.941086,133.998066,229.710970,-9456.434915
885.941714,76.570323,210.568389,-9418.149754
885.942341,76.570323,114.855485,-9418.149754
885.942968,133.998066,114.855485,-9418.149754
885.943596,114.855485,76.570323,-9418.149754
885.944223,133.998066,153.140646,-9437.292334
885.944850,153.140646,133.998066,-9437.292334
885.945478,172.283227,76.570323,-9418.149754
885.946105,133.998066,133.998066,-9399.007173
885.946732,38.285162,114.855485,-9418.149754
885.947359,57.427742,172.283227,-9418.149754
885.947987,76.570323,210.568389,-9437.292334
885.948614,38.285162,114.855485,-9475.577496
885.949241,76.570323,114.855485,-9437.292334
885.949869,76.570323,114.855485,-9437.292334
885.950496,76.570323,153.140646,-9437.292334
885.951123,133.998066,210.568389,-9360.722011
885.951751,38.285162,210.568389,-9418.149754
885.952378,57.427742,38.285162,-9399.007173
885.953005,95.712904,95.712904,-9456.434915
885.953632,76.570323,114.855485,-9437.292334
885.954260,38.285162,114.855485,-9418.149754
885.954887,76.570323,114.855485,-9418.149754
885.955514,133.998066,114.855485,-9456.434915
885.956142,133.998066,114.855485,-9475.577496
885.956769,38.285162,114.855485,-9418.149754
885.957396,153.140646,133.998066,-9399.007173
885.958024,133.998066,133.998066,-9437.292334
885.958651,133.998066,172.283227,-9494.720077
885.959278,114.855485,95.712904,-9437.292334
885.959905,76.570323,172.283227,-9456.434915
885.960533,38.285162,172.283227,-9418.149754
885.961160,133.998066,153.140646,-9418.149754
885.961787,76.570323,114.855485,-9418.149754
885.962415,95.712904,114.855485,-9399.007173
885.963042,38.285162,210.568389,-9418.149754
885.963669,76.570323,172.283227,-9456.434915
885.964297,38.285162,114.855485,-9437.292334
885.964924,76.570323,114.855485,-9456.434915
885.965551,114.855485,153.140646,-9360.722011
885.966178,153.140646,172.283227,-9379.864592
885.966806,38.285162,114.855485,-9418.149754
885.967433,76.570323,172.283227,-9437.292334
885.968060,76.570323,114.855485,-9418.149754
885.968688,95.712904,153.140646,-9360.722011
885.969315,172.283227,95.712904,-9456.434915
885.969942,153.140646,133.998066,-9494.720077
885.970570,133.998066,133.998066,-9399.007173
885.971197,133.998066,153.140646,-9475.577496
885.971824,133.998066,114.855485,-9475.577496
885.972451,95.712904,153.140646,-9418.149754
885.973079,133.998066,114.855485,-9418.149754
885.973706,133.998066,133.998066,-9399.007173
885.974333,38.285162,38.285162,-9341.579430
885.974961,133.998066,114.855485,-9360.722011
885.975588,76.570323,114.855485,-9418.149754
885.976215,19.142581,114.855485,-9475.577496
885.976843,57.427742,133.998066,-9360.722011
885.977470,76.570323,210.568389,-9418.149754
885.978097,76.570323,172.283227,-9418.149754
885.978724,133.998066,172.283227,-9418.149754
885.979352,76.570323,114.855485,-9360.722011
885.979979,76.570323,114.855485,-9418.149754
885.980606,76.570323,153.140646,-9418.149754
885.981234,133.998066,114.855485,-9437.292334
885.981861,76.570323,114.855485,-9418.149754
885.982488,76.570323,114.855485,-9418.149754
885.983116,76.570323,172.283227,-9418.149754
885.983743,133.998066,153.140646,-9418.149754
885.984370,38.285162,114.855485,-9418.149754
885.984997,133.998066,114.855485,-9418.149754
885.985625,95.712904,95.712904,-9399.007173
885.986252,76.570323,114.855485,-9399.007173
885.986879,76.570323,114.855485,-9418.149754
885.987507,114.855485,95.712904,-9437.292334
885.988134,133.998066,114.855485,-9418.149754
885.988761,133.998066,114.855485,-9418.149754
885.989389,76.570323,114.855485,-9418.149754
885.990016,95.712904,95.712904,-9399.007173
885.990643,153.140646,172.283227,-9399.007173
885.991270,133.998066,114.855485,-9418.149754
885.991898,57.427742,95.712904,-9399.007173
885.992525,76.570323,172.283227,-9456.434915
885.993152,133.998066,210.568389,-9456.434915
885.993780,76.570323,114.855485,-9418.149754
885.994407,95.712904,133.998066,-9418.149754
885.995034,153.140646,133.998066,-9399.007173
885.995662,76.570323,153.140646,-9437.292334
885.996289,133.998066,153.140646,-9418.149754
885.996916,76.570323,114.855485,-9456.434915
885.997543,76.570323,114.855485,-9418.149754
885.998171,76.570323,114.855485,-9418.149754
885.998798,38.285162,114.855485,-9456.434915
885.999425,76.570323,114.855485,-9360.722011
886.000053,133.998066,114.855485,-9418.149754
886.000680,153.140646,153.140646,-9456.434915
886.001307,114.855485,95.712904,-9399.007173
886.001935,172.283227,114.855485,-9379.864592
886.002562,133.998066,114.855485,-9418.149754
886.003189,133.998066,114.855485,-9418.149754
886.003816,114.855485,114.855485,-9437.292334
886.004444,76.570323,153.140646,-9437.292334
886.005071,95.712904,114.855485,-9418.149754
886.005698,133.998066,114.855485,-9437.292334
886.006326,95.712904,114.855485,-9418.149754
886.006953,114.855485,95.712904,-9399.007173
886.007580,76.570323,114.855485,-9418.149754
886.008208,76.570323,153.140646,-9418.149754
886.008835,133.998066,172.283227,-9418.149754
886.009462,95.712904,153.140646,-9437.292334
886.010089,76.570323,114.855485,-9437.292334
886.010717,95.712904,114.855485,-9418.149754
886.011344,76.570323,172.283227,-9418.149754
886.011972,57.427742,133.998066,-9360.722011
886.012599,76.570323,172.283227,-9494.720077
886.013226,76.570323,153.140646,-9533.005238
886.013854,38.285162,114.855485,-9418.149754
886.014481,95.712904,95.712904,-9399.007173
886.015109,172.283227,76.570323,-9418.149754
886.015736,172.283227,133.998066,-9456.434915
886.016363,133.998066,133.998066,-9399.007173
886.016991,38.285162,114.855485,-9418.149754
886.017618,95.712904,172.283227,-9418.149754
886.018246,76.570323,114.855485,-9456.434915
886.018873,133.998066,210.568389,-9456.434915
886.019500,76.570323,114.855485,-9456.434915
886.020128,0.000000,114.855485,-9399.007173
886.020755,133.998066,172.283227,-9418.149754
886.021383,114.855485,95.712904,-9399.007173
886.022010,153.140646,172.283227,-9494.720077
886.022637,133.998066,114.855485,-9533.005238
886.023265,133.998066,114.855485,-9418.149754
886.023892,153.140646,153.140646,-9437.292334
886.024520,76.570323,153.140646,-9437.292334
886.025147,133.998066,114.855485,-9418.149754
886.025774,133.998066,114.855485,-9437.292334
886.026402,76.570323,114.855485,-9418.149754
886.027029,76.570323,210.568389,-9418.149754
886.027657,133.998066,172.283227,-9418.149754
886.028284,133.998066,172.283227,-9418.149754
886.028911,133.998066,114.855485,-9437.292334
886.029539,133.998066,133.998066,-9399.007173
886.030166,133.998066,172.283227,-9418.149754
886.030794,153.140646,133.998066,-9399.007173
886.031421,95.712904,133.998066,-9418.149754
886.032048,38.285162,114.855485,-9456.434915
886.032676,133.998066,114.855485,-9418.149754
886.033303,57.427742,153.140646,-9418.149754
886.033931,76.570323,114.855485,-9418.149754
886.034558,95.712904,114.855485,-9418.149754
886.035185,133.998066,114.855485,-9418.149754
886.035813,38.285162,172.283227,-9418.149754
886.036440,76.570323,191.425808,-9360.722011
886.037068,95.712904,172.283227,-9418.149754
886.037695,133.998066,114.855485,-9418.149754
886.038322,210.568389,133.998066,-9494.720077
886.038950,76.570323,114.855485,-9437.292334
886.039577,76.570323,114.855485,-9437.292334
886.040205,38.285162,114.855485,-9418.149754
886.040832,76.570323,114.855485,-9418.149754
886.041459,38.285162,114.855485,-9437.292334
886.042087,133.998066,114.855485,-9456.434915
886.042714,133.998066,114.855485,-9418.149754
886.043342,76.570323,153.140646,-9418.149754
886.043969,76.570323,114.855485,-9418.149754
886.044596,133.998066,114.855485,-9418.149754
886.045224,133.998066,114.855485,-9418.149754
886.045851,133.998066,133.998066,-9399.007173
886.046479,38.285162,114.855485,-9418.149754
886.047106,172.283227,76.570323,-9418.149754
886.047733,76.570323,114.855485,-9418.149754
886.048361,114.855485,133.998066,-9360.722011
886.048988,38.285162,114.855485,-9418.149754
886.049616,95.712904,95.712904,-9399.007173
886.050243,76.570323,114.855485,-9475.577496
886.050870,133.998066,114.855485,-9456.434915
886.051498,38.285162,114.855485,-9456.434915
886.052125,38.285162,172.283227,-9418.149754
886.052753,38.285162,114.855485,-9456.434915
886.053380,95.712904,114.855485,-9418.149754
886.054007,76.570323,114.855485,-9418.149754
886.054635,153.140646,153.140646,-9399.007173
886.055262,153.140646,153.140646,-9399.007173
886.055890,133.998066,114.855485,-9437.292334
886.056517,76.570323,114.855485,-9475.577496
886.057144,95.712904,114.855485,-9418.149754
886.057772,76.570323,114.855485,-9418.149754
886.058399,76.570323,172.283227,-9418.149754
886.059027,76.570323,153.140646,-9437.292334
886.059654,95.712904,95.712904,-9437.292334
886.060281,133.998066,114.855485,-9418.149754
886.060909,76.570323,114.855485,-9418.149754
886.061536,76.570323,210.568389,-9418.149754
886.062164,95.712904,114.855485,-9456.434915
886.062791,133.998066,153.140646,-9475.577496
886.063418,133.998066,153.140646,-9456.434915
886.064046,95.712904,133.998066,-9418.149754
886.064673,133.998066,114.855485,-9418.149754
886.065301,76.570323,114.855485,-9399.007173
886.065928,172.283227,114.855485,-9399.007173
886.066555,133.998066,172.283227,-9456.434915
886.067183,133.998066,114.855485,-9418.149754
886.067810,133.998066,133.998066,-9494.720077
886.068438,76.570323,153.140646,-9456.434915
886.069065,95.712904,229.710970,-9418.149754
886.069692,114.855485,133.998066,-9360.722011
886.070320,133.998066,172.283227,-9418.149754
886.070947,114.855485,95.712904,-9399.007173
886.071575,133.998066,114.855485,-9437.292334
886.072202,76.570323,153.140646,-9475.577496
886.072829,133.998066,114.855485,-9456.434915
886.073457,57.427742,95.712904,-9379.864592
886.074084,133.998066,114.855485,-9418.149754
886.074712,76.570323,114.855485,-9418.149754
886.075339,114.855485,95.712904,-9399.007173
886.075966,133.998066,114.855485,-9437.292334
886.076594,133.998066,172.283227,-9456.434915
886.077221,76.570323,153.140646,-9360.722011
886.077849,76.570323,114.855485,-9418.149754
886.078476,133.998066,114.855485,-9456.434915
886.079103,76.570323,114.855485,-9437.292334
886.079731,133.998066,153.140646,-9418.149754
886.080358,153.140646,172.283227,-9399.007173
886.080986,133.998066,133.998066,-9399.007173
886.081613,133.998066,114.855485,-9456.434915
886.082240,76.570323,172.283227,-9533.005238
886.082868,76.570323,114.855485,-9494.720077
886.083495,153.140646,210.568389,-9456.434915
886.084123,76.570323,114.855485,-9437.292334
886.084750,76.570323,210.568389,-9456.434915
886.085377,76.570323,172.283227,-9437.292334
886.086005,76.570323,114.855485,-9437.292334
886.086632,95.712904,210.568389,-9456.434915
886.087260,76.570323,114.855485,-9456.434915
886.087887,95.712904,133.998066,-9418.149754
886.088514,38.285162,153.140646,-9418.149754
886.089142,114.855485,172.283227,-9360.722011
886.089769,114.855485,133.998066,-9360.722011
886.090397,114.855485,95.712904,-9399.007173
886.091024,133.998066,172.283227,-9456.434915
886.091651,133.998066,210.568389,-9475.577496
886.092279,76.570323,153.140646,-9418.149754
886.092906,95.712904,133.998066,-9418.149754
886.093534,76.570323,153.140646,-9418.149754
886.094161,19.142581,172.283227,-9418.149754
886.094788,76.570323,153.140646,-9418.149754
886.095416,76.570323,114.855485,-9418.149754
886.096043,38.285162,172.283227,-9418.149754
886.096671,95.712904,172.283227,-9360.722011
886.097298,95.712904,172.283227,-9418.149754
886.097925,76.570323,153.140646,-9418.149754
886.098553,133.998066,153.140646,-9418.149754
886.099180,133.998066,153.140646,-9418.149754
886.099808,133.998066,114.855485,-9418.149754
886.100435,133.998066,114.855485,-9418.149754
886.101062,133.998066,114.855485,-9437.292334
886.101690,133.998066,229.710970,-9437.292334
886.102317,133.998066,114.855485,-9456.434915
886.102945,76.570323,153.140646,-9418.149754
886.103572,95.712904,133.998066,-9418.149754
886.104199,95.712904,114.855485,-9418.149754
886.104827,133.998066,153.140646,-9418.149754
886.105454,133.998066,153.140646,-9399.007173
886.106082,76.570323,172.283227,-9418.149754
886.106709,38.285162,114.855485,-9437.292334
886.107336,76.570323,153.140646,-9437.292334
886.107964,38.285162,95.712904,-9399.007173
886.108591,76.570323,210.568389,-9418.149754
886.109219,133.998066,114.855485,-9533.005238
886.109846,76.570323,172.283227,-9418.149754
886.110473,38.285162,153.140646,-9418.149754
886.111101,133.998066,133.998066,-9456.434915
886.111728,57.427742,191.425808,-9360.722011
886.112355,133.998066,114.855485,-9418.149754
886.112983,133.998066,172.283227,-9418.149754
886.113610,95.712904,153.140646,-9418.149754
886.114237,76.570323,95.712904,-9456.434915
886.114865,76.570323,114.855485,-9418.149754
886.115492,133.998066,114.855485,-9494.720077
886.116119,76.570323,114.855485,-9418.149754
886.116747,133.998066,153.140646,-9418.149754
886.117374,153.140646,133.998066,-9399.007173
886.118001,133.998066,153.140646,-9437.292334
886.118628,133.998066,114.855485,-9418.149754
886.119256,133.998066,133.998066,-9399.007173
886.119883,114.855485,133.998066,-9437.292334
886.120510,95.712904,114.855485,-9418.149754
886.121138,38.285162,114.855485,-9437.292334
886.121765,95.712904,95.712904,-9437.292334
886.122392,57.427742,95.712904,-9399.007173
886.123020,133.998066,76.570323,-9379.864592
886.123647,133.998066,172.283227,-9418.149754
886.124274,153.140646,133.998066,-9399.007173
886.124902,76.570323,114.855485,-9418.149754
886.125529,76.570323,114.855485,-9418.149754
886.126156,95.712904,210.568389,-9418.149754
886.126784,133.998066,210.568389,-9437.292334
886.127411,76.570323,172.283227,-9437.292334
886.128038,133.998066,172.283227,-9418.149754
886.128666,38.285162,114.855485,-9418.149754
886.129293,95.712904,114.855485,-9494.720077
886.129920,76.570323,172.283227,-9456.434915
886.130548,133.998066,153.140646,-9456.434915
886.131175,76.570323,114.855485,-9475.577496
886.131802,153.140646,133.998066,-9456.434915
886.132429,153.140646,153.140646,-9418.149754
886.133057,95.712904,172.283227,-9418.149754
886.133684,57.427742,210.568389,-9418.149754
886.134311,76.570323,153.140646,-9418.149754
886.134939,95.712904,114.855485,-9437.292334
886.135566,95.712904,95.712904,-9399.007173
886.136193,76.570323,114.855485,-9475.577496
886.136821,172.283227,76.570323,-9437.292334
886.137448,76.570323,153.140646,-9437.292334
886.138075,38.285162,114.855485,-9418.149754
886.138703,133.998066,114.855485,-9475.577496
886.139330,76.570323,114.855485,-9418.149754
886.139957,76.570323,114.855485,-9418.149754
886.140585,76.570323,153.140646,-9418.149754
886.141212,133.998066,114.855485,-9418.149754
886.141839,133.998066,191.425808,-9437.292334
886.142467,76.570323,114.855485,-9418.149754
886.143094,133.998066,114.855485,-9418.149754
886.143721,76.570323,114.855485,-9418.149754
886.144349,133.998066,114.855485,-9533.005238
886.144976,38.285162,114.855485,-9418.149754
886.145603,133.998066,114.855485,-9475.577496
886.146231,133.998066,114.855485,-9533.005238
886.146858,133.998066,114.855485,-9456.434915
886.147485,95.712904,172.283227,-9418.149754
886.148112,76.570323,172.283227,-9456.434915
886.148740,76.570323,114.855485,-9437.292334
886.149367,76.570323,114.855485,-9418.149754
886.149994,76.570323,114.855485,-9418.149754
886.150622,38.285162,153.140646,-9475.577496
886.151249,38.285162,114.855485,-9456.434915
886.151876,76.570323,114.855485,-9418.149754
886.152504,76.570323,172.283227,-9456.434915
886.153131,133.998066,172.283227,-9437.292334
886.153758,95.712904,172.283227,-9418.149754
886.154386,76.570323,172.283227,-9418.149754
886.155013,57.427742,133.998066,-9360.722011
886.155640,76.570323,114.855485,-9418.149754
886.156268,76.570323,114.855485,-9418.149754
886.156895,133.998066,114.855485,-9456.434915
886.157522,133.998066,114.855485,-9456.434915
886.158150,153.140646,133.998066,-9399.007173
886.158777,114.855485,95.712904,-9475.577496
886.159404,133.998066,114.855485,-9456.434915
886.160032,114.855485,95.712904,-9399.007173
886.160659,76.570323,153.140646,-9418.149754
886.161286,38.285162,114.855485,-9437.292334
886.161913,38.285162,114.855485,-9418.149754
886.162541,95.712904,133.998066,-9360.722011
886.163168,38.285162,114.855485,-9475.577496
886.163795,76.570323,153.140646,-9437.292334
886.164423,76.570323,114.855485,-9533.005238
886.165050,172.283227,114.855485,-9494.720077
886.165677,95.712904,114.855485,-9418.149754
886.166305,95.712904,95.712904,-9456.434915
886.166932,76.570323,172.283227,-9418.149754
886.167559,133.998066,114.855485,-9418.149754
886.168187,76.570323,229.710970,-9418.149754
886.168814,76.570323,210.568389,-9418.149754
886.169441,133.998066,114.855485,-9418.149754
886.170069,133.998066,172.283227,-9418.149754
886.170696,76.570323,114.855485,-9418.149754
886.171323,38.285162,114.855485,-9418.149754
886.171951,114.855485,95.712904,-9437.292334
886.172578,95.712904,133.998066,-9418.149754
886.173205,95.712904,153.140646,-9418.149754
886.173833,76.570323,114.855485,-9456.434915
886.174460,76.570323,114.855485,-9418.149754
886.175087,133.998066,114.855485,-9418.149754
886.175714,76.570323,153.140646,-9418.149754
886.176342,76.570323,172.283227,-9437.292334
886.176969,76.570323,114.855485,-9475.577496
886.177596,38.285162,172.283227,-9418.149754
886.178224,76.570323,210.568389,-9437.292334
886.178851,76.570323,229.710970,-9437.292334
886.179478,76.570323,153.140646,-9456.434915
886.180106,38.285162,114.855485,-9475.577496
886.180733,133.998066,153.140646,-9399.007173
886.181360,133.998066,210.568389,-9456.434915
886.181988,76.570323,172.283227,-9418.149754
886.182615,38.285162,114.855485,-9418.149754
886.183242,133.998066,133.998066,-9456.434915
886.183870,114.855485,95.712904,-9437.292334
886.184497,133.998066,114.855485,-9418.149754
886.185124,95.712904,172.283227,-9360.722011
886.185752,38.285162,210.568389,-9418.149754
886.186379,133.998066,114.855485,-9456.434915
886.187006,133.998066,172.283227,-9437.292334
886.187634,133.998066,133.998066,-9399.007173
886.188261,76.570323,114.855485,-9437.292334
886.188888,133.998066,210.568389,-9437.292334
886.189515,76.570323,114.855485,-9437.292334
886.190143,38.285162,191.425808,-9418.149754
886.190770,76.570323,172.283227,-9360.722011
886.191397,76.570323,210.568389,-9437.292334
886.192025,38.285162,114.855485,-9437.292334
886.192652,133.998066,133.998066,-9456.434915
886.193279,133.998066,172.283227,-9418.149754
886.193907,210.568389,153.140646,-9399.007173
886.194534,153.140646,133.998066,-9399.007173
886.195161,76.570323,172.283227,-9437.292334
886.195789,76.570323,114.855485,-9456.434915
886.196416,133.998066,114.855485,-9418.149754
886.197043,38.285162,153.140646,-9418.149754
886.197671,38.285162,153.140646,-9456.434915
886.198298,95.712904,114.855485,-9456.434915
886.198925,95.712904,95.712904,-9437.292334
886.199553,38.285162,114.855485,-9418.149754
886.200180,76.570323,114.855485,-9437.292334
886.200807,76.570323,172.283227,-9456.434915
886.201435,76.570323,210.568389,-9437.292334
886.202062,133.998066,172.283227,-9418.149754
886.202689,95.712904,114.855485,-9437.292334
886.203317,133.998066,172.283227,-9437.292334
886.203944,153.140646,153.140646,-9437.292334
886.204571,153.140646,153.140646,-9475.577496
886.205198,76.570323,114.855485,-9533.005238
886.205826,133.998066,172.283227,-9418.149754
886.206453,133.998066,210.568389,-9418.149754
886.207080,133.998066,114.855485,-9418.149754
886.207708,133.998066,172.283227,-9437.292334
886.208335,76.570323,153.140646,-9475.577496
886.208962,76.570323,114.855485,-9437.292334
886.209590,76.570323,172.283227,-9437.292334
886.210217,133.998066,114.855485,-9418.149754
886.210844,133.998066,133.998066,-9513.862658
886.211472,76.570323,114.855485,-9437.292334
886.212099,76.570323,114.855485,-9456.434915
886.212726,76.570323,95.712904,-9399.007173
886.213353,133.998066,172.283227,-9399.007173
886.213981,38.285162,114.855485,-9418.149754
886.214608,38.285162,210.568389,-9418.149754
886.215235,133.998066,114.855485,-9418.149754
886.215863,57.427742,95.712904,-9399.007173
886.216490,95.712904,95.712904,-9399.007173
886.217117,95.712904,95.712904,-9437.292334
886.217744,133.998066,114.855485,-9437.292334
886.218372,76.570323,114.855485,-9437.292334
886.218999,133.998066,153.140646,-9418.149754
886.219626,76.570323,114.855485,-9494.720077
886.220254,133.998066,133.998066,-9399.007173
886.220881,133.998066,172.283227,-9418.149754
886.221508,133.998066,114.855485,-9418.149754
886.222135,76.570323,114.855485,-9418.149754
886.222763,76.570323,114.855485,-9418.149754
886.223390,38.285162,172.283227,-9456.434915
886.224017,133.998066,210.568389,-9418.149754
886.224645,133.998066,172.283227,-9418.149754
886.225272,95.712904,191.425808,-9418.149754
886.225899,76.570323,172.283227,-9418.149754
886.226526,76.570323,114.855485,-9418.149754
886.227154,133.998066,172.283227,-9418.149754
886.227781,133.998066,210.568389,-9418.149754
886.228408,76.570323,114.855485,-9418.149754
886.229036,133.998066,114.855485,-9418.149754
886.229663,133.998066,153.140646,-9437.292334
886.230290,76.570323,153.140646,-9418.149754
886.230917,133.998066,153.140646,-9418.149754
886.231545,133.998066,114.855485,-9360.722011
886.232172,133.998066,153.140646,-9418.149754
886.232799,133.998066,114.855485,-9418.149754
886.233427,95.712904,172.283227,-9360.722011
886.234054,76.570323,114.855485,-9418.149754
886.234681,38.285162,172.283227,-9418.149754
886.235308,38.285162,153.140646,-9418.149754
886.235936,76.570323,210.568389,-9456.434915
886.236563,76.570323,172.283227,-9437.292334
886.237190,76.570323,114.855485,-9418.149754
886.237818,76.570323,153.140646,-9418.149754
886.238445,76.570323,114.855485,-9418.149754
886.239072,114.855485,133.998066,-9360.722011
886.239699,38.285162,114.855485,-9418.149754
886.240327,76.570323,95.712904,-9399.007173
886.240954,153.140646,172.283227,-9399.007173
886.241581,95.712904,95.712904,-9399.007173
886.242209,133.998066,133.998066,-9494.720077
886.242836,38.285162,114.855485,-9418.149754
886.243463,95.712904,114.855485,-9437.292334
886.244090,114.855485,76.570323,-9418.149754
886.244718,133.998066,172.283227,-9418.149754
886.245345,57.427742,95.712904,-9399.007173
886.245972,76.570323,114.855485,-9418.149754
886.246600,133.998066,133.998066,-9399.007173
886.247227,133.998066,153.140646,-9418.149754
886.247854,76.570323,114.855485,-9418.149754
886.248481,133.998066,153.140646,-9437.292334
886.249109,76.570323,114.855485,-9475.577496
886.249736,38.285162,114.855485,-9418.149754
886.250363,133.998066,114.855485,-9418.149754
886.250991,95.712904,95.712904,-9456.434915
886.251618,133.998066,133.998066,-9399.007173
886.252245,95.712904,95.712904,-9399.007173
886.252872,133.998066,172.283227,-9437.292334
886.253500,133.998066,114.855485,-9456.434915
886.254127,57.427742,191.425808,-9360.722011
886.254754,153.140646,210.568389,-9418.149754
886.255382,76.570323,172.283227,-9456.434915
886.256009,76.570323,153.140646,-9418.149754
886.256636,114.855485,95.712904,-9399.007173
886.257263,76.570323,114.855485,-9437.292334
886.257891,114.855485,95.712904,-9399.007173
886.258518,76.570323,114.855485,-9475.577496
886.259145,95.712904,95.712904,-9399.007173
886.259773,95.712904,114.855485,-9418.149754
886.260400,114.855485,76.570323,-9418.149754
886.261027,114.855485,172.283227,-9399.007173
886.261654,57.427742,95.712904,-9494.720077
886.262282,76.570323,172.283227,-9437.292334
886.262909,114.855485,153.140646,-9360.722011
886.263536,114.855485,229.710970,-9456.434915
886.264164,76.570323,210.568389,-9418.149754
886.264791,133.998066,210.568389,-9456.434915
886.265418,133.998066,114.855485,-9456.434915
886.266045,76.570323,114.855485,-9418.149754
886.266673,153.140646,133.998066,-9437.292334
886.267300,76.570323,114.855485,-9418.149754
886.267927,114.855485,95.712904,-9379.864592
886.268555,76.570323,114.855485,-9418.149754
886.269182,76.570323,114.855485,-9418.149754
886.269809,133.998066,172.283227,-9533.005238
886.270436,76.570323,114.855485,-9418.149754
886.271064,114.855485,95.712904,-9399.007173
886.271691,76.570323,114.855485,-9360.722011
886.272318,57.427742,95.712904,-9399.007173
886.272946,76.570323,172.283227,-9418.149754
886.273573,76.570323,210.568389,-9418.149754
886.274200,133.998066,114.855485,-9437.292334
886.274827,76.570323,114.855485,-9399.007173
886.275455,76.570323,172.283227,-9533.005238
886.276082,76.570323,114.855485,-9437.292334
886.276709,76.570323,114.855485,-9418.149754
886.277337,114.855485,95.712904,-9399.007173
886.277964,114.855485,153.140646,-9360.722011
886.278591,0.000000,114.855485,-9399.007173
886.279218,76.570323,172.283227,-9418.149754
886.279846,172.283227,76.570323,-9456.434915
886.280473,76.570323,172.283227,-9456.434915
886.281100,114.855485,229.710970,-9399.007173
886.281728,153.140646,133.998066,-9399.007173
886.282355,133.998066,153.140646,-9437.292334
886.282982,95.712904,153.140646,-9437.292334
886.283609,95.712904,133.998066,-9360.722011
886.284237,76.570323,114.855485,-9418.149754
886.284864,76.570323,114.855485,-9418.149754
886.285491,76.570323,153.140646,-9418.149754
886.286119,76.570323,114.855485,-9418.149754
886.286746,95.712904,229.710970,-9418.149754
886.287373,153.140646,133.998066,-9399.007173
886.288000,133.998066,114.855485,-9437.292334
886.288628,38.285162,114.855485,-9475.577496
886.289255,133.998066,210.568389,-9475.577496
886.289882,95.712904,172.283227,-9418.149754
886.290510,95.712904,95.712904,-9399.007173
886.291137,38.285162,172.283227,-9418.149754
886.291764,76.570323,114.855485,-9418.149754
886.292391,76.570323,210.568389,-9418.149754
886.293019,114.855485,153.140646,-9360.722011
886.293646,133.998066,133.998066,-9399.007173
886.294273,76.570323,114.855485,-9418.149754
886.294901,133.998066,133.998066,-9456.434915
886.295528,133.998066,172.283227,-9456.434915
886.296155,38.285162,114.855485,-9418.149754
886.296782,76.570323,95.712904,-9437.292334
886.297410,133.998066,114.855485,-9418.149754
886.298037,76.570323,114.855485,-9418.149754
886.298664,38.285162,114.855485,-9418.149754
886.299292,38.285162,172.283227,-9533.005238
886.299919,76.570323,114.855485,-9418.149754
886.300546,133.998066,153.140646,-9418.149754
886.301173,172.283227,76.570323,-9418.149754
886.301801,76.570323,133.998066,-9418.149754
886.302428,133.998066,133.998066,-9399.007173
886.303055,133.998066,114.855485,-9418.149754
886.303683,95.712904,95.712904,-9437.292334
886.304310,95.712904,114.855485,-9437.292334
886.304937,38.285162,114.855485,-9456.434915
886.305564,76.570323,172.283227,-9418.149754
886.306192,133.998066,153.140646,-9418.149754
886.306819,38.285162,153.140646,-9418.149754
886.307446,76.570323,114.855485,-9475.577496
886.308074,38.285162,114.855485,-9418.149754
886.308701,38.285162,114.855485,-9418.149754
886.309328,76.570323,114.855485,-9418.149754
886.309955,133.998066,153.140646,-9418.149754
886.310583,38.285162,114.855485,-9418.149754
886.311210,210.568389,133.998066,-9456.434915
886.311838,133.998066,172.283227,-9494.720077
886.312465,133.998066,114.855485,-9456.434915
886.313093,133.998066,172.283227,-9418.149754
886.313721,76.570323,153.140646,-9456.434915
886.314348,114.855485,114.855485,-9322.436850
886.314976,133.998066,114.855485,-9418.149754
886.315604,76.570323,153.140646,-9418.149754
886.316232,133.998066,114.855485,-9418.149754
886.316859,133.998066,191.425808,-9418.149754
886.317487,114.855485,95.712904,-9399.007173
886.318115,38.285162,153.140646,-9437.292334
886.318742,76.570323,114.855485,-9456.434915
886.319370,76.570323,172.283227,-9456.434915
886.319998,95.712904,114.855485,-9418.149754
886.320625,57.427742,114.855485,-9418.149754
886.321253,95.712904,114.855485,-9399.007173
886.321881,76.570323,191.425808,-9437.292334
886.322508,114.855485,153.140646,-9379.864592
886.323136,133.998066,114.855485,-9418.149754
886.323764,76.570323,114.855485,-9437.292334
886.324391,76.570323,153.140646,-9437.292334
886.325019,76.570323,210.568389,-9418.149754
886.325647,133.998066,172.283227,-9399.007173
886.326274,133.998066,114.855485,-9437.292334
886.326902,133.998066,153.140646,-9475.577496
886.327530,133.998066,114.855485,-9437.292334
886.328158,133.998066,76.570323,-9379.864592
886.328785,76.570323,172.283227,-9418.149754
886.329413,95.712904,95.712904,-9437.292334
886.330041,76.570323,114.855485,-9418.149754
886.330668,133.998066,114.855485,-9418.149754
886.331296,133.998066,114.855485,-9437.292334
886.331924,114.855485,133.998066,-9418.149754
886.332551,133.998066,114.855485,-9418.149754
886.333179,76.570323,153.140646,-9418.149754
886.333807,76.570323,114.855485,-9475.577496
886.334434,153.140646,153.140646,-9437.292334
886.335062,114.855485,76.570323,-9494.720077
886.335690,133.998066,114.855485,-9418.149754
886.336317,76.570323,114.855485,-9418.149754
886.336945,133.998066,114.855485,-9437.292334
886.337573,76.570323,114.855485,-9475.577496
886.338200,76.570323,210.568389,-9418.149754
886.338828,114.855485,153.140646,-9360.722011
886.339456,133.998066,114.855485,-9456.434915
886.340084,38.285162,210.568389,-9418.149754
886.340711,133.998066,172.283227,-9418.149754
886.341339,76.570323,210.568389,-9437.292334
886.341967,95.712904,133.998066,-9360.722011
886.342594,38.285162,114.855485,-9418.149754
886.343222,76.570323,210.568389,-9437.292334
886.343850,114.855485,172.283227,-9360.722011
886.344477,76.570323,114.855485,-9418.149754
886.345105,133.998066,114.855485,-9418.149754
886.345733,133.998066,153.140646,-9437.292334
886.346360,38.285162,191.425808,-9418.149754
886.346988,133.998066,114.855485,-9456.434915
886.347616,76.570323,153.140646,-9437.292334
886.348243,153.140646,133.998066,-9494.720077
886.348871,76.570323,229.710970,-9418.149754
886.349499,133.998066,153.140646,-9418.149754
886.350126,133.998066,114.855485,-9418.149754
886.350754,76.570323,172.283227,-9418.149754
886.351382,95.712904,172.283227,-9360.722011
886.352010,133.998066,114.855485,-9418.149754
886.352637,76.570323,172.283227,-9437.292334
886.353265,133.998066,114.855485,-9437.292334
886.353893,133.998066,172.283227,-9456.434915
886.354520,133.998066,133.998066,-9494.720077
886.355148,133.998066,210.568389,-9494.720077
886.355776,76.570323,114.855485,-9437.292334
886.356403,76.570323,114.855485,-9475.577496
886.357031,114.855485,133.998066,-9533.005238
886.357659,76.570323,114.855485,-9456.434915
886.358286,76.570323,114.855485,-9475.577496
886.358914,57.427742,114.855485,-9456.434915
886.359542,57.427742,153.140646,-9360.722011
886.360169,76.570323,172.283227,-9418.149754
886.360797,133.998066,153.140646,-9437.292334
886.361425,153.140646,133.998066,-9399.007173
886.362052,153.140646,133.998066,-9399.007173
886.362680,133.998066,153.140646,-9418.149754
886.363308,38.285162,114.855485,-9437.292334
886.363936,95.712904,114.855485,-9418.149754
886.364563,114.855485,172.283227,-9379.864592
886.365191,133.998066,172.283227,-9418.149754
886.365819,153.140646,153.140646,-9399.007173
886.366446,95.712904,114.855485,-9456.434915
886.367074,38.285162,172.283227,-9437.292334
886.367702,76.570323,153.140646,-9456.434915
886.368329,38.285162,114.855485,-9418.149754
886.368957,38.285162,114.855485,-9418.149754
886.369585,133.998066,172.283227,-9437.292334
886.370212,76.570323,114.855485,-9418.149754
886.370840,114.855485,95.712904,-9437.292334
886.371468,76.570323,153.140646,-9418.149754
886.372095,76.570323,114.855485,-9418.149754
886.372723,133.998066,114.855485,-9418.149754
886.373351,76.570323,114.855485,-9437.292334
886.373978,133.998066,114.855485,-9418.149754
886.374606,95.712904,114.855485,-9418.149754
886.375234,76.570323,229.710970,-9418.149754
886.375862,153.140646,210.568389,-9399.007173
886.376489,133.998066,153.140646,-9437.292334
886.377117,133.998066,133.998066,-9399.007173
886.377745,95.712904,114.855485,-9456.434915
886.378372,76.570323,153.140646,-9456.434915
886.379000,76.570323,114.855485,-9475.577496
886.379628,76.570323,114.855485,-9418.149754
886.380255,57.427742,114.855485,-9437.292334
886.380883,133.998066,114.855485,-9418.149754
886.381511,76.570323,114.855485,-9418.149754
886.382138,133.998066,172.283227,-9437.292334
886.382766,133.998066,153.140646,-9475.577496
886.383394,38.285162,114.855485,-9418.149754
886.384021,76.570323,114.855485,-9437.292334
886.384649,133.998066,76.570323,-9379.864592
886.385277,133.998066,153.140646,-9399.007173
886.385904,133.998066,114.855485,-9418.149754
886.386532,153.140646,133.998066,-9494.720077
886.387160,114.855485,114.855485,-9399.007173
886.387788,153.140646,172.283227,-9456.434915
886.388415,153.140646,133.998066,-9399.007173
886.389043,76.570323,210.568389,-9418.149754
886.389671,133.998066,172.283227,-9437.292334
886.390298,76.570323,95.712904,-9399.007173
886.390926,95.712904,114.855485,-9456.434915
886.391554,133.998066,153.140646,-9418.149754
886.392181,95.712904,172.283227,-9475.577496
886.392809,95.712904,133.998066,-9360.722011
886.393437,76.570323,172.283227,-9418.149754
886.394064,38.285162,114.855485,-9456.434915
886.394692,133.998066,210.568389,-9418.149754
886.395320,76.570323,133.998066,-9360.722011
886.395947,133.998066,114.855485,-9418.149754
886.396575,38.285162,114.855485,-9456.434915
886.397203,76.570323,114.855485,-9475.577496
886.397830,133.998066,210.568389,-9418.149754
886.398458,76.570323,114.855485,-9437.292334
886.399086,38.285162,153.140646,-9418.149754
886.399714,38.285162,172.283227,-9418.149754
886.400341,153.140646,153.140646,-9399.007173
886.400969,76.570323,114.855485,-9418.149754
886.401597,133.998066,153.140646,-9399.007173
886.402224,133.998066,153.140646,-9418.149754
886.402852,76.570323,114.855485,-9418.149754
886.403480,153.140646,210.568389,-9456.434915
886.404107,133.998066,172.283227,-9399.007173
886.404735,76.570323,210.568389,-9418.149754
886.405363,153.140646,153.140646,-9399.007173
886.405990,133.998066,172.283227,-9475.577496
886.406618,133.998066,114.855485,-9418.149754
886.407246,95.712904,172.283227,-9418.149754
886.407873,38.285162,114.855485,-9456.434915
886.408501,133.998066,114.855485,-9437.292334
886.409129,38.285162,153.140646,-9437.292334
886.409756,133.998066,172.283227,-9456.434915
886.410384,133.998066,153.140646,-9456.434915
886.411012,133.998066,114.855485,-9418.149754
886.411640,76.570323,114.855485,-9418.149754
886.412267,38.285162,114.855485,-9456.434915
886.412894,133.998066,114.855485,-9418.149754
886.413522,133.998066,172.283227,-9418.149754
886.414149,153.140646,114.855485,-9360.722011
886.414777,76.570323,172.283227,-9418.149754
886.415404,133.998066,172.283227,-9475.577496
886.416032,57.427742,95.712904,-9456.434915
886.416659,95.712904,172.283227,-9475.577496
886.417286,76.570323,114.855485,-9475.577496
886.417914,76.570323,172.283227,-9418.149754
886.418541,76.570323,172.283227,-9418.149754
886.419169,76.570323,172.283227,-9418.149754
886.419796,76.570323,133.998066,-9360.722011
886.420424,76.570323,114.855485,-9418.149754
886.421051,95.712904,153.140646,-9418.149754
886.421678,38.285162,210.568389,-9418.149754
886.422306,76.570323,153.140646,-9418.149754
886.422933,153.140646,133.998066,-9475.577496
886.423561,38.285162,114.855485,-9418.149754
886.424188,133.998066,153.140646,-9399.007173
886.424816,133.998066,172.283227,-9399.007173
886.425443,133.998066,172.283227,-9418.149754
886.426070,76.570323,153.140646,-9418.149754
886.426698,95.712904,114.855485,-9437.292334
886.427325,76.570323,210.568389,-9475.577496
886.427953,76.570323,114.855485,-9418.149754
886.428580,76.570323,153.140646,-9418.149754
886.429208,76.570323,114.855485,-9360.722011
886.429835,57.427742,95.712904,-9456.434915
886.430462,153.140646,133.998066,-9399.007173
886.431090,76.570323,172.283227,-9418.149754
886.431717,76.570323,210.568389,-9418.149754
886.432345,38.285162,114.855485,-9456.434915
886.432972,76.570323,114.855485,-9456.434915
886.433600,114.855485,95.712904,-9399.007173
886.434227,76.570323,153.140646,-9418.149754
886.434854,38.285162,114.855485,-9456.434915
886.435482,133.998066,114.855485,-9418.149754
886.436109,114.855485,95.712904,-9437.292334
886.436737,76.570323,114.855485,-9360.722011
886.437364,95.712904,133.998066,-9360.722011
886.437992,153.140646,172.283227,-9418.149754
886.438619,38.285162,114.855485,-9418.149754
886.439246,95.712904,95.712904,-9399.007173
886.439874,76.570323,172.283227,-9418.149754
886.440501,133.998066,114.855485,-9418.149754
886.441129,76.570323,172.283227,-9456.434915
886.441756,76.570323,114.855485,-9456.434915
886.442384,153.140646,153.140646,-9399.007173
886.443011,133.998066,153.140646,-9437.292334
886.443638,38.285162,172.283227,-9418.149754
886.444266,76.570323,153.140646,-9475.577496
886.444893,76.570323,114.855485,-9437.292334
886.445521,133.998066,114.855485,-9456.434915
886.446148,38.285162,172.283227,-9456.434915
886.446776,95.712904,153.140646,-9418.149754
886.447403,114.855485,95.712904,-9399.007173
886.448031,133.998066,133.998066,-9399.007173
886.448658,76.570323,153.140646,-9418.149754
886.449285,38.285162,172.283227,-9418.149754
886.449913,133.998066,191.425808,-9399.007173
886.450540,133.998066,114.855485,-9437.292334
886.451168,38.285162,114.855485,-9418.149754
886.451795,76.570323,133.998066,-9360.722011
886.452423,133.998066,153.140646,-9456.434915
886.453050,114.855485,133.998066,-9360.722011
886.453677,76.570323,114.855485,-9475.577496
886.454305,76.570323,114.855485,-9418.149754
886.454932,133.998066,114.855485,-9475.577496
886.455560,133.998066,172.283227,-9456.434915
886.456187,133.998066,133.998066,-9399.007173
886.456815,76.570323,114.855485,-9418.149754
886.457442,76.570323,114.855485,-9437.292334
886.458069,76.570323,172.283227,-9418.149754
886.458697,76.570323,153.140646,-9418.149754
886.459324,76.570323,172.283227,-9437.292334
886.459952,76.570323,153.140646,-9418.149754
886.460579,38.285162,114.855485,-9418.149754
886.461207,133.998066,114.855485,-9418.149754
886.461834,95.712904,133.998066,-9360.722011
886.462461,95.712904,95.712904,-9494.720077
886.463089,114.855485,95.712904,-9437.292334
886.463716,38.285162,191.425808,-9456.434915
886.464344,76.570323,210.568389,-9437.292334
886.464971,76.570323,114.855485,-9418.149754
886.465599,114.855485,95.712904,-9437.292334
886.466226,133.998066,114.855485,-9418.149754
886.466853,172.283227,114.855485,-9379.864592
886.467481,133.998066,191.425808,-9418.149754
886.468108,38.285162,114.855485,-9418.149754
886.468736,133.998066,191.425808,-9418.149754
886.469363,133.998066,114.855485,-9418.149754
886.469991,38.285162,114.855485,-9494.720077
886.470618,76.570323,114.855485,-9456.434915
886.471245,57.427742,172.283227,-9437.292334
886.471873,76.570323,114.855485,-9418.149754
886.472500,76.570323,114.855485,-9456.434915
886.473128,153.140646,114.855485,-9456.434915
886.473755,133.998066,114.855485,-9418.149754
886.474383,133.998066,114.855485,-9418.149754
886.475010,76.570323,153.140646,-9456.434915
886.475637,76.570323,114.855485,-9418.149754
886.476265,38.285162,114.855485,-9418.149754
886.476892,133.998066,76.570323,-9399.007173
886.477520,38.285162,229.710970,-9418.149754
886.478147,76.570323,229.710970,-9437.292334
886.478775,153.140646,114.855485,-9475.577496
886.479402,76.570323,114.855485,-9418.149754
886.480029,153.140646,133.998066,-9399.007173
886.480657,153.140646,133.998066,-9399.007173
886.481284,76.570323,114.855485,-9456.434915
886.481912,133.998066,114.855485,-9418.149754
886.482539,76.570323,153.140646,-9437.292334
886.483167,133.998066,114.855485,-9418.149754
886.483794,76.570323,114.855485,-9418.149754
886.484422,38.285162,191.425808,-9418.149754
886.485049,133.998066,229.710970,-9456.434915
886.485676,133.998066,114.855485,-9418.149754
886.486304,95.712904,114.855485,-9418.149754
886.486931,114.855485,114.855485,-9399.007173
886.487559,76.570323,210.568389,-9418.149754
886.488186,95.712904,248.853550,-9360.722011
886.488814,38.285162,153.140646,-9418.149754
886.489441,76.570323,114.855485,-9418.149754
886.490068,133.998066,114.855485,-9418.149754
886.490696,76.570323,172.283227,-9418.149754
886.491323,38.285162,172.283227,-9475.577496
886.491951,133.998066,114.855485,-9418.149754
886.492578,133.998066,153.140646,-9418.149754
886.493206,76.570323,172.283227,-9418.149754
886.493833,133.998066,114.855485,-9418.149754
886.494460,76.570323,114.855485,-9418.149754
886.495088,76.570323,153.140646,-9418.149754
886.495715,95.712904,114.855485,-9418.149754
886.496343,133.998066,114.855485,-9437.292334
886.496970,95.712904,210.568389,-9456.434915
886.497598,76.570323,114.855485,-9437.292334
886.498225,76.570323,114.855485,-9456.434915
886.498852,172.283227,114.855485,-9379.864592
886.499480,76.570323,114.855485,-9437.292334
886.500107,133.998066,114.855485,-9456.434915
886.500735,133.998066,114.855485,-9437.292334
886.501362,133.998066,153.140646,-9418.149754
886.501990,153.140646,133.998066,-9399.007173
886.502617,153.140646,133.998066,-9399.007173
886.503244,133.998066,114.855485,-9456.434915
886.503872,38.285162,210.568389,-9418.149754
886.504499,133.998066,114.855485,-9437.292334
886.505127,57.427742,114.855485,-9437.292334
886.505754,76.570323,114.855485,-9418.149754
886.506382,76.570323,114.855485,-9418.149754
886.507009,133.998066,153.140646,-9437.292334
886.507636,95.712904,95.712904,-9494.720077
886.508264,133.998066,172.283227,-9437.292334
886.508891,76.570323,114.855485,-9418.149754
886.509519,133.998066,210.568389,-9418.149754
886.510146,76.570323,114.855485,-9437.292334
886.510774,95.712904,95.712904,-9399.007173
886.511401,38.285162,114.855485,-9456.434915
886.512028,76.570323,114.855485,-9456.434915
886.512656,133.998066,114.855485,-9437.292334
886.513284,133.998066,172.283227,-9399.007173
886.513912,133.998066,114.855485,-9418.149754
886.514539,133.998066,114.855485,-9418.149754
886.515167,133.998066,114.855485,-9475.577496
886.515795,76.570323,172.283227,-9437.292334
886.516423,95.712904,114.855485,-9418.149754
886.517051,76.570323,114.855485,-9418.149754
886.517678,114.855485,95.712904,-9456.434915
886.518306,153.140646,133.998066,-9399.007173
886.518934,133.998066,229.710970,-9418.149754
886.519562,133.998066,114.855485,-9418.149754
886.520189,76.570323,210.568389,-9418.149754
886.520817,76.570323,172.283227,-9418.149754
886.521445,38.285162,114.855485,-9418.149754
886.522073,95.712904,114.855485,-9418.149754
886.522700,76.570323,153.140646,-9418.149754
886.523328,133.998066,114.855485,-9418.149754
886.523956,76.570323,114.855485,-9418.149754
886.524584,114.855485,133.998066,-9360.722011
886.525211,133.998066,133.998066,-9494.720077
886.525839,76.570323,248.853550,-9399.007173
886.526467,133.998066,153.140646,-9418.149754
886.527095,153.140646,133.998066,-9456.434915
886.527722,133.998066,191.425808,-9456.434915
886.528350,95.712904,153.140646,-9360.722011
886.528978,133.998066,153.140646,-9437.292334
886.529606,76.570323,153.140646,-9437.292334
886.530233,38.285162,114.855485,-9456.434915
886.530861,76.570323,172.283227,-9475.577496
886.531489,76.570323,114.855485,-9533.005238
886.532117,133.998066,114.855485,-9418.149754
886.532744,76.570323,114.855485,-9456.434915
886.533372,76.570323,114.855485,-9494.720077
886.534000,133.998066,172.283227,-9456.434915
886.534628,76.570323,210.568389,-9418.149754
886.535255,153.140646,191.425808,-9399.007173
886.535883,95.712904,191.425808,-9418.149754
886.536511,76.570323,153.140646,-9437.292334
886.537139,76.570323,114.855485,-9418.149754
886.537766,76.570323,114.855485,-9418.149754
886.538394,57.427742,133.998066,-9418.149754
886.539022,57.427742,114.855485,-9399.007173
886.539650,153.140646,172.283227,-9437.292334
886.540277,76.570323,153.140646,-9418.149754
886.540905,133.998066,114.855485,-9437.292334
886.541533,114.855485,172.283227,-9360.722011
886.542161,76.570323,229.710970,-9418.149754
886.542788,114.855485,133.998066,-9360.722011
886.543416,76.570323,172.283227,-9418.149754
886.544044,76.570323,114.855485,-9418.149754
886.544672,133.998066,114.855485,-9418.149754
886.545299,153.140646,133.998066,-9456.434915
886.545927,153.140646,133.998066,-9399.007173
886.546555,172.283227,114.855485,-9379.864592
886.547183,153.140646,191.425808,-9456.434915
886.547810,76.570323,153.140646,-9437.292334
886.548438,133.998066,114.855485,-9437.292334
886.549066,133.998066,114.855485,-9494.720077
886.549694,76.570323,114.855485,-9418.149754
886.550322,38.285162,114.855485,-9475.577496
886.550949,76.570323,114.855485,-9418.149754
886.551577,76.570323,114.855485,-9437.292334
886.552205,38.285162,172.283227,-9437.292334
886.552833,95.712904,95.712904,-9437.292334
886.553460,38.285162,114.855485,-9418.149754
886.554088,133.998066,114.855485,-9533.005238
886.554716,76.570323,153.140646,-9437.292334
886.555344,76.570323,114.855485,-9418.149754
886.555971,133.998066,114.855485,-9418.149754
886.556599,133.998066,114.855485,-9418.149754
886.557227,153.140646,133.998066,-9456.434915
886.557855,114.855485,114.855485,-9379.864592
886.558482,133.998066,114.855485,-9437.292334
886.559110,57.427742,172.283227,-9418.149754
886.559738,76.570323,114.855485,-9456.434915
886.560366,76.570323,76.570323,-9379.864592
886.560993,76.570323,114.855485,-9418.149754
886.561621,38.285162,172.283227,-9418.149754
886.562249,133.998066,172.283227,-9437.292334
886.562877,57.427742,114.855485,-9379.864592
886.563504,95.712904,153.140646,-9418.149754
886.564132,133.998066,114.855485,-9456.434915
886.564760,76.570323,95.712904,-9399.007173
886.565388,95.712904,95.712904,-9456.434915
886.566015,76.570323,153.140646,-9418.149754
886.566643,133.998066,114.855485,-9418.149754
886.567271,133.998066,153.140646,-9418.149754
886.567899,38.285162,210.568389,-9418.149754
886.568526,38.285162,114.855485,-9418.149754
886.569154,133.998066,114.855485,-9456.434915
886.569782,114.855485,95.712904,-9399.007173
886.570410,133.998066,133.998066,-9399.007173
886.571037,95.712904,114.855485,-9418.149754
886.571665,76.570323,153.140646,-9437.292334
886.572293,38.285162,114.855485,-9418.149754
886.572921,133.998066,114.855485,-9418.149754
886.573548,153.140646,133.998066,-9399.007173
886.574176,38.285162,172.283227,-9418.149754
886.574804,76.570323,114.855485,-9418.149754
886.575432,38.285162,153.140646,-9418.149754
886.576059,76.570323,114.855485,-9418.149754
886.576687,76.570323,153.140646,-9437.292334
886.577315,133.998066,210.568389,-9475.577496
886.577943,114.855485,95.712904,-9399.007173
886.578570,133.998066,172.283227,-9418.149754
886.579198,133.998066,153.140646,-9418.149754
886.579826,153.140646,153.140646,-9399.007173
886.580454,38.285162,153.140646,-9418.149754
886.581081,76.570323,114.855485,-9437.292334
886.581709,76.570323,172.283227,-9418.149754
886.582337,95.712904,114.855485,-9418.149754
886.582965,38.285162,172.283227,-9418.149754
886.583593,95.712904,114.855485,-9418.149754
886.584220,76.570323,210.568389,-9456.434915
886.584848,95.712904,153.140646,-9418.149754
886.585476,133.998066,114.855485,-9437.292334
886.586104,76.570323,210.568389,-9475.577496
886.586731,76.570323,191.425808,-9437.292334
886.587359,76.570323,172.283227,-9418.149754
886.587987,76.570323,172.283227,-9437.292334
886.588615,133.998066,114.855485,-9437.292334
886.589242,38.285162,114.855485,-9437.292334
886.589870,133.998066,172.283227,-9456.434915
886.590498,76.570323,114.855485,-9418.149754
886.591126,38.285162,153.140646,-9418.149754
886.591753,76.570323,114.855485,-9456.434915
886.592381,76.570323,172.283227,-9437.292334
886.593009,38.285162,114.855485,-9437.292334
886.593637,76.570323,153.140646,-9418.149754
886.594264,133.998066,114.855485,-9456.434915
886.594892,133.998066,114.855485,-9418.149754
886.595520,153.140646,133.998066,-9456.434915
886.596148,114.855485,133.998066,-9360.722011
886.596775,76.570323,114.855485,-9418.149754
886.597403,114.855485,95.712904,-9399.007173
886.598031,76.570323,153.140646,-9494.720077
886.598659,153.140646,153.140646,-9456.434915
886.599286,133.998066,114.855485,-9418.149754
886.599914,95.712904,95.712904,-9399.007173
886.600542,133.998066,153.140646,-9418.149754
886.601170,38.285162,114.855485,-9418.149754
886.601797,38.285162,210.568389,-9418.149754
886.602425,38.285162,114.855485,-9437.292334
886.603053,76.570323,153.140646,-9418.149754
886.603681,38.285162,172.283227,-9418.149754
886.604308,95.712904,114.855485,-9437.292334
886.604936,76.570323,114.855485,-9418.149754
886.605564,95.712904,210.568389,-9418.149754
886.606192,133.998066,172.283227,-9437.292334
886.606819,133.998066,153.140646,-9456.434915
886.607447,76.570323,114.855485,-9418.149754
886.608075,133.998066,114.855485,-9456.434915
886.608703,133.998066,114.855485,-9456.434915
886.609330,133.998066,114.855485,-9437.292334
886.609958,95.712904,95.712904,-9399.007173
886.610586,133.998066,114.855485,-9437.292334
886.611214,76.570323,114.855485,-9418.149754
886.611841,133.998066,172.283227,-9418.149754
886.612469,76.570323,114.855485,-9418.149754
886.613097,133.998066,114.855485,-9418.149754
886.613725,38.285162,153.140646,-9437.292334
886.614352,76.570323,172.283227,-9437.292334
886.614980,133.998066,172.283227,-9418.149754
886.615608,133.998066,153.140646,-9418.149754
886.616236,153.140646,153.140646,-9456.434915
886.616863,153.140646,133.998066,-9456.434915
886.617491,114.855485,153.140646,-9360.722011
886.618119,76.570323,114.855485,-9437.292334
886.618747,133.998066,172.283227,-9418.149754
886.619374,133.998066,153.140646,-9418.149754
886.620002,133.998066,172.283227,-9418.149754
886.620630,210.568389,191.425808,-9379.864592
886.621258,133.998066,114.855485,-9418.149754
886.621885,153.140646,172.283227,-9437.292334
886.622513,153.140646,172.283227,-9399.007173
886.623141,76.570323,210.568389,-9418.149754
886.623769,38.285162,153.140646,-9418.149754
886.624396,57.427742,95.712904,-9399.007173
886.625024,76.570323,95.712904,-9456.434915
886.625652,133.998066,114.855485,-9437.292334
886.626280,153.140646,114.855485,-9418.149754
886.626907,76.570323,114.855485,-9418.149754
886.627535,76.570323,114.855485,-9475.577496
886.628163,38.285162,114.855485,-9418.149754
886.628791,95.712904,114.855485,-9399.007173
886.629418,76.570323,133.998066,-9379.864592
886.630046,38.285162,172.283227,-9418.149754
886.630674,76.570323,114.855485,-9418.149754
886.631302,38.285162,114.855485,-9418.149754
886.631929,76.570323,153.140646,-9418.149754
886.632557,114.855485,95.712904,-9437.292334
886.633185,133.998066,114.855485,-9418.149754
886.633813,114.855485,114.855485,-9399.007173
886.634440,133.998066,114.855485,-9418.149754
886.635068,114.855485,95.712904,-9399.007173
886.635696,76.570323,114.855485,-9418.149754
886.636324,76.570323,114.855485,-9475.577496
886.636951,76.570323,172.283227,-9418.149754
886.637579,76.570323,114.855485,-9418.149754
886.638207,38.285162,172.283227,-9418.149754
886.638835,76.570323,153.140646,-9418.149754
886.639462,133.998066,114.855485,-9475.577496
886.640090,76.570323,114.855485,-9475.577496
886.640718,153.140646,114.855485,-9475.577496
886.641346,76.570323,153.140646,-9475.577496
886.641973,38.285162,114.855485,-9456.434915
886.642601,133.998066,153.140646,-9418.149754
886.643229,76.570323,114.855485,-9418.149754
886.643857,76.570323,153.140646,-9418.149754
886.644484,95.712904,114.855485,-9418.149754
886.645112,76.570323,114.855485,-9418.149754
886.645740,19.142581,114.855485,-9418.149754
886.646368,133.998066,114.855485,-9437.292334
886.646995,57.427742,95.712904,-9399.007173
886.647623,95.712904,133.998066,-9360.722011
886.648251,95.712904,172.283227,-9437.292334
886.648879,38.285162,114.855485,-9418.149754
886.649506,38.285162,114.855485,-9437.292334
886.650134,133.998066,210.568389,-9418.149754
886.650762,114.855485,133.998066,-9418.149754
886.651390,76.570323,153.140646,-9437.292334
886.652017,133.998066,172.283227,-9456.434915
886.652645,95.712904,153.140646,-9418.149754
886.653273,133.998066,114.855485,-9418.149754
886.653900,133.998066,153.140646,-9418.149754
886.654528,38.285162,114.855485,-9418.149754
886.655156,153.140646,153.140646,-9399.007173
886.655784,76.570323,114.855485,-9418.149754
886.656411,57.427742,95.712904,-9437.292334
886.657039,133.998066,172.283227,-9418.149754
886.657667,76.570323,153.140646,-9437.292334
886.658295,133.998066,172.283227,-9418.149754
886.658922,114.855485,114.855485,-9399.007173
886.659550,76.570323,153.140646,-9418.149754
886.660178,76.570323,114.855485,-9418.149754
886.660806,76.570323,114.855485,-9418.149754
886.661433,172.283227,95.712904,-9399.007173
886.662061,76.570323,114.855485,-9475.577496
886.662689,114.855485,95.712904,-9399.007173
886.663317,95.712904,172.283227,-9418.149754
886.663944,133.998066,114.855485,-9437.292334
886.664572,76.570323,153.140646,-9418.149754
886.665200,76.570323,114.855485,-9494.720077
886.665828,76.570323,210.568389,-9456.434915
886.666455,133.998066,153.140646,-9418.149754
886.667083,76.570323,95.712904,-9399.007173
886.667711,95.712904,114.855485,-9456.434915
886.668339,133.998066,191.425808,-9437.292334
886.668966,76.570323,114.855485,-9418.149754
886.669594,38.285162,114.855485,-9475.577496
886.670222,57.427742,95.712904,-9437.292334
886.670850,95.712904,172.283227,-9437.292334
886.671477,76.570323,172.283227,-9418.149754
886.672105,76.570323,114.855485,-9418.149754
886.672733,133.998066,191.425808,-9437.292334
886.673361,76.570323,153.140646,-9418.149754
886.673988,76.570323,153.140646,-9418.149754
886.674616,76.570323,114.855485,-9456.434915
886.675244,95.712904,172.283227,-9418.149754
886.675872,76.570323,172.283227,-9418.149754
886.676499,172.283227,172.283227,-9379.864592
886.677127,114.855485,153.140646,-9360.722011
886.677755,95.712904,95.712904,-9399.007173
886.678383,153.140646,133.998066,-9399.007173
886.679010,210.568389,133.998066,-9494.720077
886.679638,76.570323,172.283227,-9437.292334
886.680266,76.570323,114.855485,-9456.434915
886.680894,95.712904,95.712904,-9437.292334
886.681521,95.712904,191.425808,-9360.722011
886.682149,57.427742,95.712904,-9399.007173
886.682777,38.285162,114.855485,-9418.149754
886.683405,38.285162,153.140646,-9418.149754
886.684032,133.998066,114.855485,-9437.292334
886.684660,133.998066,76.570323,-9379.864592
886.685288,38.285162,114.855485,-9456.434915
886.685916,76.570323,114.855485,-9418.149754
886.686543,38.285162,114.855485,-9418.149754
886.687171,114.855485,133.998066,-9418.149754
886.687799,76.570323,114.855485,-9418.149754
886.688427,153.140646,133.998066,-9399.007173
886.689054,133.998066,114.855485,-9437.292334
886.689682,153.140646,133.998066,-9513.862658
886.690310,76.570323,114.855485,-9437.292334
886.690938,153.140646,210.568389,-9437.292334
886.691565,76.570323,114.855485,-9418.149754
886.692193,95.712904,114.855485,-9399.007173
886.692821,76.570323,76.570323,-9379.864592
886.693449,153.140646,114.855485,-9418.149754
886.694076,133.998066,114.855485,-9418.149754
886.694704,172.283227,76.570323,-9456.434915
886.695332,76.570323,114.855485,-9418.149754
886.695960,76.570323,114.855485,-9437.292334
886.696587,114.855485,153.140646,-9437.292334
886.697215,76.570323,172.283227,-9418.149754
886.697843,38.285162,153.140646,-9437.292334
886.698470,133.998066,114.855485,-9418.149754
886.699098,133.998066,114.855485,-9418.149754
886.699726,38.285162,153.140646,-9418.149754
886.700354,38.285162,114.855485,-9437.292334
886.700981,133.998066,114.855485,-9418.149754
886.701609,133.998066,114.855485,-9437.292334
886.702237,76.570323,172.283227,-9456.434915
886.702865,133.998066,172.283227,-9437.292334
886.703492,76.570323,210.568389,-9418.149754
886.704120,38.285162,114.855485,-9418.149754
886.704748,57.427742,95.712904,-9437.292334
886.705376,38.285162,191.425808,-9418.149754
886.706003,76.570323,210.568389,-9475.577496
886.706631,76.570323,210.568389,-9437.292334
886.707259,133.998066,172.283227,-9475.577496
886.707887,76.570323,210.568389,-9418.149754
886.708514,153.140646,191.425808,-9456.434915
886.709142,153.140646,191.425808,-9399.007173
886.709770,76.570323,114.855485,-9418.149754
886.710398,95.712904,114.855485,-9437.292334
886.711025,38.285162,153.140646,-9418.149754
886.711653,38.285162,153.140646,-9437.292334
886.712281,76.570323,114.855485,-9418.149754
886.712909,114.855485,172.283227,-9360.722011
886.713536,76.570323,153.140646,-9475.577496
886.714164,95.712904,114.855485,-9475.577496
886.714791,95.712904,114.855485,-9533.005238
886.715419,38.285162,172.283227,-9418.149754
886.716047,38.285162,114.855485,-9418.149754
886.716674,133.998066,114.855485,-9418.149754
886.717302,153.140646,153.140646,-9418.149754
886.717929,133.998066,114.855485,-9437.292334
886.718557,76.570323,114.855485,-9418.149754
886.719185,133.998066,153.140646,-9418.149754
886.719812,76.570323,114.855485,-9456.434915
886.720440,133.998066,114.855485,-9475.577496
886.721067,133.998066,210.568389,-9475.577496
886.721695,76.570323,114.855485,-9437.292334
886.722323,76.570323,114.855485,-9475.577496
886.722950,133.998066,172.283227,-9418.149754
886.723578,133.998066,153.140646,-9418.149754
886.724205,76.570323,172.283227,-9418.149754
886.724833,95.712904,114.855485,-9437.292334
886.725460,95.712904,153.140646,-9360.722011
886.726088,114.855485,95.712904,-9456.434915
886.726716,76.570323,114.855485,-9418.149754
886.727343,76.570323,114.855485,-9418.149754
886.727971,57.427742,172.283227,-9360.722011
886.728598,133.998066,114.855485,-9437.292334
886.729226,76.570323,95.712904,-9399.007173
886.729854,133.998066,114.855485,-9418.149754
886.730481,76.570323,114.855485,-9399.007173
886.731109,133.998066,172.283227,-9418.149754
886.731736,76.570323,172.283227,-9418.149754
886.732364,76.570323,172.283227,-9418.149754
886.732992,76.570323,133.998066,-9513.862658
886.733619,38.285162,114.855485,-9437.292334
886.734247,38.285162,153.140646,-9418.149754
886.734874,76.570323,153.140646,-9494.720077
886.735502,76.570323,172.283227,-9475.577496
886.736129,133.998066,172.283227,-9418.149754
886.736757,95.712904,114.855485,-9399.007173
886.737385,38.285162,153.140646,-9418.149754
886.738012,76.570323,114.855485,-9418.149754
886.738640,153.140646,133.998066,-9399.007173
886.739267,133.998066,153.140646,-9437.292334
886.739895,95.712904,114.855485,-9437.292334
886.740523,133.998066,114.855485,-9437.292334
886.741150,153.140646,191.425808,-9437.292334
886.741778,76.570323,153.140646,-9475.577496
886.742405,153.140646,133.998066,-9437.292334
886.743033,114.855485,95.712904,-9456.434915
886.743661,133.998066,114.855485,-9418.149754
886.744288,153.140646,172.283227,-9399.007173
886.744916,114.855485,248.853550,-9418.149754
886.745543,76.570323,210.568389,-9418.149754
886.746171,153.140646,210.568389,-9399.007173
886.746799,76.570323,210.568389,-9418.149754
886.747426,38.285162,114.855485,-9456.434915
886.748054,76.570323,114.855485,-9418.149754
886.748681,76.570323,210.568389,-9437.292334
886.749309,95.712904,172.283227,-9360.722011
886.749936,57.427742,114.855485,-9418.149754
886.750564,38.285162,172.283227,-9475.577496
886.751192,76.570323,114.855485,-9418.149754
886.751819,76.570323,114.855485,-9418.149754
886.752447,76.570323,210.568389,-9437.292334
886.753074,133.998066,210.568389,-9437.292334
886.753702,38.285162,172.283227,-9437.292334
886.754330,76.570323,114.855485,-9418.149754
886.754957,76.570323,133.998066,-9418.149754
886.755585,133.998066,210.568389,-9418.149754
886.756212,95.712904,114.855485,-9418.149754
886.756840,76.570323,153.140646,-9418.149754
886.757468,76.570323,114.855485,-9437.292334
886.758095,76.570323,114.855485,-9418.149754
886.758723,133.998066,114.855485,-9437.292334
886.759350,76.570323,210.568389,-9437.292334
886.759978,133.998066,210.568389,-9456.434915
886.760605,133.998066,133.998066,-9399.007173
886.761233,38.285162,114.855485,-9418.149754
886.761861,76.570323,114.855485,-9437.292334
886.762488,76.570323,114.855485,-9437.292334
886.763116,76.570323,114.855485,-9418.149754
886.763743,76.570323,172.283227,-9418.149754
886.764371,76.570323,153.140646,-9418.149754
886.764999,38.285162,114.855485,-9418.149754
886.765626,133.998066,172.283227,-9418.149754
886.766254,38.285162,210.568389,-9418.149754
886.766881,133.998066,114.855485,-9418.149754
886.767509,38.285162,114.855485,-9418.149754
886.768137,38.285162,210.568389,-9418.149754
886.768764,76.570323,172.283227,-9418.149754
886.769392,76.570323,153.140646,-9418.149754
886.770019,76.570323,191.425808,-9418.149754
886.770647,153.140646,191.425808,-9399.007173
886.771274,153.140646,191.425808,-9456.434915
886.771902,133.998066,172.283227,-9475.577496
886.772530,76.570323,172.283227,-9437.292334
886.773157,76.570323,95.712904,-9399.007173
886.773785,76.570323,114.855485,-9418.149754
886.774412,57.427742,95.712904,-9399.007173
886.775040,133.998066,172.283227,-9437.292334
886.775668,133.998066,114.855485,-9456.434915
886.776295,76.570323,114.855485,-9437.292334
886.776923,38.285162,172.283227,-9418.149754
886.777550,38.285162,114.855485,-9418.149754
886.778178,19.142581,114.855485,-9418.149754
886.778806,76.570323,95.712904,-9399.007173
886.779433,133.998066,210.568389,-9418.149754
886.780061,133.998066,114.855485,-9418.149754
886.780688,133.998066,133.998066,-9399.007173
886.781316,114.855485,95.712904,-9399.007173
886.781944,38.285162,114.855485,-9437.292334
886.782571,133.998066,153.140646,-9456.434915
886.783199,153.140646,191.425808,-9399.007173
886.783826,133.998066,114.855485,-9437.292334
886.784454,133.998066,172.283227,-9494.720077
886.785081,133.998066,114.855485,-9418.149754
886.785709,133.998066,172.283227,-9418.149754
886.786337,76.570323,153.140646,-9456.434915
886.786964,133.998066,114.855485,-9418.149754
886.787592,133.998066,114.855485,-9418.149754
886.788219,76.570323,191.425808,-9418.149754
886.788847,76.570323,114.855485,-9418.149754
886.789475,38.285162,114.855485,-9418.149754
886.790102,133.998066,153.140646,-9418.149754
886.790730,95.712904,114.855485,-9437.292334
886.791357,133.998066,114.855485,-9418.149754
886.791985,76.570323,114.855485,-9418.149754
886.792613,133.998066,114.855485,-9418.149754
886.793240,153.140646,172.283227,-9418.149754
886.793868,153.140646,172.283227,-9399.007173
886.794495,133.998066,114.855485,-9418.149754
886.795123,133.998066,133.998066,-9437.292334
886.795750,133.998066,133.998066,-9399.007173
886.796378,76.570323,210.568389,-9533.005238
886.797006,133.998066,133.998066,-9399.007173
886.797633,133.998066,172.283227,-9456.434915
886.798261,38.285162,114.855485,-9456.434915
886.798888,76.570323,114.855485,-9418.149754
886.799516,153.140646,191.425808,-9399.007173
886.800144,210.568389,210.568389,-9456.434915
886.800771,172.283227,114.855485,-9513.862658
886.801399,153.140646,172.283227,-9399.007173
886.802026,76.570323,114.855485,-9456.434915
886.802654,76.570323,114.855485,-9437.292334
886.803282,76.570323,114.855485,-9456.434915
886.803909,95.712904,114.855485,-9437.292334
886.804537,38.285162,114.855485,-9437.292334
886.805164,76.570323,153.140646,-9494.720077
886.805792,38.285162,114.855485,-9456.434915
886.806420,38.285162,210.568389,-9475.577496
886.807047,95.712904,114.855485,-9456.434915
886.807675,95.712904,95.712904,-9399.007173
886.808302,114.855485,114.855485,-9399.007173
886.808930,38.285162,114.855485,-9418.149754
886.809557,133.998066,172.283227,-9418.149754
886.810185,133.998066,172.283227,-9399.007173
886.810813,38.285162,172.283227,-9418.149754
886.811440,95.712904,153.140646,-9456.434915
886.812068,133.998066,210.568389,-9533.005238
886.812695,133.998066,229.710970,-9418.149754
886.813323,95.712904,114.855485,-9418.149754
886.813950,133.998066,172.283227,-9456.434915
886.814578,133.998066,114.855485,-9437.292334
886.815205,133.998066,153.140646,-9437.292334
886.815833,95.712904,114.855485,-9418.149754
886.816460,76.570323,95.712904,-9494.720077
886.817088,133.998066,114.855485,-9418.149754
886.817715,114.855485,210.568389,-9379.864592
886.818343,76.570323,191.425808,-9437.292334
886.818970,133.998066,172.283227,-9418.149754
886.819598,76.570323,172.283227,-9418.149754
886.820225,38.285162,229.710970,-9418.149754
886.820853,76.570323,114.855485,-9456.434915
886.821480,133.998066,114.855485,-9475.577496
886.822107,133.998066,153.140646,-9437.292334
886.822735,38.285162,114.855485,-9456.434915
886.823362,153.140646,114.855485,-9437.292334
886.823990,95.712904,95.712904,-9456.434915
886.824617,95.712904,114.855485,-9437.292334
886.825245,57.427742,114.855485,-9437.292334
886.825872,95.712904,114.855485,-9456.434915
886.826500,153.140646,153.140646,-9399.007173
886.827127,114.855485,114.855485,-9418.149754
886.827755,153.140646,133.998066,-9399.007173
886.828382,133.998066,210.568389,-9418.149754
886.829010,95.712904,114.855485,-9418.149754
886.829637,76.570323,114.855485,-9475.577496
886.830265,133.998066,153.140646,-9456.434915
886.830892,76.570323,114.855485,-9494.720077
886.831519,153.140646,153.140646,-9475.577496
886.832147,76.570323,153.140646,-9418.149754
886.832774,133.998066,191.425808,-9418.149754
886.833402,76.570323,153.140646,-9360.722011
886.834029,76.570323,114.855485,-9360.722011
886.834657,76.570323,114.855485,-9418.149754
886.835284,95.712904,114.855485,-9399.007173
886.835912,133.998066,114.855485,-9437.292334
886.836539,114.855485,172.283227,-9341.579430
886.837167,133.998066,172.283227,-9399.007173
886.837794,76.570323,114.855485,-9418.149754
886.838422,95.712904,95.712904,-9494.720077
886.839049,133.998066,114.855485,-9418.149754
886.839677,76.570323,114.855485,-9418.149754
886.840304,76.570323,153.140646,-9418.149754
886.840931,76.570323,229.710970,-9418.149754
886.841559,95.712904,95.712904,-9437.292334
886.842186,95.712904,95.712904,-9399.007173
886.842814,133.998066,172.283227,-9418.149754
886.843441,76.570323,153.140646,-9418.149754
886.844069,95.712904,114.855485,-9418.149754
886.844696,153.140646,133.998066,-9399.007173
886.845324,114.855485,95.712904,-9456.434915
886.845951,76.570323,114.855485,-9418.149754
886.846579,76.570323,114.855485,-9456.434915
886.847206,133.998066,172.283227,-9437.292334
886.847834,133.998066,133.998066,-9456.434915
886.848461,38.285162,114.855485,-9418.149754
886.849088,133.998066,210.568389,-9437.292334
886.849716,133.998066,172.283227,-9418.149754
886.850343,133.998066,153.140646,-9437.292334
886.850971,76.570323,153.140646,-9418.149754
886.851598,38.285162,114.855485,-9475.577496
886.852226,76.570323,114.855485,-9418.149754
886.852853,57.427742,114.855485,-9418.149754
886.853481,153.140646,114.855485,-9456.434915
886.854108,133.998066,133.998066,-9399.007173
886.854736,114.855485,133.998066,-9341.579430
886.855363,76.570323,153.140646,-9418.149754
886.855991,95.712904,76.570323,-9379.864592
886.856618,114.855485,114.855485,-9399.007173
886.857246,133.998066,114.855485,-9418.149754
886.857873,95.712904,114.855485,-9418.149754
886.858500,133.998066,114.855485,-9418.149754
886.859128,133.998066,210.568389,-9475.577496
886.859755,76.570323,229.710970,-9418.149754
886.860383,114.855485,133.998066,-9360.722011
886.861010,133.998066,133.998066,-9399.007173
886.861638,133.998066,114.855485,-9418.149754
886.862265,57.427742,114.855485,-9437.292334
886.862893,133.998066,172.283227,-9437.292334
886.863520,133.998066,114.855485,-9418.149754
886.864148,76.570323,153.140646,-9456.434915
886.864775,76.570323,172.283227,-9418.149754
886.865403,133.998066,210.568389,-9418.149754
886.866030,133.998066,172.283227,-9360.722011
886.866657,133.998066,210.568389,-9418.149754
886.867285,76.570323,153.140646,-9456.434915
886.867912,95.712904,210.568389,-9418.149754
886.868540,133.998066,172.283227,-9418.149754
886.869167,38.285162,153.140646,-9475.577496
886.869795,38.285162,210.568389,-9418.149754
886.870422,19.142581,153.140646,-9437.292334
886.871050,133.998066,114.855485,-9418.149754
886.871677,153.140646,114.855485,-9494.720077
886.872305,133.998066,114.855485,-9475.577496
886.872932,114.855485,114.855485,-9399.007173
886.873560,133.998066,153.140646,-9418.149754
886.874187,38.285162,172.283227,-9418.149754
886.874815,114.855485,95.712904,-9399.007173
886.875442,133.998066,114.855485,-9418.149754
886.876069,95.712904,114.855485,-9418.149754
886.876697,133.998066,114.855485,-9418.149754
886.877324,76.570323,114.855485,-9418.149754
886.877952,133.998066,210.568389,-9418.149754
886.878579,153.140646,191.425808,-9399.007173
886.879207,38.285162,172.283227,-9418.149754
886.879834,57.427742,248.853550,-9360.722011
886.880462,95.712904,114.855485,-9399.007173
886.881089,38.285162,191.425808,-9437.292334
886.881717,76.570323,114.855485,-9437.292334
886.882344,95.712904,95.712904,-9437.292334
886.882972,38.285162,114.855485,-9418.149754
886.883599,133.998066,172.283227,-9418.149754
886.884226,76.570323,114.855485,-9418.149754
886.884854,95.712904,114.855485,-9418.149754
886.885481,38.285162,114.855485,-9437.292334
886.886109,95.712904,114.855485,-9418.149754
886.886736,38.285162,114.855485,-9418.149754
886.887364,76.570323,153.140646,-9418.149754
886.887991,76.570323,153.140646,-9418.149754
886.888619,76.570323,114.855485,-9418.149754
886.889246,76.570323,114.855485,-9418.149754
886.889874,133.998066,172.283227,-9494.720077
886.890501,133.998066,172.283227,-9456.434915
886.891129,76.570323,172.283227,-9418.149754
886.891756,76.570323,153.140646,-9418.149754
886.892384,76.570323,114.855485,-9418.149754
886.893011,76.570323,153.140646,-9475.577496
886.893638,133.998066,114.855485,-9418.149754
886.894266,153.140646,133.998066,-9399.007173
886.894893,76.570323,172.283227,-9437.292334
886.895521,76.570323,153.140646,-9437.292334
886.896148,133.998066,153.140646,-9418.149754
886.896776,114.855485,133.998066,-9418.149754
886.897403,38.285162,114.855485,-9418.149754
886.898031,76.570323,114.855485,-9418.149754
886.898658,153.140646,133.998066,-9399.007173
886.899286,133.998066,114.855485,-9418.149754
886.899913,38.285162,114.855485,-9418.149754
886.900541,133.998066,114.855485,-9418.149754
886.901168,114.855485,114.855485,-9437.292334
886.901796,76.570323,172.283227,-9418.149754
886.902423,133.998066,114.855485,-9418.149754
886.903050,153.140646,133.998066,-9456.434915
886.903678,38.285162,153.140646,-9418.149754
886.904305,133.998066,210.568389,-9456.434915
886.904933,76.570323,172.283227,-9475.577496
886.905560,38.285162,210.568389,-9456.434915
886.906188,153.140646,172.283227,-9437.292334
886.906815,76.570323,114.855485,-9418.149754
886.907443,133.998066,114.855485,-9475.577496
886.908070,172.283227,76.570323,-9418.149754
886.908698,172.283227,191.425808,-9379.864592
886.909325,153.140646,153.140646,-9399.007173
886.909953,76.570323,210.568389,-9418.149754
886.910580,95.712904,95.712904,-9399.007173
886.911207,133.998066,114.855485,-9418.149754
886.911835,76.570323,114.855485,-9418.149754
886.912462,38.285162,191.425808,-9360.722011
886.913090,133.998066,133.998066,-9456.434915
886.913717,76.570323,114.855485,-9418.149754
886.914345,153.140646,133.998066,-9399.007173
886.914973,133.998066,210.568389,-9418.149754
886.915600,133.998066,153.140646,-9418.149754
886.916228,76.570323,114.855485,-9437.292334
886.916856,76.570323,114.855485,-9456.434915
886.917483,76.570323,114.855485,-9418.149754
886.918111,38.285162,114.855485,-9437.292334
886.918739,133.998066,114.855485,-9437.292334
886.919366,76.570323,210.568389,-9475.577496
886.919994,76.570323,153.140646,-9533.005238
886.920622,76.570323,114.855485,-9418.149754
886.921249,76.570323,114.855485,-9418.149754
886.921877,153.140646,114.855485,-9418.149754
886.922505,153.140646,172.283227,-9399.007173
886.923132,114.855485,153.140646,-9360.722011
886.923760,133.998066,133.998066,-9456.434915
886.924388,95.712904,210.568389,-9437.292334
886.925015,38.285162,114.855485,-9456.434915
886.925643,95.712904,172.283227,-9456.434915
886.926271,76.570323,172.283227,-9437.292334
886.926898,38.285162,191.425808,-9418.149754
886.927526,76.570323,153.140646,-9437.292334
886.928154,133.998066,114.855485,-9418.149754
886.928781,133.998066,114.855485,-9533.005238
886.929409,57.427742,172.283227,-9456.434915
886.930037,95.712904,153.140646,-9494.720077
886.930664,57.427742,191.425808,-9418.149754
886.931292,133.998066,172.283227,-9437.292334
886.931920,76.570323,114.855485,-9418.149754
886.932547,153.140646,133.998066,-9399.007173
886.933175,114.855485,153.140646,-9360.722011
886.933803,57.427742,133.998066,-9360.722011
886.934430,95.712904,172.283227,-9418.149754
886.935058,76.570323,172.283227,-9418.149754
886.935685,114.855485,133.998066,-9360.722011
886.936313,76.570323,114.855485,-9437.292334
886.936941,153.140646,153.140646,-9399.007173
886.937568,153.140646,248.853550,-9399.007173
886.938196,76.570323,210.568389,-9418.149754
886.938824,95.712904,172.283227,-9360.722011
886.939451,133.998066,153.140646,-9418.149754
886.940079,133.998066,210.568389,-9418.149754
886.940707,114.855485,153.140646,-9379.864592
886.941334,57.427742,210.568389,-9418.149754
886.941962,76.570323,114.855485,-9437.292334
886.942590,133.998066,114.855485,-9456.434915
886.943217,0.000000,114.855485,-9456.434915
886.943845,133.998066,153.140646,-9475.577496
886.944473,76.570323,114.855485,-9418.149754
886.945100,38.285162,114.855485,-9437.292334
886.945728,133.998066,153.140646,-9418.149754
886.946356,95.712904,229.710970,-9418.149754
886.946983,133.998066,153.140646,-9437.292334
886.947611,76.570323,114.855485,-9418.149754
886.948239,76.570323,172.283227,-9533.005238
886.948866,133.998066,114.855485,-9437.292334
886.949494,133.998066,114.855485,-9437.292334
886.950122,133.998066,114.855485,-9456.434915
886.950749,153.140646,114.855485,-9456.434915
886.951377,133.998066,172.283227,-9399.007173
886.952005,133.998066,114.855485,-9418.149754
886.952632,133.998066,172.283227,-9456.434915
886.953260,153.140646,191.425808,-9399.007173
886.953888,114.855485,172.283227,-9418.149754
886.954515,76.570323,191.425808,-9418.149754
886.955143,76.570323,153.140646,-9418.149754
886.955771,133.998066,210.568389,-9456.434915
886.956398,133.998066,114.855485,-9418.149754
886.957026,76.570323,172.283227,-9437.292334
886.957654,133.998066,210.568389,-9475.577496
886.958281,76.570323,114.855485,-9418.149754
886.958909,76.570323,114.855485,-9456.434915
886.959537,133.998066,114.855485,-9456.434915
886.960164,133.998066,114.855485,-9418.149754
886.960792,95.712904,133.998066,-9360.722011
886.961420,38.285162,114.855485,-9456.434915
886.962047,38.285162,210.568389,-9418.149754
886.962675,133.998066,114.855485,-9456.434915
886.963303,153.140646,153.140646,-9399.007173
886.963930,153.140646,114.855485,-9360.722011
886.964558,76.570323,114.855485,-9418.149754
886.965186,76.570323,133.998066,-9360.722011
886.965813,95.712904,114.855485,-9418.149754
886.966441,76.570323,210.568389,-9456.434915
886.967069,76.570323,210.568389,-9437.292334
886.967696,38.285162,114.855485,-9418.149754
886.968324,38.285162,114.855485,-9456.434915
886.968952,153.140646,153.140646,-9437.292334
886.969579,95.712904,153.140646,-9456.434915
886.970207,38.285162,114.855485,-9456.434915
886.970835,133.998066,114.855485,-9418.149754
886.971462,76.570323,229.710970,-9494.720077
886.972090,133.998066,114.855485,-9437.292334
886.972718,76.570323,114.855485,-9418.149754
886.973345,133.998066,114.855485,-9494.720077
886.973973,133.998066,153.140646,-9456.434915
886.974601,114.855485,114.855485,-9399.007173
886.975228,172.283227,133.998066,-9360.722011
886.975856,133.998066,114.855485,-9418.149754
886.976484,153.140646,114.855485,-9418.149754
886.977111,114.855485,191.425808,-9360.722011
886.977739,76.570323,267.996131,-9418.149754
886.978367,76.570323,114.855485,-9418.149754
886.978994,95.712904,114.855485,-9437.292334
886.979622,76.570323,114.855485,-9456.434915
886.980249,76.570323,114.855485,-9437.292334
886.980877,57.427742,95.712904,-9456.434915
886.981505,133.998066,172.283227,-9437.292334
886.982132,153.140646,172.283227,-9494.720077
886.982760,153.140646,172.283227,-9456.434915
886.983388,133.998066,114.855485,-9418.149754
886.984015,153.140646,95.712904,-9360.722011
886.984643,133.998066,153.140646,-9399.007173
886.985271,38.285162,172.283227,-9418.149754
886.985898,38.285162,229.710970,-9418.149754
886.986526,76.570323,172.283227,-9437.292334
886.987154,133.998066,114.855485,-9418.149754
886.987781,76.570323,114.855485,-9437.292334
886.988409,76.570323,172.283227,-9533.005238
886.989037,76.570323,114.855485,-9418.149754
886.989664,76.570323,114.855485,-9418.149754
886.990292,153.140646,133.998066,-9456.434915
886.990920,95.712904,210.568389,-9418.149754
886.991547,76.570323,210.568389,-9456.434915
886.992175,114.855485,172.283227,-9418.149754
886.992803,133.998066,153.140646,-9418.149754
886.993430,76.570323,114.855485,-9418.149754
886.994058,38.285162,172.283227,-9418.149754
886.994686,114.855485,95.712904,-9456.434915
886.995313,38.285162,172.283227,-9399.007173
886.995941,133.998066,133.998066,-9399.007173
886.996569,114.855485,114.855485,-9456.434915
886.997196,95.712904,114.855485,-9418.149754
886.997824,76.570323,172.283227,-9475.577496
886.998452,133.998066,153.140646,-9399.007173
886.999079,76.570323,114.855485,-9418.149754
886.999707,114.855485,114.855485,-9437.292334
887.000335,153.140646,191.425808,-9399.007173
887.000962,153.140646,133.998066,-9399.007173
887.001590,133.998066,153.140646,-9418.149754
887.002218,133.998066,153.140646,-9418.149754
887.002845,133.998066,153.140646,-9418.149754
887.003473,133.998066,172.283227,-9437.292334
887.004101,76.570323,153.140646,-9418.149754
887.004728,114.855485,133.998066,-9360.722011
887.005356,133.998066,114.855485,-9437.292334
887.005984,133.998066,114.855485,-9456.434915
887.006611,114.855485,133.998066,-9360.722011
887.007239,38.285162,114.855485,-9418.149754
887.007867,57.427742,95.712904,-9399.007173
887.008494,19.142581,114.855485,-9437.292334
887.009122,95.712904,172.283227,-9418.149754
887.009750,133.998066,114.855485,-9533.005238
